"width","height","webaudio","browser","browser_version","mobile","os","fullscreen","vsync_rate","webcam","microphone","trial_type","trial_index","time_elapsed","internal_node_id","value","success","timeout","failed_images","failed_audio","failed_video","view_history","rt","stimulus","response","nodes_order","correct_response","correct","block_index","presentation_index","clique_size","graph_size","graphs_names"
"1440","731","true","chrome","133.0.0","false","Windows 10","true","61.98","true","true","browser-check","0","975","0.0-0.0","","","","","","","","","","","","","","","","","",""
"","","","","","","","","","","","call-function","1","1027","0.0-1.0","","","","","","","","","","","","","","","","","",""
"","","","","","","","","","","","preload","2","1181","0.0-2.0","","true","false","[]","[]","[]","","","","","","","","","","","",""
"","","","","","","","","","","","pavlovia","3","1481","0.0-3.0","","","","","","","","","","","","","","","","","",""
"","","","","","","","","","","","instructions","4","2962","0.0-4.0","","","","","","","[{""page_index"":0,""viewing_time"":1328},{""page_index"":1,""viewing_time"":149}]","1477","","","","","","","","","",""
"","","","","","","","","","","","html-keyboard-response","5","4476","0.0-5.0-0.0","","","","","","","","1513","By accepting to participate in this study, you confirm:
                <p style='text-align:left'>
                    - That I have carefully read the explanations regarding this study and the entire experimental procedure;<br>
                    - That I have been informed about the aims and objectives of this research;<br>
                    - That I am aware of the inconveniences, if any, caused by the experiment;<br>
                    - That I have received satisfactory assurances regarding the confidentiality of the information obtained from the examination of my own person; <br>
                    - That I am aware that I can withdraw at any stage of the study.
                <p>
                <span style=""color: #808080"">
                    Press [Y] to <strong>accept</strong>.
                </span> <br>
                <span style=""color: #808080"">
                    Press [N] to <strong>refuse</strong>.
                </span>","y","","","","","","","",""
"","","","","","","","","","","","survey-html-form","6","9447","0.0-6.0","","","","","","","","4969","","{""gender"":""female"",""age"":""23""}","","","","","","","",""
"","","","","","","","","","","","preload","7","9834","0.0-7.0","","true","false","[]","[]","[]","","","","","","","","","","","",""
"","","","","","","","","","","","instructions","8","18716","0.0-8.0","","","","","","","[{""page_index"":0,""viewing_time"":1041},{""page_index"":1,""viewing_time"":209},{""page_index"":2,""viewing_time"":96},{""page_index"":3,""viewing_time"":144},{""page_index"":4,""viewing_time"":160},{""page_index"":5,""viewing_time"":128},{""page_index"":6,""viewing_time"":142},{""page_index"":7,""viewing_time"":113},{""page_index"":8,""viewing_time"":128},{""page_index"":9,""viewing_time"":128},{""page_index"":10,""viewing_time"":129},{""page_index"":11,""viewing_time"":128},{""page_index"":12,""viewing_time"":112},{""page_index"":13,""viewing_time"":128},{""page_index"":14,""viewing_time"":144},{""page_index"":15,""viewing_time"":143},{""page_index"":16,""viewing_time"":240},{""page_index"":17,""viewing_time"":160},{""page_index"":18,""viewing_time"":128},{""page_index"":19,""viewing_time"":160},{""page_index"":20,""viewing_time"":144},{""page_index"":21,""viewing_time"":159},{""page_index"":22,""viewing_time"":113},{""page_index"":23,""viewing_time"":144},{""page_index"":24,""viewing_time"":287},{""page_index"":25,""viewing_time"":113},{""page_index"":26,""viewing_time"":128},{""page_index"":27,""viewing_time"":112},{""page_index"":28,""viewing_time"":145},{""page_index"":29,""viewing_time"":128},{""page_index"":30,""viewing_time"":144},{""page_index"":31,""viewing_time"":126},{""page_index"":32,""viewing_time"":128},{""page_index"":33,""viewing_time"":128},{""page_index"":34,""viewing_time"":128},{""page_index"":35,""viewing_time"":112},{""page_index"":36,""viewing_time"":112},{""page_index"":37,""viewing_time"":130},{""page_index"":38,""viewing_time"":640},{""page_index"":39,""viewing_time"":127},{""page_index"":40,""viewing_time"":161},{""page_index"":41,""viewing_time"":144},{""page_index"":42,""viewing_time"":176},{""page_index"":43,""viewing_time"":145},{""page_index"":44,""viewing_time"":208},{""page_index"":45,""viewing_time"":160},{""page_index"":46,""viewing_time"":175},{""page_index"":47,""viewing_time"":160},{""page_index"":48,""viewing_time"":128},{""page_index"":49,""viewing_time"":160},{""page_index"":50,""viewing_time"":129},{""page_index"":51,""viewing_time"":128}]","8882","","","","","","","","","",""
"","","","","","","","","","","","instructions","9","19485","0.0-9.0","","","","","","","[{""page_index"":0,""viewing_time"":767}]","767","","","","","","","","","",""
"","","","","","","","","","","","preload","10","19945","0.0-10.0","","true","false","[]","[]","[]","","","","","","","","","","","",""
"","","","","","","","","","","","image-keyboard-response","11","19996","0.0-11.0","","","","","","","","48","tutorial/p_reduce/task_familiarization_images/part 1/01_N160_K90_cliqueRight_question1.PNG"," ","","","","","","","",""
"","","","","","","","","","","","image-keyboard-response","12","20253","0.0-12.0","","","","","","","","256","tutorial/p_reduce/task_familiarization_images/part 1/02_N160_K90_cliqueRight_question2.PNG"," ","","","","","","","",""
"","","","","","","","","","","","image-keyboard-response","13","20571","0.0-13.0","","","","","","","","316","tutorial/p_reduce/task_familiarization_images/part 1/03_N160_K90_cliqueRight_question3.PNG","arrowleft","","","","","","","",""
"","","","","","","","","","","","image-keyboard-response","14","20675","0.0-14.0","","","","","","","","102","tutorial/p_reduce/task_familiarization_images/part 1/04_N160_K90_cliqueRight_solution.PNG"," ","","","","","","","",""
"","","","","","","","","","","","image-keyboard-response","15","20892","0.0-15.0","","","","","","","","216","tutorial/p_reduce/task_familiarization_images/part 1/05_N160_K65_cliqueRight_question1.PNG"," ","","","","","","","",""
"","","","","","","","","","","","image-keyboard-response","16","21101","0.0-16.0","","","","","","","","207","tutorial/p_reduce/task_familiarization_images/part 1/06_N160_K65_cliqueRight_question2.PNG"," ","","","","","","","",""
"","","","","","","","","","","","image-keyboard-response","17","21343","0.0-17.0","","","","","","","","241","tutorial/p_reduce/task_familiarization_images/part 1/07_N160_K65_cliqueRight_question3.PNG","arrowleft","","","","","","","",""
"","","","","","","","","","","","image-keyboard-response","18","21485","0.0-18.0","","","","","","","","140","tutorial/p_reduce/task_familiarization_images/part 1/08_N160_K65_cliqueRight_solution.PNG"," ","","","","","","","",""
"","","","","","","","","","","","image-keyboard-response","19","21691","0.0-19.0","","","","","","","","205","tutorial/p_reduce/task_familiarization_images/part 1/09_N160_K50_cliqueLeft_question1.PNG"," ","","","","","","","",""
"","","","","","","","","","","","image-keyboard-response","20","21900","0.0-20.0","","","","","","","","207","tutorial/p_reduce/task_familiarization_images/part 1/10_N160_K50_cliqueLeft_question2.PNG"," ","","","","","","","",""
"","","","","","","","","","","","image-keyboard-response","21","22044","0.0-21.0","","","","","","","","143","tutorial/p_reduce/task_familiarization_images/part 1/11_N160_K50_cliqueLeft_question3.PNG","arrowleft","","","","","","","",""
"","","","","","","","","","","","image-keyboard-response","22","22189","0.0-22.0","","","","","","","","143","tutorial/p_reduce/task_familiarization_images/part 1/12_N160_K50_cliqueLeft_solution.PNG"," ","","","","","","","",""
"","","","","","","","","","","","image-keyboard-response","23","22365","0.0-23.0","","","","","","","","175","tutorial/p_reduce/task_familiarization_images/part 1/13_N160_K80_cliqueLeft_question1.PNG"," ","","","","","","","",""
"","","","","","","","","","","","image-keyboard-response","24","22540","0.0-24.0","","","","","","","","173","tutorial/p_reduce/task_familiarization_images/part 1/14_N160_K80_cliqueLeft_question2.PNG"," ","","","","","","","",""
"","","","","","","","","","","","image-keyboard-response","25","22750","0.0-25.0","","","","","","","","209","tutorial/p_reduce/task_familiarization_images/part 1/15_N160_K80_cliqueLeft_question3.PNG","arrowright","","","","","","","",""
"","","","","","","","","","","","image-keyboard-response","26","22923","0.0-26.0","","","","","","","","172","tutorial/p_reduce/task_familiarization_images/part 1/16_N160_K80_cliqueLeft_solution.PNG"," ","","","","","","","",""
"","","","","","","","","","","","image-keyboard-response","27","23132","0.0-27.0","","","","","","","","207","tutorial/p_reduce/task_familiarization_images/part 1/17_N160_K40_cliqueRight_question1.PNG"," ","","","","","","","",""
"","","","","","","","","","","","image-keyboard-response","28","23324","0.0-28.0","","","","","","","","191","tutorial/p_reduce/task_familiarization_images/part 1/18_N160_K40_cliqueRight_question2.PNG"," ","","","","","","","",""
"","","","","","","","","","","","image-keyboard-response","29","23485","0.0-29.0","","","","","","","","160","tutorial/p_reduce/task_familiarization_images/part 1/19_N160_K40_cliqueRight_question3.PNG","arrowleft","","","","","","","",""
"","","","","","","","","","","","image-keyboard-response","30","23612","0.0-30.0","","","","","","","","125","tutorial/p_reduce/task_familiarization_images/part 1/20_N160_K40_cliqueRight_solution.PNG"," ","","","","","","","",""
"","","","","","","","","","","","image-keyboard-response","31","24141","0.0-31.0","","","","","","","","523","tutorial/p_reduce/task_familiarization_images/part 1/21_N160_K70_cliqueLeft_question1.PNG"," ","","","","","","","",""
"","","","","","","","","","","","image-keyboard-response","32","24348","0.0-32.0","","","","","","","","205","tutorial/p_reduce/task_familiarization_images/part 1/22_N160_K70_cliqueLeft_question2.PNG"," ","","","","","","","",""
"","","","","","","","","","","","image-keyboard-response","33","24548","0.0-33.0","","","","","","","","198","tutorial/p_reduce/task_familiarization_images/part 1/23_N160_K70_cliqueLeft_question3.PNG","arrowleft","","","","","","","",""
"","","","","","","","","","","","image-keyboard-response","34","24684","0.0-34.0","","","","","","","","135","tutorial/p_reduce/task_familiarization_images/part 1/24_N160_K70_cliqueLeft_solution.PNG"," ","","","","","","","",""
"","","","","","","","","","","","preload","35","25089","0.0-35.0","","true","false","[]","[]","[]","","","","","","","","","","","",""
"","","","","","","","","","","","image-keyboard-response","36","25339","0.0-36.0","","","","","","","","250","tutorial/p_reduce/task_familiarization_images/part 2/01_N160_K80_cliqueLeft_withFeedback_1.PNG"," ","","","","","","","",""
"","","","","","","","","","","","image-keyboard-response","37","25547","0.0-37.0","","","","","","","","207","tutorial/p_reduce/task_familiarization_images/part 2/02_N160_K80_cliqueLeft_withFeedback_2.PNG"," ","","","","","","","",""
"","","","","","","","","","","","image-keyboard-response","38","25646","0.0-38.0","","","","","","","","97","tutorial/p_reduce/task_familiarization_images/part 2/03_N160_K80_cliqueLeft_withFeedback_3.PNG","arrowright","","","","","","","",""
"","","","","","","","","","","","image-keyboard-response","39","25819","0.0-39.0","","","","","","","","171","tutorial/p_reduce/task_familiarization_images/part 2/04_N160_K80_cliqueLeft_withFeedback_wrong.PNG"," ","","","","","","","",""
"","","","","","","","","","","","image-keyboard-response","40","26364","0.0-40.0","","","","","","","","544","tutorial/p_reduce/task_familiarization_images/part 2/05_N160_K55_cliqueRight_withFeedback_1.PNG"," ","","","","","","","",""
"","","","","","","","","","","","image-keyboard-response","41","26541","0.0-41.0","","","","","","","","175","tutorial/p_reduce/task_familiarization_images/part 2/06_N160_K55_cliqueRight_withFeedback_2.PNG"," ","","","","","","","",""
"","","","","","","","","","","","image-keyboard-response","42","26779","0.0-42.0","","","","","","","","236","tutorial/p_reduce/task_familiarization_images/part 2/07_N160_K55_cliqueRight_withFeedback_3.PNG","arrowleft","","","","","","","",""
"","","","","","","","","","","","image-keyboard-response","43","26940","0.0-43.0","","","","","","","","159","tutorial/p_reduce/task_familiarization_images/part 2/08_N160_K55_cliqueRight_withFeedback_wrong.PNG"," ","","","","","","","",""
"","","","","","","","","","","","image-keyboard-response","44","27148","0.0-44.0","","","","","","","","206","tutorial/p_reduce/task_familiarization_images/part 2/09_N160_K70_cliqueLeft_withFeedback_1.PNG"," ","","","","","","","",""
"","","","","","","","","","","","image-keyboard-response","45","27341","0.0-45.0","","","","","","","","191","tutorial/p_reduce/task_familiarization_images/part 2/10_N160_K70_cliqueLeft_withFeedback_2.PNG"," ","","","","","","","",""
"","","","","","","","","","","","image-keyboard-response","46","27468","0.0-46.0","","","","","","","","125","tutorial/p_reduce/task_familiarization_images/part 2/11_N160_K70_cliqueLeft_withFeedback_3.PNG","arrowleft","","","","","","","",""
"","","","","","","","","","","","image-keyboard-response","47","27549","0.0-47.0","","","","","","","","80","tutorial/p_reduce/task_familiarization_images/part 2/12_N160_K70_cliqueLeft_withFeedback_correct.PNG"," ","","","","","","","",""
"","","","","","","","","","","","preload","48","27726","0.0-48.0","","true","false","[]","[]","[]","","","","","","","","","","","",""
"","","","","","","","","","","","instructions","49","28396","0.0-49.0","","","","","","","[{""page_index"":0,""viewing_time"":670}]","670","","","","","","","","","",""
"","","","","","","","","","","","fullscreen","50","31248","0.0-51.0","","true","","","","","","","","","","","","","","","",""
"","","","","","","","","","","","canvas-keyboard-response","51","33916","0.0-52.0-0.0-0.0","","","","","","","","1704","","arrowleft","[155,239,574,661,750,759,778,340,508,193,703,12,546,40,405,275,698,11,470,52,114,172,731,60,415,710,18,3,587,509,599,552,323,666,403,459,741,663,460,378,225,688,707,64,532,601,539,528,724,139,386,24,634,653,331,319,379,128,339,383,94,45,238,70,597,662,618,550,344,2,717,776,614,301,734,669,16,483,185,181,49,591,434,793,44,657,50,533,286,282,675,153,489,130,506,704,428,361,613,76,784,42,365,593,186,309,325,526,673,133,439,568,566,28,564,736,119,575,250,424,596,557,334,451,106,366,503,543,739,290,219,500,122,742,456,600,39,377,123,32,685,542,637,581,373,414,535,147,312,90,149,545,422,313,22,536,764,733,191,762,307,125,358,387,436,245,691,758,631,345,751,177,466,531,643,416,372,788,562,396,82,171,555,452,356,426,418,303,797,251,389,660,475,243,63,507,48,569,241,608,91,625,165,732,269,468,454,294,753,632,267,589,541,292,353,258,412,318,561,628,737,603,553,620,278,584,255,381,37,41,649,681,505,752,246,404,457,440,648,66,207,642,748,638,611,229,332,484,194,53,342,103,279,23,537,520,624,330,785,222,455,747,272,35,235,799,665,382,111,619,127,595,761,138,714,727,198,88,117,317,708,697,670,493,124,499,427,510,31,151,277,646,446,790,425,467,349,696,293,782,791,26,78,109,504,43,336,182,158,159,679,305,264,442,136,658,268,746,606,144,671,787,469,450,723,126,527,730,167,174,471,62,19,92,6,789,237,633,490,197,585,647,792,721,202,170,430,481,786,794,458,749,772,34,61,796,576,795,220,728,674,498,448,304,320,384,276,224,523,779,223,563,398,143,321,180,592,392,10,256,420,105,375,417,68,612,477,259,781,676,390,485,413,700,56,668,363,183,352,205,551,58,639,567,102,780,169,711,687,13,316,86,692,236,705,0,27,261,262,677,402,104,270,408,565,755,757,798,69,474,664,280,743,160,67,641,580,71,324,473,622,4,547,682,156,462,214,478,429,629,97,769,306,351,391,530,480,129,659,694,359,652,59,108,376,571,257,713,17,583,315,249,447,338,763,154,25,164,273,8,444,75,96,161,221,548,511,586,453,297,777,443,33,524,29,411,572,476,178,706,486,617,244,228,87,579,206,38,152,388,693,266,740,343,162,556,210,672,602,84,684,554,395,85,260,578,604,686,519,423,393,146,54,89,765,163,371,496,570,718,232,650,285,544,725,347,445,227,655,598,20,80,433,298,369,184,110,233,157,735,100,252,701,189,360,281,211,656,715,488,380,716,79,626,615,148,745,495,610,263,729,73,168,394,699,274,112,329,308,83,463,208,173,529,549,449,333,95,188,775,709,588,47,131,501,137,287,348,770,582,242,362,689,516,135,253,115,302,399,766,5,55,57,616,14,522,559,296,771,51,465,767,635,300,683,407,326,573,36,93,271,346,517,141,199,283,367,231,640,783,627,722,30,560,77,217,590,441,176,540,295,435,491,1,410,140,98,518,738,192,521,118,7,419,754,577,213,726,314,538,744,357,190,65,431,291,364,525,774,328,311,773,621,438,695,134,341,690,195,265,712,385,461,558,667,196,651,99,400,21,464,120,337,132,150,494,46,350,288,107,492,680,502,101,409,322,370,200,497,607,81,636,15,284,72,515,121,534,230,719,720,310,145,201,397,472,644,406,368,354,203,226,187,512,254,768,327,432,702,240,594,209,514,218,630,401,479,756,623,116,335,609,142,74,166,299,760,437,215,645,9,216,113,513,248,678,654,234,374,175,289,204,179,487,247,482,605,421,212,355]","arrowleft","true","0","0","240","800","[""0093_N0800_K0240_CLIQUE"",""0025_N0800_K0240_NOCLIQUE""]"
"","","","","","","","","","","","audio-keyboard-response","52","35115","0.0-52.0-0.0-1.0","","","","","","","","null","audio_feedback/right/coin01.mp3","null","","","","0","0","240","800","[""0093_N0800_K0240_CLIQUE"",""0025_N0800_K0240_NOCLIQUE""]"
"","","","","","","","","","","","canvas-keyboard-response","53","36667","0.0-53.0-0.0-0.0","","","","","","","","673","","arrowright","[665,462,664,339,429,58,208,293,498,239,480,481,659,192,634,124,698,759,323,508,584,509,7,111,756,747,443,322,623,174,24,539,92,624,32,595,514,793,376,131,737,734,108,440,336,35,727,653,680,594,21,326,758,410,145,772,182,451,395,402,178,766,796,591,777,593,517,523,477,173,396,184,580,444,427,250,251,55,386,706,719,715,34,175,586,305,226,155,143,729,742,449,483,466,66,768,187,525,307,771,687,298,426,555,243,341,599,750,635,398,670,171,757,312,465,587,56,230,151,424,702,27,152,337,176,654,476,287,260,358,791,762,359,221,207,671,662,515,620,673,651,400,357,713,582,699,356,345,123,500,493,140,781,628,88,194,437,672,409,233,392,658,240,613,610,246,100,641,179,412,776,602,248,676,105,663,738,786,198,679,40,434,735,414,375,688,617,472,284,234,798,733,559,377,218,788,760,372,78,90,325,512,338,763,574,621,252,116,504,367,361,682,491,532,87,166,146,52,138,107,554,637,363,681,144,98,723,535,538,684,279,149,39,648,355,485,235,245,13,787,545,276,83,18,106,349,562,281,69,19,348,404,180,385,656,714,572,292,590,12,122,128,563,129,261,86,797,227,311,172,573,789,238,353,169,422,65,438,576,29,295,616,115,459,428,59,627,16,374,631,730,542,769,120,701,53,236,686,529,290,636,454,544,303,214,139,335,614,557,561,390,114,269,691,362,4,401,382,717,675,533,413,57,697,420,280,77,578,257,743,343,165,486,157,217,468,470,366,607,159,488,666,204,270,783,342,473,740,784,161,185,321,110,371,496,601,537,211,519,373,188,167,344,72,168,102,569,206,794,121,183,720,75,567,288,334,564,273,478,383,416,200,780,130,177,492,388,560,266,407,38,331,753,646,301,716,299,754,419,118,49,381,552,196,94,736,201,521,191,263,482,274,26,50,309,61,579,502,516,464,300,611,442,141,581,722,249,327,148,181,606,600,415,494,286,435,304,548,568,618,764,125,154,6,156,25,142,31,320,678,501,597,255,431,43,655,785,403,153,147,119,546,223,275,126,150,195,405,513,497,399,193,5,340,703,272,347,604,62,625,531,237,285,549,731,425,571,773,189,668,81,649,346,558,705,741,96,314,795,48,629,471,213,33,17,633,619,475,302,540,41,774,536,751,205,474,527,219,23,389,598,133,436,585,387,575,79,505,565,704,319,511,112,642,318,457,696,70,294,700,393,484,463,639,265,117,661,450,199,15,692,391,136,566,268,22,526,622,36,202,370,85,677,20,792,728,10,89,423,3,225,397,445,551,30,547,689,93,313,732,487,632,650,657,456,160,721,510,770,95,615,570,329,767,630,507,694,748,583,254,369,556,778,289,64,430,452,352,626,216,710,490,76,350,209,461,638,127,63,439,101,215,186,134,80,328,520,42,588,489,765,170,446,744,1,308,360,229,707,2,228,711,499,712,608,271,277,54,528,306,469,242,453,158,605,406,44,14,51,232,524,364,577,695,612,60,324,718,253,103,495,589,433,790,726,693,667,291,91,652,669,690,163,256,222,210,603,68,67,28,447,97,448,467,258,45,46,749,190,725,782,247,609,351,739,394,104,479,73,296,379,71,365,534,330,0,333,530,317,746,799,378,137,82,592,685,197,408,283,647,455,506,37,553,282,244,109,162,310,132,262,550,518,384,220,709,8,441,231,411,224,755,380,74,660,267,47,418,522,316,368,541,708,164,503,241,775,135,724,212,354,432,297,640,259,674,203,11,779,332,84,761,460,417,421,113,752,278,683,644,315,645,745,543,9,458,99,643,264,596]","arrowright","true","0","1","240","800","[""0077_N0800_K0240_NOCLIQUE"",""0012_N0800_K0240_CLIQUE""]"
"","","","","","","","","","","","audio-keyboard-response","54","37661","0.0-53.0-0.0-1.0","","","","","","","","null","audio_feedback/right/coin01.mp3","null","","","","0","1","240","800","[""0077_N0800_K0240_NOCLIQUE"",""0012_N0800_K0240_CLIQUE""]"
"","","","","","","","","","","","canvas-keyboard-response","55","39181","0.0-54.0-0.0-0.0","","","","","","","","586","","arrowright","[643,760,259,702,641,686,708,7,576,606,672,228,237,485,85,416,394,447,669,165,368,478,648,581,244,472,527,52,284,223,309,409,526,188,267,240,614,151,731,212,501,445,586,610,43,579,716,39,5,793,33,164,558,755,750,797,308,483,104,96,432,222,233,490,646,509,73,632,55,358,748,431,654,728,466,776,742,396,424,497,129,537,173,668,782,772,397,16,649,363,764,290,535,31,644,50,457,573,591,595,378,557,453,425,544,585,83,792,619,524,493,247,615,198,761,400,429,227,600,679,287,323,664,587,449,232,216,217,456,422,536,123,479,531,770,465,736,277,209,159,324,26,732,673,438,197,143,99,149,36,283,555,139,81,727,367,468,67,658,476,638,105,8,721,634,799,780,251,274,318,132,441,530,275,701,503,195,520,556,279,339,303,674,578,791,292,722,568,439,329,546,266,377,334,172,294,659,58,487,382,523,505,631,186,543,625,176,254,517,134,452,193,404,414,704,261,124,200,510,572,242,15,486,301,328,320,678,724,61,341,518,6,434,697,272,651,630,707,488,593,163,688,342,62,112,88,194,480,734,729,168,762,435,408,677,549,316,538,326,562,298,95,430,626,121,590,754,498,496,407,440,181,131,784,372,594,426,570,751,310,269,245,66,202,541,470,40,743,771,302,366,662,192,494,616,142,647,319,144,203,387,325,763,765,119,38,14,335,401,552,584,436,700,264,758,191,291,622,116,459,670,666,652,9,597,156,161,313,153,345,379,113,413,46,10,794,681,514,665,98,167,525,637,723,71,76,215,508,545,519,513,246,798,256,241,550,348,258,80,355,489,178,196,444,338,551,567,786,779,304,315,491,650,752,563,415,89,371,51,125,296,458,21,75,733,340,706,70,391,44,639,406,333,94,773,402,454,47,23,604,511,653,235,373,231,229,214,136,307,395,633,539,507,93,90,737,601,717,769,140,206,86,82,92,482,184,285,448,410,492,542,268,351,747,295,528,712,680,446,128,370,56,386,201,692,286,111,469,108,390,169,463,744,421,599,330,122,45,84,735,29,282,369,420,53,500,380,262,661,411,311,467,399,703,97,225,381,115,548,2,312,423,777,207,559,141,362,160,19,693,471,234,710,583,655,148,699,336,221,257,571,48,783,34,515,158,59,506,352,427,629,443,657,495,3,74,288,398,603,17,250,118,714,187,620,739,711,270,281,565,12,781,364,462,107,359,689,682,155,617,22,695,642,475,481,190,757,375,170,49,174,569,608,389,350,102,349,25,529,636,204,344,796,130,120,455,774,171,685,461,154,709,220,417,645,534,553,512,114,690,437,477,346,77,778,332,199,738,236,376,753,532,428,788,248,100,146,745,255,182,317,0,384,224,265,609,110,589,4,211,795,540,759,109,322,374,740,575,127,78,628,675,623,28,354,741,719,166,226,273,789,785,64,299,306,54,582,305,621,213,300,145,13,533,607,37,347,91,588,464,392,635,18,117,72,219,730,253,577,42,361,726,676,138,185,41,725,357,660,756,11,775,418,252,87,189,521,103,68,504,516,715,499,205,561,133,790,627,663,183,656,602,106,580,768,263,360,720,365,474,331,314,667,705,321,238,27,297,718,746,713,260,451,403,327,624,147,502,293,137,393,65,162,180,611,230,276,618,522,218,596,412,566,696,605,210,30,684,157,694,554,442,383,175,126,150,60,687,289,239,450,343,24,433,280,179,419,353,749,388,460,787,564,671,35,385,1,473,20,243,767,598,69,208,613,698,405,691,101,271,32,57,683,278,547,766,574,177,592,249,484,612,560,63,135,640,152,356,337,79]","arrowright","true","0","2","213","800","[""0043_N0800_K0213_NOCLIQUE"",""0079_N0800_K0213_CLIQUE""]"
"","","","","","","","","","","","audio-keyboard-response","56","40175","0.0-54.0-0.0-1.0","","","","","","","","null","audio_feedback/right/coin01.mp3","null","","","","0","2","213","800","[""0043_N0800_K0213_NOCLIQUE"",""0079_N0800_K0213_CLIQUE""]"
"","","","","","","","","","","","canvas-keyboard-response","57","41756","0.0-55.0-0.0-0.0","","","","","","","","536","","arrowleft","[316,154,25,259,292,119,645,147,390,512,14,87,96,465,488,474,701,653,131,617,399,180,44,706,401,633,295,791,72,47,727,187,331,52,6,630,765,289,391,28,183,531,744,314,371,626,348,457,773,78,40,716,497,766,301,140,42,57,311,62,171,70,598,81,233,344,440,759,647,696,596,91,93,73,454,110,700,362,510,667,11,133,695,557,520,568,605,381,199,246,403,469,172,84,686,332,471,109,463,26,115,476,450,405,713,409,223,310,597,733,142,648,4,164,723,643,166,216,51,767,15,253,71,620,447,387,420,654,53,515,445,509,429,143,453,215,363,195,158,126,550,267,556,715,414,722,174,481,341,734,221,649,549,492,234,407,275,755,435,252,338,790,731,207,684,298,743,209,762,431,107,383,355,290,748,778,606,585,642,219,398,797,264,257,43,522,432,611,149,533,372,61,255,564,250,732,144,661,569,235,513,307,751,176,89,173,459,498,546,238,66,776,361,286,153,342,116,270,360,258,763,425,437,692,646,584,737,775,679,538,552,632,309,227,561,230,745,327,641,152,122,644,430,789,24,760,208,621,416,228,125,614,156,18,271,97,5,583,505,3,294,384,108,69,20,411,589,169,581,273,688,768,145,214,590,786,691,1,687,415,359,467,480,709,297,212,395,113,285,55,137,461,772,370,670,519,665,496,736,785,738,386,357,637,217,245,280,544,619,128,104,656,725,717,229,340,669,526,191,565,239,502,37,659,699,27,567,587,451,325,165,388,741,478,655,304,351,446,320,494,130,427,607,201,218,576,288,689,157,536,39,32,754,189,578,521,354,379,339,269,276,236,563,629,718,136,624,433,439,117,721,186,8,555,112,103,486,756,612,49,464,543,132,702,752,300,382,484,184,261,322,627,662,660,491,278,98,518,761,410,94,528,574,175,423,148,263,282,48,380,448,545,206,673,281,396,17,758,241,483,524,485,29,501,19,138,265,678,345,400,729,352,444,334,475,719,266,394,111,788,462,185,308,274,507,392,240,181,690,224,260,129,319,124,417,675,328,225,67,787,123,38,458,740,742,720,693,330,242,436,284,121,506,182,613,12,708,495,468,577,134,616,31,466,21,41,232,595,262,527,2,750,592,575,198,658,460,559,159,375,792,193,59,798,487,753,703,16,36,537,412,553,672,50,638,714,302,530,368,571,764,364,500,601,135,636,582,101,443,79,46,367,179,33,771,0,618,674,346,299,782,682,421,770,86,677,210,516,83,470,676,794,220,473,88,586,422,254,226,705,82,100,347,202,599,141,13,631,551,213,203,449,243,698,711,769,413,542,625,685,374,640,231,566,366,402,60,34,333,728,529,593,160,664,305,268,120,504,668,517,747,456,573,796,547,277,365,781,167,651,315,373,404,397,244,376,523,349,472,63,35,321,441,190,539,9,306,296,95,326,562,683,76,30,419,749,163,188,710,312,313,353,730,499,90,168,591,10,602,350,508,560,541,608,317,774,634,603,503,237,442,697,490,7,777,45,779,511,56,272,622,293,424,75,222,548,793,712,92,489,337,204,493,609,438,146,385,657,77,514,303,247,532,161,628,22,99,525,196,54,588,192,155,194,64,80,170,739,757,477,323,795,177,406,162,666,479,572,635,671,256,151,85,724,105,707,23,150,336,663,681,452,329,335,211,197,324,377,694,426,623,356,534,434,783,318,369,604,799,726,378,579,178,650,358,704,535,408,554,68,735,639,784,106,114,200,389,594,418,580,127,283,393,251,291,540,102,279,615,287,248,74,455,118,139,570,558,746,58,482,428,65,343,600,205,780,610,680,249,652]","arrowleft","true","0","3","213","800","[""0080_N0800_K0213_CLIQUE"",""0002_N0800_K0213_NOCLIQUE""]"
"","","","","","","","","","","","audio-keyboard-response","58","42754","0.0-55.0-0.0-1.0","","","","","","","","null","audio_feedback/right/coin01.mp3","null","","","","0","3","213","800","[""0080_N0800_K0213_CLIQUE"",""0002_N0800_K0213_NOCLIQUE""]"
"","","","","","","","","","","","canvas-keyboard-response","59","44444","0.0-56.0-0.0-0.0","","","","","","","","614","","arrowleft","[1,382,118,530,195,725,221,135,407,370,228,493,329,86,538,148,224,575,163,623,181,537,455,661,389,60,577,143,686,11,242,231,304,526,46,316,49,506,544,504,136,479,707,773,362,47,484,365,645,483,778,498,397,584,597,308,660,44,566,23,17,206,30,318,675,431,116,292,210,122,95,121,598,613,434,632,443,191,565,793,436,451,310,481,763,750,426,364,257,688,501,499,177,416,356,179,500,760,629,616,5,542,594,653,94,293,366,120,390,546,108,414,261,558,709,367,309,156,694,6,102,745,400,543,2,674,209,268,762,307,487,534,785,180,799,184,327,529,511,539,25,339,670,235,332,360,214,110,673,105,472,708,648,244,114,549,410,516,29,456,664,781,205,560,669,590,176,269,776,312,69,53,635,52,371,668,194,58,621,421,494,369,464,508,77,457,488,320,738,681,253,429,547,151,314,424,710,139,735,518,182,459,104,559,222,589,740,768,305,112,448,636,720,422,106,330,396,767,324,578,690,141,596,169,490,612,171,39,702,749,726,175,170,473,643,22,691,73,101,722,207,406,62,248,714,588,446,350,748,721,671,377,442,775,496,7,695,574,512,771,284,687,379,302,113,333,203,689,467,641,335,437,409,531,134,715,250,167,795,237,769,425,449,208,706,583,492,637,290,251,497,599,593,796,682,0,380,401,787,744,213,197,301,458,59,338,158,245,736,519,240,728,786,752,265,628,154,505,601,606,705,470,658,374,178,591,66,68,89,697,325,604,162,274,482,266,51,527,435,652,701,551,358,746,129,717,627,772,354,103,352,605,582,618,201,3,277,741,26,378,349,142,679,61,56,152,415,733,570,12,556,241,438,18,404,639,619,368,491,155,96,90,634,713,797,447,160,535,298,445,642,742,45,93,587,161,188,626,252,672,466,71,676,418,153,344,28,289,754,286,193,758,761,489,684,654,267,100,440,609,225,278,227,40,43,657,789,256,276,461,54,130,185,145,296,323,9,212,393,200,450,262,202,759,650,411,541,272,117,48,146,232,439,190,340,34,78,33,67,50,525,666,37,348,419,548,300,124,80,700,790,579,218,698,564,719,38,361,42,788,576,341,111,562,313,76,427,555,693,249,13,273,510,520,128,743,219,711,727,258,782,794,607,678,536,254,514,165,243,476,133,503,183,186,14,550,600,469,723,540,239,703,226,196,463,474,737,602,98,692,204,667,413,75,234,739,770,70,417,532,74,127,376,16,718,595,85,523,288,138,751,468,174,233,696,603,306,342,402,387,465,92,35,573,24,478,553,513,322,343,580,375,779,624,372,115,428,279,608,633,399,665,384,502,173,462,792,27,398,471,783,412,533,287,480,755,132,524,444,229,187,321,215,485,798,119,554,649,572,651,638,131,486,236,655,346,355,545,81,757,683,149,385,731,507,420,10,592,753,328,764,395,83,699,777,198,647,784,433,430,157,712,571,172,285,756,255,31,311,36,192,460,734,659,264,611,392,125,517,150,704,528,454,563,137,394,441,99,140,765,88,729,557,359,561,630,640,246,4,453,334,168,189,20,281,72,144,347,331,747,774,32,567,319,625,423,84,123,238,63,766,383,291,280,230,159,166,724,646,391,351,64,363,21,614,91,216,271,19,223,522,780,82,405,282,97,357,297,147,263,164,521,615,220,680,509,685,791,217,275,353,8,617,475,55,477,109,41,644,622,317,631,87,586,716,295,663,552,662,730,299,126,732,388,620,259,199,260,336,247,381,581,515,568,283,345,403,270,373,495,294,211,432,386,656,585,569,15,303,65,326,337,452,610,315,107,677,57,79,408]","arrowleft","true","0","4","187","800","[""0089_N0800_K0187_CLIQUE"",""0013_N0800_K0187_NOCLIQUE""]"
"","","","","","","","","","","","audio-keyboard-response","60","45434","0.0-56.0-0.0-1.0","","","","","","","","null","audio_feedback/right/coin01.mp3","null","","","","0","4","187","800","[""0089_N0800_K0187_CLIQUE"",""0013_N0800_K0187_NOCLIQUE""]"
"","","","","","","","","","","","canvas-keyboard-response","61","46988","0.0-57.0-0.0-0.0","","","","","","","","482","","arrowright","[562,634,324,172,140,535,220,215,163,173,408,511,317,767,320,337,584,118,303,245,708,373,443,36,486,788,85,54,106,119,50,606,702,216,467,748,95,198,567,658,129,20,423,52,207,476,100,31,618,587,526,111,410,290,127,200,737,644,791,189,186,671,416,409,720,632,731,82,543,46,308,135,732,477,148,327,694,90,722,565,407,44,56,235,429,566,248,86,561,460,777,154,309,660,98,554,139,695,630,396,255,58,516,652,218,518,59,445,291,30,723,540,693,405,333,377,397,349,96,430,549,175,48,368,318,597,536,494,645,261,580,641,130,136,376,153,145,595,730,530,168,478,782,174,177,162,638,238,470,125,506,487,686,698,131,53,760,237,631,123,312,21,437,679,582,79,195,514,234,363,282,76,87,159,692,137,422,380,362,433,269,434,495,414,311,302,249,224,417,745,356,181,265,179,738,91,420,335,789,301,614,413,633,556,114,640,675,104,316,431,697,637,700,143,395,474,472,576,202,447,680,589,578,16,654,270,26,701,792,367,366,412,379,522,358,232,796,93,122,11,322,73,239,108,204,78,22,571,691,515,458,192,787,573,9,15,552,321,750,503,283,101,252,489,92,534,529,190,673,194,623,442,520,507,25,191,663,453,684,299,602,479,482,277,141,1,613,725,585,497,616,450,89,292,369,121,672,733,256,284,667,642,747,233,280,274,533,401,355,435,158,751,646,126,557,758,471,583,394,716,229,604,69,71,124,330,210,61,707,771,493,383,795,382,749,547,257,184,612,387,608,665,342,651,406,217,214,466,197,305,13,392,669,165,769,485,272,762,448,328,705,205,38,531,170,62,138,40,34,444,428,421,521,49,370,757,18,319,227,484,35,512,537,635,350,203,483,55,23,236,498,592,454,304,553,594,436,510,182,75,465,354,360,455,550,10,402,687,343,386,490,230,399,426,696,524,715,146,620,105,591,676,425,754,352,293,310,712,491,258,107,166,780,88,2,167,590,81,615,753,381,268,548,656,636,155,452,68,588,384,574,156,208,359,662,596,246,3,438,492,150,457,211,110,109,391,766,94,650,706,624,555,763,0,247,42,28,456,294,279,84,313,306,152,4,785,285,538,741,133,298,329,598,338,371,765,744,513,627,532,559,266,29,315,117,128,779,439,74,719,678,37,289,776,625,199,501,451,33,193,558,164,648,70,689,570,51,462,103,336,149,790,32,525,66,560,206,539,228,601,223,314,726,688,144,142,43,746,611,45,432,519,361,774,517,441,345,39,649,568,528,242,180,742,411,281,674,300,278,475,481,677,605,297,488,276,244,178,241,768,267,709,357,41,185,721,419,212,259,727,577,372,151,629,171,196,724,253,569,449,603,621,626,523,27,600,390,755,575,364,690,251,682,6,469,331,393,340,778,231,17,47,385,341,254,334,564,714,775,225,735,120,325,752,226,72,77,713,740,262,389,213,24,593,332,157,8,729,586,99,546,353,113,169,160,288,273,542,287,134,703,685,83,704,263,544,509,403,563,743,275,499,404,365,739,655,346,659,664,699,647,797,718,271,681,728,653,415,643,344,14,427,799,541,607,60,545,772,464,761,783,7,326,219,378,759,187,12,717,579,339,473,80,424,63,388,201,102,683,661,770,628,323,440,459,599,668,400,502,97,161,260,798,222,480,176,374,209,781,446,711,527,496,622,784,619,296,307,295,67,736,147,756,64,581,65,347,710,243,463,670,5,657,551,794,734,398,221,504,786,572,461,116,617,375,505,609,264,468,610,57,639,19,351,286,240,132,764,773,500,250,183,188,348,418,115,793,666,508,112]","arrowright","true","0","5","187","800","[""0032_N0800_K0187_NOCLIQUE"",""0020_N0800_K0187_CLIQUE""]"
"","","","","","","","","","","","audio-keyboard-response","62","47975","0.0-57.0-0.0-1.0","","","","","","","","null","audio_feedback/right/coin01.mp3","null","","","","0","5","187","800","[""0032_N0800_K0187_NOCLIQUE"",""0020_N0800_K0187_CLIQUE""]"
"","","","","","","","","","","","canvas-keyboard-response","63","49579","0.0-58.0-0.0-0.0","","","","","","","","813","","arrowleft","[641,68,779,464,459,509,201,752,174,576,314,111,93,250,598,317,322,372,557,580,87,470,244,176,651,102,522,180,680,160,240,631,758,777,498,484,788,517,420,620,309,505,178,94,34,310,313,360,467,426,91,254,614,419,210,84,97,376,583,15,600,759,603,798,36,793,483,284,134,552,96,221,757,585,460,327,170,763,88,54,217,425,51,444,453,247,654,744,224,275,177,546,357,602,159,766,394,396,715,624,646,506,617,429,10,774,293,592,447,113,11,581,754,323,508,292,707,569,141,140,172,411,139,67,736,149,795,433,688,531,121,477,608,616,343,593,374,110,714,16,784,515,198,228,153,385,681,482,692,693,2,19,589,529,339,528,682,239,332,26,796,237,330,595,283,98,282,599,713,83,458,251,223,45,215,765,101,750,277,783,71,489,363,605,457,409,24,439,14,561,481,727,741,342,570,383,312,532,200,89,74,560,559,473,267,695,591,362,649,416,780,288,781,755,516,192,689,663,145,303,308,344,238,21,387,683,173,584,37,42,333,44,434,618,257,637,158,799,393,27,377,169,207,404,371,650,161,399,290,702,351,271,341,523,609,302,264,356,119,760,261,48,66,535,218,768,187,77,143,50,738,655,700,672,52,370,136,448,214,604,38,476,276,540,300,256,12,665,770,645,286,667,242,789,405,265,684,29,337,262,335,539,627,771,691,5,382,354,232,227,435,775,307,211,541,610,657,733,679,725,512,280,388,606,461,696,587,565,361,478,666,747,551,352,446,776,206,440,154,305,488,406,269,40,427,252,611,455,718,463,367,543,642,233,746,63,792,57,521,43,612,274,524,167,652,664,567,386,350,225,753,205,82,25,199,502,670,647,366,669,732,368,410,266,630,607,338,229,432,686,594,673,62,590,526,85,70,108,30,39,487,133,566,194,761,480,705,196,369,423,648,270,597,456,450,555,137,722,41,179,449,748,726,130,1,165,417,246,639,114,321,556,28,325,95,78,7,438,226,197,230,306,381,635,622,711,171,407,18,59,379,737,424,144,643,289,468,623,621,504,485,203,613,73,437,163,4,472,17,64,723,712,175,120,601,329,698,675,135,745,268,797,181,320,355,397,132,365,653,474,514,496,431,403,677,90,412,125,729,710,490,152,92,519,0,545,720,60,518,730,717,794,278,255,749,103,469,220,263,671,299,65,190,445,115,390,129,185,721,572,204,235,151,415,588,9,513,731,536,615,285,22,195,349,586,298,23,553,491,708,547,294,640,319,668,295,182,384,520,422,364,500,734,72,573,164,127,311,527,231,258,658,208,86,222,147,418,786,554,575,146,318,790,241,533,259,619,644,413,563,442,632,138,636,751,334,248,661,188,740,112,315,107,596,373,245,253,497,234,297,8,475,728,331,346,582,633,105,401,301,791,191,116,773,61,471,126,402,454,486,767,542,20,128,400,534,184,55,662,391,501,80,724,150,694,168,574,193,511,183,359,537,58,33,155,326,347,701,530,209,273,79,579,279,49,117,577,772,709,148,443,236,525,345,186,787,76,499,398,764,625,243,212,782,549,428,441,687,166,100,6,324,507,32,626,131,735,99,568,316,118,660,408,628,31,769,430,336,414,75,287,124,109,548,281,421,296,706,704,53,638,46,358,291,380,719,395,778,674,35,466,495,3,123,703,156,538,69,562,81,104,550,465,106,378,462,122,659,328,142,697,493,389,494,213,571,452,304,762,676,492,544,353,510,216,578,375,348,503,785,699,13,392,189,685,716,634,260,157,219,678,56,249,162,451,564,272,47,202,656,436,742,340,739,756,479,690,558,629,743]","arrowleft","true","0","6","173","800","[""0069_N0800_K0173_CLIQUE"",""0091_N0800_K0173_NOCLIQUE""]"
"","","","","","","","","","","","audio-keyboard-response","64","50575","0.0-58.0-0.0-1.0","","","","","","","","null","audio_feedback/right/coin01.mp3","null","","","","0","6","173","800","[""0069_N0800_K0173_CLIQUE"",""0091_N0800_K0173_NOCLIQUE""]"
"","","","","","","","","","","","canvas-keyboard-response","65","52250","0.0-59.0-0.0-0.0","","","","","","","","494","","arrowright","[427,766,775,500,361,696,294,66,125,641,630,748,572,488,288,460,168,664,354,795,10,11,259,32,305,601,277,443,223,340,608,781,490,423,719,502,216,654,728,109,112,489,506,256,495,254,94,475,693,123,639,640,685,587,682,138,142,464,648,252,364,302,143,727,153,496,293,160,117,23,119,429,703,634,466,675,498,339,759,792,600,518,521,532,525,239,577,450,732,315,514,534,503,505,63,337,106,442,225,363,683,19,658,519,660,726,441,262,296,234,713,55,269,352,508,678,768,399,378,221,246,195,566,81,345,3,470,570,253,152,255,227,276,4,476,60,292,295,392,197,43,209,30,176,744,691,396,591,289,38,316,621,783,645,191,633,108,651,130,477,655,370,357,453,141,167,430,644,729,618,92,350,72,799,752,764,212,204,609,132,69,461,541,482,562,412,206,530,311,444,513,733,220,554,45,20,743,274,171,380,266,468,1,449,222,510,46,53,782,133,15,174,684,41,665,583,594,690,723,241,467,9,290,89,388,235,179,184,347,104,328,232,757,499,286,320,76,742,480,48,451,736,312,300,435,321,484,400,472,637,145,411,65,101,421,394,672,559,59,158,615,156,586,446,405,540,180,359,787,314,169,244,629,722,51,189,166,567,7,642,375,558,39,134,571,383,207,650,210,102,542,172,462,545,638,331,353,445,611,322,280,636,560,661,118,778,71,666,520,114,663,688,580,731,793,14,29,272,245,147,90,705,734,349,342,614,657,382,397,139,595,187,275,304,598,447,271,40,773,603,707,99,373,273,13,724,777,369,284,100,753,301,463,537,524,200,270,70,436,711,458,779,604,44,758,75,689,391,178,110,492,183,398,190,211,596,329,67,186,789,57,173,528,247,155,137,556,52,557,692,627,230,258,144,747,413,199,334,714,402,606,564,483,737,776,50,725,653,319,474,517,242,194,501,552,697,616,80,546,788,646,91,17,56,401,786,760,84,635,202,456,612,68,749,667,377,469,509,237,148,419,515,79,569,73,538,424,717,677,410,418,215,367,588,590,716,452,214,656,77,251,231,164,626,103,798,248,790,487,647,544,599,356,676,366,593,217,336,549,701,343,208,750,175,111,422,762,680,28,282,774,794,224,238,351,97,613,21,575,257,240,213,376,585,205,531,121,523,36,784,522,74,478,426,610,756,159,473,555,409,415,157,592,307,12,568,780,527,767,512,233,671,279,516,420,702,25,297,416,265,34,287,739,2,93,87,771,710,318,698,333,115,196,83,643,619,511,745,670,26,551,348,584,507,625,738,769,165,730,177,440,602,31,403,428,417,372,368,785,384,471,581,721,27,86,243,431,127,408,605,49,198,686,35,129,699,0,16,135,85,582,543,578,229,561,649,497,700,249,632,5,360,741,162,389,47,298,181,185,146,313,574,291,24,303,652,791,161,193,365,715,107,387,285,182,681,679,326,754,573,98,659,250,770,309,122,22,796,674,386,622,228,330,414,763,299,192,358,390,37,163,797,432,120,8,494,374,310,278,485,765,533,448,395,136,124,96,631,486,6,433,323,54,526,308,751,708,381,219,82,170,589,154,264,709,151,740,393,58,150,95,346,324,33,536,236,306,624,623,140,116,406,281,379,126,620,548,597,325,695,720,535,607,128,64,105,755,385,434,459,576,565,149,668,371,662,201,455,712,694,457,437,88,746,327,465,439,425,718,706,438,355,18,283,131,687,218,338,268,481,113,550,344,704,267,362,317,563,479,669,61,761,772,341,617,547,529,62,407,404,78,188,539,735,493,673,628,260,579,203,553,504,335,261,491,42,226,263,332,454]","arrowleft","false","0","7","173","800","[""0079_N0800_K0173_CLIQUE"",""0039_N0800_K0173_NOCLIQUE""]"
"","","","","","","","","","","","audio-keyboard-response","66","53255","0.0-59.0-0.0-1.0","","","","","","","","null","audio_feedback/wrong/error01.mp3","null","","","","0","7","173","800","[""0079_N0800_K0173_CLIQUE"",""0039_N0800_K0173_NOCLIQUE""]"
"","","","","","","","","","","","canvas-keyboard-response","67","55003","0.0-60.0-0.0-0.0","","","","","","","","593","","arrowright","[384,501,733,509,633,738,723,33,247,309,302,183,631,772,549,158,275,585,443,507,504,195,221,91,272,543,590,534,702,726,347,362,84,650,233,746,749,273,539,300,692,269,449,71,471,582,363,191,60,134,616,50,695,159,747,794,53,52,92,673,604,277,532,108,383,289,385,780,285,536,79,460,173,431,401,644,199,239,593,737,142,307,396,428,254,627,124,301,508,208,110,482,149,408,785,411,333,674,541,567,782,506,75,163,377,181,488,237,793,176,778,90,620,204,157,125,287,151,618,629,727,40,675,502,303,613,211,270,409,224,556,709,640,327,121,58,354,703,494,468,638,710,444,371,117,253,321,694,336,51,23,626,227,379,542,672,575,514,325,313,240,701,314,217,667,758,525,193,59,724,479,712,25,166,148,465,589,472,680,203,413,682,519,246,389,552,636,182,87,451,170,708,499,17,789,255,146,722,665,364,417,306,660,230,550,256,669,705,72,743,304,516,490,143,696,278,120,244,218,643,690,728,190,628,335,610,527,103,374,78,773,259,320,180,281,1,19,481,392,651,720,602,464,229,721,438,435,568,423,699,463,18,797,168,767,66,154,518,356,46,437,491,200,238,498,470,243,105,13,174,744,206,474,14,42,197,495,540,496,393,282,64,400,615,770,579,338,452,649,293,522,115,511,11,725,48,342,286,742,355,220,9,31,372,535,291,89,461,565,375,43,109,454,164,440,215,205,476,601,310,188,763,434,588,584,340,202,515,112,787,658,353,617,486,242,85,226,128,529,386,600,114,557,160,284,198,635,292,22,359,608,185,263,234,99,791,741,757,373,298,290,586,686,312,329,29,81,30,299,480,736,553,711,126,551,517,592,179,8,323,796,213,671,545,442,326,288,250,136,153,388,719,487,129,510,677,62,403,343,77,395,380,561,95,348,570,679,135,569,420,344,402,513,599,127,462,184,639,426,685,559,0,547,101,258,123,223,774,446,554,769,57,341,786,207,605,352,351,697,684,265,171,358,717,365,399,35,459,596,156,251,305,715,82,523,683,331,261,670,489,7,448,398,21,646,141,619,283,297,177,505,781,792,266,231,731,27,249,100,294,425,645,34,531,704,45,367,144,544,450,94,138,189,4,732,70,69,433,603,26,216,36,161,718,521,228,611,245,466,150,357,572,625,578,564,382,729,571,405,445,655,187,295,155,186,693,576,276,116,657,324,252,139,755,225,598,607,563,622,456,56,137,691,235,530,641,361,681,5,768,106,795,623,201,754,387,98,745,113,32,493,788,676,659,497,548,429,349,407,689,65,432,740,458,771,664,378,734,63,469,274,714,609,337,162,54,12,581,533,761,750,212,591,587,328,97,397,404,467,118,334,647,267,122,756,391,368,538,447,316,332,130,196,439,308,730,766,418,412,102,319,421,483,475,410,453,330,104,477,232,751,656,311,169,178,455,485,76,346,38,119,49,394,687,614,735,621,663,414,654,219,739,473,279,406,93,573,236,262,415,175,366,83,20,140,653,648,775,555,296,16,707,595,500,577,624,526,419,147,214,777,88,192,637,15,779,68,96,799,416,630,3,47,131,520,41,370,764,10,583,268,765,369,546,390,597,339,37,86,67,606,44,512,61,759,107,172,503,241,662,424,783,688,436,716,28,753,133,594,634,574,441,271,194,612,260,537,661,666,6,760,111,376,748,492,798,315,430,350,560,580,752,280,210,562,80,222,678,668,264,427,132,706,632,318,73,457,642,152,55,700,698,558,784,762,322,484,257,652,790,524,317,776,209,566,145,478,248,167,713,528,422,165,24,345,39,74,360,381,2]","arrowright","true","0","8","160","800","[""0046_N0800_K0160_NOCLIQUE"",""0036_N0800_K0160_CLIQUE""]"
"","","","","","","","","","","","audio-keyboard-response","68","55994","0.0-60.0-0.0-1.0","","","","","","","","null","audio_feedback/right/coin01.mp3","null","","","","0","8","160","800","[""0046_N0800_K0160_NOCLIQUE"",""0036_N0800_K0160_CLIQUE""]"
"","","","","","","","","","","","canvas-keyboard-response","69","57950","0.0-61.0-0.0-0.0","","","","","","","","1054","","arrowright","[146,326,420,535,623,165,143,38,97,595,276,37,126,217,378,596,360,373,467,335,64,424,553,118,444,374,61,121,599,110,742,203,188,475,548,281,3,567,489,300,333,701,517,152,136,76,120,523,228,65,74,54,341,435,198,491,359,768,71,733,7,260,13,157,355,227,376,638,169,235,327,505,323,577,579,113,686,511,141,53,793,529,658,313,277,588,12,449,525,746,272,79,372,438,330,723,263,670,375,513,469,520,562,234,570,738,115,9,236,649,734,322,532,39,486,125,607,58,44,743,73,271,664,778,207,340,11,82,396,256,15,404,459,694,158,302,210,180,668,304,338,387,309,214,155,62,436,201,147,24,150,105,446,471,89,81,728,496,797,576,103,148,241,14,767,465,580,509,72,504,780,219,531,362,191,390,346,707,225,492,622,353,370,713,416,358,481,170,624,224,255,632,351,526,756,288,514,107,786,292,32,671,608,543,345,563,682,791,84,762,267,196,108,572,721,493,307,289,601,740,252,187,268,790,414,30,464,138,478,439,641,684,761,356,751,70,357,690,775,581,557,710,248,56,269,145,619,434,88,46,693,448,348,112,745,452,421,621,124,586,628,554,369,748,239,22,433,325,172,19,42,507,699,575,655,533,178,606,47,316,594,127,561,585,769,367,479,443,194,612,729,266,318,703,31,280,216,468,755,741,540,665,534,352,625,384,293,63,45,223,482,497,609,589,285,0,685,457,782,691,69,284,634,242,93,123,546,432,681,101,732,99,473,709,716,711,273,706,162,388,673,361,186,516,620,667,347,551,312,317,171,270,415,168,502,597,547,474,647,43,587,418,199,662,400,771,264,784,794,422,159,431,117,163,20,87,78,119,490,392,160,164,253,329,796,605,109,788,450,310,4,656,437,389,765,200,129,51,96,52,760,519,735,659,297,26,545,306,774,350,566,648,221,705,311,419,626,16,552,783,712,182,399,643,75,470,290,40,386,28,613,102,754,278,512,500,727,92,556,736,254,274,798,209,611,487,265,175,737,139,106,651,441,342,720,331,411,598,213,506,565,442,600,185,23,692,584,262,776,320,237,630,17,678,344,230,18,408,151,298,134,204,305,90,184,283,301,569,275,279,328,380,48,314,476,128,702,403,250,67,156,251,750,669,391,571,365,683,763,354,573,781,291,635,639,385,229,719,447,472,315,176,80,461,417,337,747,33,116,174,714,640,675,501,541,637,232,166,518,259,257,614,161,759,133,528,477,382,5,764,430,799,674,406,114,132,427,704,646,660,749,395,440,568,777,295,153,463,286,85,1,413,100,603,215,654,6,299,739,537,602,666,86,758,618,222,715,240,238,633,29,25,249,189,334,371,564,405,57,21,498,91,336,34,193,319,35,688,332,205,462,77,466,672,197,233,591,582,220,789,135,663,409,428,488,349,243,211,718,484,697,167,454,393,555,717,379,83,604,343,398,593,218,192,27,592,394,645,650,410,383,10,766,407,499,397,731,753,247,687,795,578,131,95,308,66,363,631,494,50,324,364,111,245,244,425,770,195,661,695,722,261,676,456,55,724,744,560,515,708,725,294,458,296,522,508,653,792,140,377,190,544,142,642,49,36,530,303,627,726,787,700,104,287,698,779,453,206,455,696,460,657,202,538,495,451,644,98,615,208,366,179,677,144,2,412,381,617,483,368,574,321,154,730,616,773,757,429,550,445,426,122,558,181,177,226,503,772,173,339,629,68,401,549,527,8,680,246,785,258,480,536,149,590,130,510,636,679,542,521,752,539,583,485,94,689,559,60,183,524,41,402,652,610,212,59,137,231,423,282]","arrowright","true","0","9","160","800","[""0097_N0800_K0160_NOCLIQUE"",""0076_N0800_K0160_CLIQUE""]"
"","","","","","","","","","","","audio-keyboard-response","70","58936","0.0-61.0-0.0-1.0","","","","","","","","null","audio_feedback/right/coin01.mp3","null","","","","0","9","160","800","[""0097_N0800_K0160_NOCLIQUE"",""0076_N0800_K0160_CLIQUE""]"
"","","","","","","","","","","","canvas-keyboard-response","71","60748","0.0-62.0-0.0-0.0","","","","","","","","951","","arrowleft","[189,444,169,275,503,353,686,705,687,54,720,655,26,359,703,627,760,218,339,334,63,76,707,580,165,573,464,380,129,378,583,487,342,660,467,657,461,517,95,295,539,589,766,630,734,21,629,468,613,593,110,194,216,679,772,699,669,758,99,395,477,116,174,558,708,426,654,419,302,164,508,462,448,323,329,77,742,24,364,85,723,253,729,305,151,596,298,473,722,602,283,32,345,692,683,677,645,158,268,504,206,280,673,628,377,784,91,490,132,100,441,104,385,586,278,576,603,115,631,664,123,12,780,542,557,637,264,523,747,459,265,770,332,667,214,25,524,142,400,598,38,348,281,529,68,790,463,570,737,52,193,743,616,202,710,93,191,688,243,219,544,240,676,607,352,358,282,771,105,543,717,455,103,764,229,547,639,422,695,782,321,456,480,499,269,200,471,239,704,271,47,9,186,23,488,763,470,235,796,40,795,317,719,798,595,600,604,423,413,446,599,245,139,496,36,489,394,96,361,606,156,550,102,623,2,615,638,149,308,656,424,83,343,538,7,527,486,46,5,661,757,620,384,693,338,759,514,574,779,712,296,668,786,118,155,721,718,406,727,376,327,492,525,652,109,427,399,404,548,49,554,783,585,418,469,198,81,263,414,284,184,785,267,373,491,172,635,258,228,560,592,474,108,303,610,311,185,670,536,447,162,590,393,622,507,242,402,465,405,18,190,417,715,450,530,381,58,379,210,70,337,597,732,66,537,797,233,756,366,502,430,371,221,505,761,196,121,716,347,484,335,443,113,662,107,173,250,59,568,297,690,354,362,781,266,336,506,442,247,368,73,466,148,16,119,698,365,60,344,285,262,203,101,212,408,157,438,84,577,355,349,754,436,392,533,735,648,440,709,314,425,244,6,1,748,552,372,224,788,733,197,301,644,551,481,682,171,451,300,726,429,567,72,769,421,168,745,774,794,167,478,403,179,225,713,706,208,90,671,553,579,792,561,131,569,675,86,161,143,176,768,246,572,787,479,397,170,279,789,646,273,773,130,674,528,681,217,50,498,292,259,37,330,249,94,753,387,150,127,653,411,44,375,581,731,641,57,227,457,509,401,608,61,177,153,111,672,751,180,663,315,223,435,53,617,658,56,222,82,55,460,612,254,497,575,587,555,513,28,248,163,124,35,382,232,160,125,255,472,251,724,10,642,274,145,230,79,325,128,685,556,777,89,431,324,22,15,791,515,626,350,98,666,485,665,146,238,341,326,187,762,14,755,511,226,312,270,313,309,714,680,333,188,215,428,739,67,134,388,213,799,181,114,725,565,696,562,482,144,133,571,453,340,3,650,746,120,231,531,346,209,407,331,449,42,260,11,694,241,294,632,416,19,147,41,495,277,369,183,625,351,591,304,62,454,290,13,310,175,306,410,643,752,437,793,356,588,45,738,389,287,647,578,65,318,236,374,535,432,516,289,71,452,594,614,700,293,370,272,383,34,744,391,20,4,154,566,621,291,476,618,750,141,728,386,409,483,605,541,396,182,78,261,624,512,520,80,678,140,112,420,207,415,257,320,697,87,458,138,740,640,363,97,39,702,475,559,69,767,659,563,775,51,211,199,31,152,192,29,234,307,701,286,360,649,117,30,92,494,204,398,500,137,201,601,256,64,776,684,546,299,122,106,532,545,765,741,412,0,778,501,178,691,439,584,8,33,48,519,135,159,328,357,75,634,609,126,636,43,521,322,549,651,526,166,518,711,319,564,493,252,689,611,316,390,136,434,445,205,195,27,88,367,730,510,633,288,540,749,582,237,276,74,17,736,534,522,220,619,433]","arrowleft","true","0","10","147","800","[""0096_N0800_K0147_CLIQUE"",""0005_N0800_K0147_NOCLIQUE""]"
"","","","","","","","","","","","audio-keyboard-response","72","61737","0.0-62.0-0.0-1.0","","","","","","","","null","audio_feedback/right/coin01.mp3","null","","","","0","10","147","800","[""0096_N0800_K0147_CLIQUE"",""0005_N0800_K0147_NOCLIQUE""]"
"","","","","","","","","","","","canvas-keyboard-response","73","63533","0.0-63.0-0.0-0.0","","","","","","","","1032","","arrowleft","[540,463,577,247,40,782,116,112,530,383,715,786,57,695,725,708,501,415,291,643,231,339,285,244,212,517,364,294,260,712,696,557,277,527,537,425,347,465,384,79,411,562,772,120,266,711,729,13,342,287,716,439,189,392,90,410,200,599,717,737,649,740,417,58,584,781,753,343,642,258,93,576,419,174,213,179,219,185,30,73,323,125,360,505,495,434,548,518,426,601,367,657,217,706,627,221,230,743,123,82,407,539,697,430,766,320,165,108,702,25,602,249,441,510,468,677,685,322,698,107,181,742,137,319,682,719,679,488,194,455,344,662,569,428,37,87,22,314,799,651,192,188,111,382,306,628,354,406,331,733,88,26,60,398,96,442,496,612,502,573,395,208,85,234,582,433,381,250,566,770,549,39,653,674,683,144,494,180,675,796,333,525,252,668,187,746,45,443,522,47,763,308,693,656,338,201,476,429,182,235,664,167,286,328,236,81,652,580,452,504,173,401,598,448,334,261,70,67,606,312,3,141,130,603,279,289,265,659,630,403,625,492,336,391,479,671,707,62,726,127,44,762,11,197,214,575,445,760,676,579,388,432,186,379,616,117,397,684,19,619,509,346,555,526,393,427,535,131,280,534,595,78,315,147,332,605,16,761,77,639,594,150,302,550,359,97,210,357,480,647,38,591,71,119,340,368,199,53,778,731,49,665,418,206,622,412,255,371,148,497,50,532,74,453,149,292,755,424,12,168,490,190,35,705,776,546,246,380,749,592,654,31,193,122,156,313,600,547,474,1,564,449,678,416,730,789,563,691,689,69,660,134,386,645,741,638,487,583,423,728,694,404,307,405,655,610,7,435,669,42,129,104,475,142,572,145,552,409,477,506,635,614,228,658,709,318,114,554,723,454,641,132,422,578,734,648,644,288,4,28,300,76,351,27,507,264,596,481,177,238,551,257,118,567,296,299,473,204,515,358,59,95,139,466,440,613,41,2,553,353,374,205,444,195,513,607,226,565,161,72,688,621,421,604,775,376,270,624,714,570,251,348,105,499,259,89,739,17,615,542,482,64,325,183,355,305,263,154,164,278,224,324,6,56,765,274,254,138,568,335,0,215,297,446,184,103,458,309,470,745,92,352,284,608,48,667,298,163,585,661,91,646,545,268,375,472,363,24,281,385,777,544,178,29,55,759,369,503,790,514,166,5,311,431,106,110,83,136,779,365,611,171,256,198,233,485,589,170,769,317,245,155,240,23,176,516,394,768,109,637,373,670,623,290,414,223,541,456,80,722,626,528,175,673,784,757,754,787,672,396,356,747,700,152,54,574,146,400,316,209,243,462,68,543,713,128,126,52,629,797,337,100,512,650,701,341,207,736,172,135,18,524,370,269,272,744,242,372,720,459,304,101,15,467,9,450,794,378,498,345,140,727,133,169,788,32,66,436,75,196,750,758,14,764,511,558,631,493,191,738,327,508,153,310,61,43,609,704,303,588,471,791,276,216,795,666,780,559,618,295,262,151,220,437,301,536,767,663,586,326,634,560,99,159,447,491,571,229,798,282,121,632,469,792,692,438,478,84,538,597,248,533,157,721,531,98,143,686,377,36,271,687,486,349,460,34,237,756,680,690,362,461,330,408,162,51,556,399,222,489,225,529,464,785,793,523,239,361,63,33,202,484,451,710,203,253,329,390,218,771,735,751,483,211,232,46,640,457,773,10,366,283,561,387,752,275,86,273,520,783,587,748,703,113,620,420,774,519,389,521,124,681,321,65,8,227,20,633,724,94,21,636,413,293,160,699,590,158,732,617,241,500,718,593,350,102,115,402,581,267]","arrowleft","true","0","11","147","800","[""0058_N0800_K0147_CLIQUE"",""0070_N0800_K0147_NOCLIQUE""]"
"","","","","","","","","","","","audio-keyboard-response","74","64535","0.0-63.0-0.0-1.0","","","","","","","","null","audio_feedback/right/coin01.mp3","null","","","","0","11","147","800","[""0058_N0800_K0147_CLIQUE"",""0070_N0800_K0147_NOCLIQUE""]"
"","","","","","","","","","","","canvas-keyboard-response","75","66500","0.0-64.0-0.0-0.0","","","","","","","","810","","arrowright","[89,462,495,397,385,469,85,483,359,61,556,332,120,358,2,515,631,274,286,79,219,304,785,521,740,417,378,288,256,570,497,268,223,321,298,28,442,173,772,325,146,285,22,769,301,551,726,49,760,518,610,722,744,673,391,410,389,611,316,212,717,30,583,324,183,716,779,655,55,730,257,247,156,792,380,92,446,46,747,678,29,174,672,731,420,327,382,7,333,567,162,736,180,614,45,401,572,372,437,436,331,342,179,241,759,709,794,517,471,739,680,188,451,465,561,721,395,207,287,99,276,82,78,375,71,339,201,280,106,757,663,185,485,448,702,77,281,43,658,641,8,464,526,435,189,671,60,194,394,796,42,196,121,52,653,3,544,178,124,681,199,543,767,699,606,407,102,492,142,560,238,501,622,554,598,781,488,753,413,101,103,642,387,18,94,455,112,613,353,129,498,232,579,687,40,33,125,566,480,416,294,279,200,47,729,153,486,51,381,65,762,68,244,4,791,789,749,176,341,630,467,390,141,202,116,81,540,346,538,506,16,569,504,398,187,148,513,545,310,607,477,314,615,745,169,742,322,24,577,555,336,203,384,93,534,484,91,433,719,676,35,118,233,249,790,39,154,654,559,323,264,634,683,25,507,578,236,549,773,713,360,712,210,245,83,224,303,679,57,778,585,6,648,273,21,235,356,66,503,449,261,602,750,386,735,537,270,647,548,14,263,443,376,718,774,766,132,599,242,147,163,476,293,441,590,639,12,171,175,704,59,664,37,204,777,576,748,510,34,292,640,110,44,574,535,17,20,746,715,64,250,15,27,192,275,32,290,532,383,619,444,320,770,231,439,393,728,660,41,211,527,553,243,240,255,637,783,361,620,115,165,703,489,19,96,763,282,182,565,363,400,328,523,788,297,365,710,396,423,206,278,627,168,617,69,253,122,216,670,158,755,592,509,258,698,369,529,377,604,482,787,167,190,502,419,248,690,461,38,632,305,277,155,145,603,426,649,351,418,764,591,350,453,0,618,340,512,573,478,472,524,344,229,645,349,479,701,546,239,123,580,428,562,429,662,597,644,652,714,487,48,50,402,371,696,405,575,254,629,724,797,711,291,140,500,643,134,685,88,596,427,170,296,13,450,519,406,166,193,432,338,621,161,650,686,571,111,345,669,668,438,302,798,300,624,568,337,404,313,682,318,463,588,307,159,708,370,795,366,109,23,150,160,799,388,741,214,208,541,692,508,98,205,595,230,557,784,251,408,552,695,424,520,218,447,119,269,259,490,227,334,84,493,308,355,752,289,9,688,36,768,113,105,97,177,295,191,651,217,657,403,533,221,357,374,412,734,661,74,725,152,195,348,309,786,5,126,271,638,262,775,677,127,343,311,266,616,466,723,62,421,137,793,558,213,584,53,87,368,228,666,117,26,516,283,754,522,138,459,352,743,659,149,379,215,319,198,392,675,225,130,330,593,727,605,209,100,312,172,445,458,1,468,475,414,700,354,667,456,411,691,220,246,131,756,70,582,86,234,705,706,626,317,776,54,430,31,272,56,329,581,252,539,514,415,780,95,362,454,367,128,58,684,72,609,758,635,733,267,587,260,693,409,600,157,494,665,265,197,656,284,108,491,751,505,589,547,697,732,623,434,771,761,80,636,452,674,625,425,440,315,530,184,144,326,646,107,226,133,528,10,75,104,612,499,608,76,299,151,364,511,335,136,186,550,114,594,237,139,347,628,707,586,564,73,765,67,457,470,164,694,90,181,689,143,737,481,135,306,525,222,536,542,720,422,563,782,460,633,601,63,531,11,399,474,738,431,473,496,373]","arrowright","true","0","12","133","800","[""0078_N0800_K0133_NOCLIQUE"",""0039_N0800_K0133_CLIQUE""]"
"","","","","","","","","","","","audio-keyboard-response","76","67495","0.0-64.0-0.0-1.0","","","","","","","","null","audio_feedback/right/coin01.mp3","null","","","","0","12","133","800","[""0078_N0800_K0133_NOCLIQUE"",""0039_N0800_K0133_CLIQUE""]"
"","","","","","","","","","","","canvas-keyboard-response","77","69403","0.0-65.0-0.0-0.0","","","","","","","","773","","arrowright","[440,234,593,618,167,91,372,359,457,157,756,606,728,49,173,27,77,661,336,30,427,88,592,782,388,519,156,144,684,248,472,198,285,496,701,416,554,796,551,396,276,194,752,44,598,236,33,6,162,127,493,66,145,648,174,42,433,638,11,342,326,409,458,659,549,35,341,439,105,649,616,655,515,398,386,765,311,591,725,294,478,277,43,353,537,413,690,532,652,271,419,170,421,660,477,634,243,658,18,691,700,22,203,134,38,158,426,590,611,20,624,531,197,351,402,112,48,154,142,781,109,151,605,644,41,316,608,417,89,246,141,794,355,19,569,350,633,763,333,425,220,394,363,745,117,262,185,21,324,260,423,120,335,793,4,357,522,126,563,40,192,463,673,29,290,589,169,65,769,252,364,5,469,467,298,674,696,256,540,448,538,449,588,455,322,299,705,31,233,343,175,447,534,389,518,743,292,86,726,520,320,479,693,207,187,494,92,746,321,97,567,672,779,98,249,775,688,313,545,442,512,707,470,181,270,305,384,60,565,136,797,10,345,356,786,230,450,456,102,614,741,217,562,75,346,3,122,500,689,641,247,26,283,15,37,204,58,78,282,124,354,23,184,210,318,429,543,25,460,678,221,525,140,390,585,90,524,56,650,760,159,666,594,471,228,733,155,36,783,574,368,762,238,211,47,100,640,761,771,242,544,468,392,165,382,677,787,595,71,150,206,785,536,121,258,738,61,235,302,135,692,699,332,81,675,710,630,1,721,250,596,300,571,486,735,166,344,535,713,683,214,62,267,232,253,552,365,533,656,176,669,712,224,577,446,428,193,13,380,383,753,437,560,87,301,51,662,764,83,14,325,491,558,360,407,410,510,257,352,213,566,286,501,125,587,143,750,152,104,601,723,393,557,296,462,474,362,264,280,329,719,759,583,132,222,653,401,789,259,93,784,578,724,269,24,572,548,139,369,546,444,654,153,172,791,287,473,94,278,163,295,502,607,358,130,284,489,418,541,137,599,72,240,73,149,289,612,718,361,55,279,17,526,553,490,375,798,703,582,182,263,200,454,679,528,431,480,52,580,8,773,183,600,160,498,205,492,564,371,772,64,626,101,521,99,702,731,288,218,190,186,266,749,504,711,377,95,495,459,129,261,376,164,670,671,603,215,281,742,788,687,12,403,628,744,542,191,581,274,334,737,576,255,657,667,579,254,620,694,505,123,196,619,231,412,128,195,751,106,273,146,219,113,59,646,310,57,110,0,395,530,241,16,400,729,483,635,621,668,180,275,339,28,665,177,178,189,615,506,115,239,331,475,704,84,39,632,529,340,476,453,397,7,216,778,586,348,639,597,404,466,736,706,304,69,570,379,245,516,631,758,111,308,716,539,424,208,610,387,609,629,523,32,757,229,436,227,602,441,780,432,663,777,727,337,434,367,513,373,481,408,378,511,171,114,774,430,74,642,411,497,485,405,330,740,799,349,503,795,366,179,223,730,617,770,499,79,636,85,451,465,734,461,732,381,96,312,709,82,291,766,420,573,776,645,754,550,484,399,116,161,80,651,225,438,682,34,790,53,739,76,575,514,414,625,107,643,755,747,443,722,202,604,45,306,715,63,708,623,547,138,108,67,328,54,68,488,415,133,559,119,767,527,297,307,50,647,487,627,323,212,568,131,637,303,508,584,265,314,422,70,201,272,9,147,237,717,452,622,685,768,720,482,209,188,697,435,517,748,676,347,148,686,319,509,103,374,309,168,507,268,385,561,338,695,613,464,714,555,251,293,46,664,317,698,445,391,118,315,792,681,680,327,556,370,199,244,226,2,406]","arrowright","true","0","13","133","800","[""0048_N0800_K0133_NOCLIQUE"",""0022_N0800_K0133_CLIQUE""]"
"","","","","","","","","","","","audio-keyboard-response","78","70394","0.0-65.0-0.0-1.0","","","","","","","","null","audio_feedback/right/coin01.mp3","null","","","","0","13","133","800","[""0048_N0800_K0133_NOCLIQUE"",""0022_N0800_K0133_CLIQUE""]"
"","","","","","","","","","","","canvas-keyboard-response","79","73023","0.0-66.0-0.0-0.0","","","","","","","","1771","","arrowright","[225,763,360,283,685,392,284,635,95,625,358,483,287,761,564,715,127,215,281,595,788,8,745,357,407,416,734,727,293,688,462,508,737,545,578,535,182,50,97,793,329,257,622,444,481,691,431,471,553,319,470,47,516,558,38,249,385,367,380,247,184,115,704,723,415,4,3,759,401,89,636,477,724,597,35,252,561,430,68,92,390,521,687,702,132,494,305,60,198,777,382,733,410,750,662,273,19,519,139,588,314,513,42,661,327,400,172,167,542,692,426,350,290,124,433,453,641,518,6,651,448,301,369,330,502,309,746,157,555,408,141,743,787,757,348,449,125,614,347,770,753,376,626,377,413,368,434,529,714,386,322,569,169,185,75,121,49,201,570,165,539,237,439,156,653,752,599,117,373,286,572,163,772,754,764,634,424,239,103,613,510,580,200,596,791,585,460,321,87,118,214,256,171,64,217,666,605,307,196,166,669,484,785,235,456,187,406,537,526,571,728,349,122,644,365,10,767,589,11,76,136,338,240,133,351,680,797,14,113,615,509,582,45,649,560,587,263,503,282,311,341,476,458,197,468,56,23,493,9,190,679,77,231,189,80,70,374,296,112,671,411,179,402,467,550,677,440,264,611,269,33,204,229,0,65,566,496,155,514,29,639,798,799,717,326,83,276,18,478,678,517,160,699,652,707,145,755,531,441,55,776,489,289,499,259,543,455,297,41,233,557,34,99,418,623,7,228,638,232,333,274,668,650,44,208,701,268,241,143,676,744,12,222,48,591,479,27,304,563,796,106,193,619,262,53,473,37,152,469,72,475,681,86,199,480,140,317,527,506,162,272,159,266,32,40,771,716,150,719,94,356,186,203,501,279,522,438,703,490,689,442,170,394,178,576,486,665,618,261,447,612,713,523,61,730,592,384,46,153,110,450,146,735,335,579,211,396,498,487,291,316,285,683,600,119,664,698,383,584,642,362,420,303,288,161,504,151,91,559,548,505,464,57,149,336,340,192,541,352,342,108,536,528,474,280,260,312,586,428,425,102,556,315,230,292,429,695,96,789,364,423,540,686,90,624,565,603,637,463,331,452,308,573,251,120,403,180,325,627,421,512,88,275,427,306,1,227,404,414,780,500,445,2,472,130,298,497,114,220,708,610,344,742,721,313,575,158,205,725,766,607,278,795,783,667,104,15,323,250,25,16,52,176,154,375,739,378,672,246,207,732,254,443,337,718,601,391,71,590,507,175,554,147,234,173,116,393,332,778,345,253,379,782,647,646,73,388,675,399,515,446,131,66,594,389,774,729,673,621,731,706,361,209,105,142,135,20,62,768,258,633,648,370,749,74,238,26,67,28,538,552,354,546,435,137,144,436,437,395,655,267,534,248,129,792,769,17,123,51,318,577,255,663,457,101,371,492,781,762,328,324,58,593,202,98,183,794,549,758,359,684,533,277,177,482,520,224,343,630,790,372,294,387,466,748,210,21,219,381,751,643,346,397,30,223,654,22,243,195,598,310,244,726,221,417,608,366,81,779,39,604,138,454,236,109,164,568,79,658,216,620,128,168,547,339,100,213,736,181,712,363,616,690,194,674,265,422,320,491,632,511,5,13,760,353,660,242,656,93,302,461,617,645,69,459,405,485,31,488,398,765,722,63,432,784,602,43,226,562,24,696,773,134,334,300,126,740,148,567,295,682,631,525,54,107,694,412,85,530,583,355,700,82,188,174,495,756,720,705,775,659,111,747,59,640,544,271,710,524,212,409,609,245,786,738,693,419,670,711,532,657,628,218,84,191,206,78,606,697,574,629,465,551,299,36,741,581,451,709,270]","arrowright","true","0","14","120","800","[""0023_N0800_K0120_NOCLIQUE"",""0069_N0800_K0120_CLIQUE""]"
"","","","","","","","","","","","audio-keyboard-response","80","74014","0.0-66.0-0.0-1.0","","","","","","","","null","audio_feedback/right/coin01.mp3","null","","","","0","14","120","800","[""0023_N0800_K0120_NOCLIQUE"",""0069_N0800_K0120_CLIQUE""]"
"","","","","","","","","","","","canvas-keyboard-response","81","76556","0.0-67.0-0.0-0.0","","","","","","","","1694","","arrowright","[529,102,537,420,440,263,729,296,79,282,556,481,656,568,463,634,330,601,794,487,523,510,89,108,609,671,415,217,770,94,119,288,668,740,799,232,765,27,157,269,728,207,50,611,725,162,426,505,610,615,388,251,775,553,45,292,628,603,142,36,742,622,778,693,721,533,356,312,173,281,176,443,110,219,550,798,368,29,35,534,442,190,708,12,109,321,788,235,490,177,361,406,26,204,521,182,797,307,279,384,66,342,404,86,202,160,44,582,268,5,512,213,158,358,536,206,396,501,315,429,189,590,630,595,432,30,713,436,3,267,696,278,175,179,386,380,67,265,392,248,773,37,698,71,316,637,494,379,697,199,332,329,301,208,633,344,644,78,777,587,394,407,716,93,701,75,196,227,198,401,626,220,458,681,706,245,551,591,434,271,19,373,437,210,159,694,670,261,430,631,783,224,564,535,643,417,6,554,781,733,337,638,23,132,9,665,519,594,682,452,13,438,444,339,322,234,410,31,98,688,473,223,549,253,152,711,352,63,635,435,341,128,493,240,422,11,238,600,686,484,42,336,454,674,767,588,608,76,306,161,555,350,121,658,425,215,614,365,99,477,355,367,60,10,291,338,791,636,461,743,345,593,225,320,707,351,103,95,752,748,205,180,237,381,209,46,203,766,170,290,480,274,520,151,734,465,257,605,107,451,43,423,727,508,678,522,229,532,602,38,39,382,673,431,486,680,331,120,667,105,712,571,408,683,21,579,371,559,14,679,91,24,597,309,496,139,419,374,116,715,400,193,545,256,186,194,662,287,273,720,785,260,272,87,124,758,649,792,357,547,141,73,343,685,363,156,572,286,390,40,236,710,402,83,459,774,69,552,503,761,328,585,297,326,16,518,724,500,676,385,700,80,413,200,760,517,652,648,530,531,112,303,526,64,405,570,739,450,243,178,188,491,483,183,759,513,376,90,88,134,619,57,270,53,412,84,349,548,54,222,96,421,629,348,145,672,252,654,488,612,197,172,790,726,735,146,507,2,495,663,441,718,314,730,333,264,150,276,285,627,641,127,541,155,293,793,640,509,191,299,751,8,17,335,598,639,497,378,784,786,300,714,428,646,163,81,565,49,259,280,470,166,318,447,233,776,446,138,478,244,757,377,746,578,557,502,632,453,359,125,7,284,325,283,82,221,143,703,624,62,101,476,738,393,583,346,33,655,660,100,370,607,59,289,702,48,764,131,466,692,462,56,391,174,516,313,664,372,449,795,754,167,311,398,364,241,562,749,780,25,779,366,563,586,695,744,354,218,104,577,528,768,498,22,323,418,606,255,659,753,623,230,360,737,709,645,573,489,448,699,74,201,165,231,424,616,70,771,620,375,15,302,567,275,135,468,242,566,136,666,763,171,525,118,689,294,575,690,769,796,625,599,168,464,117,439,97,618,617,604,433,546,589,485,482,228,126,542,731,184,704,149,130,580,492,305,298,181,467,613,756,324,561,277,164,254,266,211,295,782,511,61,755,411,558,543,472,140,133,247,47,111,41,540,687,416,669,58,747,574,732,148,651,524,414,51,239,445,621,596,317,719,514,246,92,115,154,399,147,68,340,113,169,460,122,762,427,677,327,592,114,123,661,581,479,72,106,153,750,403,185,657,52,576,395,34,250,334,216,584,471,787,653,55,308,369,258,691,789,187,319,499,642,387,137,362,650,772,347,192,1,212,214,195,455,144,77,569,456,538,28,18,389,469,717,474,705,32,504,736,745,249,722,647,515,383,506,262,397,457,20,85,475,0,741,129,560,723,304,539,226,409,310,527,684,675,544,353,4,65]","arrowright","true","0","15","120","800","[""0021_N0800_K0120_NOCLIQUE"",""0006_N0800_K0120_CLIQUE""]"
"","","","","","","","","","","","audio-keyboard-response","82","77555","0.0-67.0-0.0-1.0","","","","","","","","null","audio_feedback/right/coin01.mp3","null","","","","0","15","120","800","[""0021_N0800_K0120_NOCLIQUE"",""0006_N0800_K0120_CLIQUE""]"
"","","","","","","","","","","","canvas-keyboard-response","83","79164","0.0-68.0-0.0-0.0","","","","","","","","909","","arrowleft","[123,699,252,247,214,348,381,741,160,623,315,371,786,385,80,462,372,244,318,742,280,308,357,562,331,513,261,43,555,194,426,85,798,406,639,388,38,212,673,521,148,174,628,47,726,34,368,191,451,238,684,595,223,760,704,582,526,216,541,546,799,569,3,598,289,68,776,11,84,119,568,184,86,93,350,365,584,256,610,106,323,572,139,325,279,752,345,72,291,35,96,593,520,23,378,437,669,342,401,49,679,470,1,718,495,395,178,575,154,55,455,359,330,10,661,420,33,490,735,155,408,469,565,132,571,398,425,307,76,210,74,615,781,90,48,219,650,133,793,131,309,54,221,625,16,692,126,87,678,69,110,675,337,124,485,165,364,635,71,264,37,128,114,130,432,293,773,768,89,233,281,303,489,538,483,427,137,75,519,644,499,336,740,716,44,500,464,733,193,632,254,688,545,751,646,50,438,4,589,543,120,108,701,468,411,442,198,121,324,600,338,668,302,230,619,376,196,220,723,480,273,22,19,13,452,295,200,763,566,29,241,283,127,356,409,40,681,501,655,377,771,304,229,774,457,624,496,183,396,486,353,794,161,439,109,662,636,102,792,674,316,328,690,340,597,510,235,260,629,355,778,228,791,105,531,112,474,147,779,630,443,601,199,736,99,477,53,631,561,386,444,250,65,24,152,358,208,454,392,234,753,743,257,479,64,269,460,5,209,267,301,107,334,745,242,217,202,764,471,422,725,275,136,100,292,159,473,171,397,653,253,693,141,712,622,404,117,637,797,672,168,780,251,560,708,620,271,344,82,262,361,400,113,95,627,488,434,45,645,190,606,166,666,270,145,62,656,537,180,711,514,311,648,417,172,747,497,258,459,588,122,583,524,611,92,52,689,552,41,605,586,440,60,509,351,517,322,276,343,657,706,685,505,717,550,465,482,170,255,664,17,31,285,416,536,511,186,746,42,36,580,274,151,268,528,564,503,30,346,748,428,720,621,549,211,767,2,201,393,504,687,25,236,231,551,659,576,694,456,176,696,169,539,0,502,157,682,590,390,795,667,195,185,729,83,506,7,282,115,226,192,721,28,239,750,775,374,540,347,446,677,97,481,360,728,607,547,125,603,727,453,613,435,370,445,765,523,508,164,39,730,317,405,772,777,9,103,641,705,529,265,518,300,447,441,532,788,567,412,94,259,429,177,738,676,617,391,181,649,757,91,731,732,558,227,277,782,305,144,382,634,237,686,535,272,224,512,449,379,284,314,463,134,722,654,700,403,796,332,415,18,111,138,658,602,413,118,770,494,587,387,577,67,719,433,783,78,643,423,173,366,609,785,352,6,116,290,755,341,663,248,384,143,205,670,246,544,335,491,710,288,349,570,232,626,312,461,709,578,327,633,498,321,563,450,419,581,642,594,218,592,430,556,66,287,46,612,63,319,380,204,713,638,418,789,749,79,245,8,373,150,225,407,203,88,98,559,187,146,153,475,608,734,299,296,579,616,665,516,59,715,431,703,737,182,787,542,553,369,12,294,744,140,249,156,790,57,297,354,756,458,618,367,534,478,32,339,383,484,266,525,215,197,596,222,640,759,557,758,14,698,104,363,522,394,320,651,466,761,769,129,695,467,389,20,530,73,414,784,286,487,243,402,399,70,660,175,213,448,599,298,329,507,27,142,206,163,101,375,476,647,58,591,604,263,493,306,492,158,333,548,81,585,179,702,573,310,240,724,326,533,436,135,61,554,652,188,167,189,714,410,671,424,697,77,766,515,162,472,614,21,15,313,754,56,739,51,149,421,362,762,207,574,527,707,278,680,691,26,683]","arrowleft","true","0","16","107","800","[""0093_N0800_K0107_CLIQUE"",""0027_N0800_K0107_NOCLIQUE""]"
"","","","","","","","","","","","audio-keyboard-response","84","80155","0.0-68.0-0.0-1.0","","","","","","","","null","audio_feedback/right/coin01.mp3","null","","","","0","16","107","800","[""0093_N0800_K0107_CLIQUE"",""0027_N0800_K0107_NOCLIQUE""]"
"","","","","","","","","","","","canvas-keyboard-response","85","81709","0.0-69.0-0.0-0.0","","","","","","","","759","","arrowright","[248,779,642,154,270,176,68,141,551,99,602,417,152,545,716,556,502,559,236,618,86,246,473,65,489,134,371,210,24,181,221,287,278,91,44,157,603,755,16,638,11,610,612,413,469,508,675,386,217,122,119,478,609,284,667,308,664,382,20,260,437,600,52,401,23,137,60,768,48,672,404,625,778,26,53,628,689,536,662,510,727,313,218,731,131,641,36,363,633,309,653,120,220,364,396,89,315,659,135,201,31,749,380,669,617,741,443,384,144,493,245,764,400,571,409,136,165,198,613,394,251,793,684,110,630,78,104,159,66,752,722,465,591,324,770,295,736,368,636,581,291,14,51,729,359,759,390,706,455,172,163,13,174,70,282,745,780,0,312,410,18,701,173,62,211,356,222,730,751,452,305,374,140,244,142,294,329,530,668,310,681,27,205,55,546,35,472,328,772,421,542,723,412,475,470,666,261,699,575,40,576,227,522,494,2,25,188,528,490,208,578,491,257,760,454,117,311,783,505,695,711,354,118,598,526,718,34,698,22,129,349,395,224,286,704,9,761,147,648,83,82,428,588,583,143,393,411,621,426,415,709,524,375,492,39,691,353,541,420,584,446,259,123,497,543,267,476,293,372,512,297,676,360,43,219,150,487,597,697,660,540,234,335,54,166,213,432,263,725,106,458,554,145,408,96,116,572,632,605,264,798,565,737,557,703,274,485,596,696,167,566,776,239,103,407,607,791,256,562,321,6,721,604,3,774,45,757,164,732,713,433,462,330,766,739,587,398,735,75,717,362,418,509,747,322,57,419,467,42,160,392,498,241,254,748,341,740,637,482,685,450,367,634,679,102,601,765,547,692,622,125,79,377,38,573,532,61,744,187,655,333,627,361,483,37,580,753,33,513,461,107,643,383,300,233,677,499,585,564,438,56,50,74,130,127,146,85,784,345,595,544,214,229,337,441,177,442,242,456,343,520,661,8,782,682,534,742,105,537,73,501,463,518,269,319,265,5,307,59,658,724,589,202,253,358,594,170,683,416,533,694,665,786,195,262,316,439,521,334,754,63,389,373,579,98,614,194,317,10,773,422,671,370,447,762,651,516,94,527,298,215,339,190,255,451,331,548,206,654,184,277,586,237,306,593,175,379,327,733,712,529,346,112,169,644,344,230,12,453,128,680,797,670,457,635,460,686,191,1,299,535,519,431,488,406,719,323,272,17,577,351,590,385,414,193,620,348,115,189,726,290,567,707,186,693,279,250,734,592,338,720,80,464,318,84,121,484,212,425,352,799,228,523,560,743,624,226,436,403,357,378,657,90,238,640,448,623,93,616,235,100,790,471,114,639,155,495,148,111,777,758,796,674,366,376,285,771,126,775,435,555,258,504,67,58,474,663,19,690,77,158,615,156,301,243,785,708,88,30,72,92,794,561,314,69,688,550,795,280,273,283,619,563,292,525,296,180,108,369,656,303,646,178,647,162,249,133,738,652,423,204,196,424,336,182,4,132,76,531,479,64,209,149,608,477,405,199,515,381,153,781,429,517,728,247,355,678,203,445,325,275,599,568,792,342,109,397,569,629,347,787,87,650,388,700,570,302,320,28,216,466,763,496,705,553,101,434,192,281,649,444,365,276,507,97,168,21,223,252,200,539,449,32,538,746,197,710,387,289,582,340,240,326,756,225,480,769,486,71,183,687,81,789,645,179,750,574,631,139,611,391,468,124,15,41,231,430,767,511,7,503,304,514,171,161,500,714,95,506,29,715,138,549,702,271,459,113,49,673,268,232,288,185,788,606,427,207,626,151,402,552,399,332,46,47,481,558,266,350,440]","arrowright","true","0","17","107","800","[""0072_N0800_K0107_NOCLIQUE"",""0025_N0800_K0107_CLIQUE""]"
"","","","","","","","","","","","audio-keyboard-response","86","82695","0.0-69.0-0.0-1.0","","","","","","","","null","audio_feedback/right/coin01.mp3","null","","","","0","17","107","800","[""0072_N0800_K0107_NOCLIQUE"",""0025_N0800_K0107_CLIQUE""]"
"","","","","","","","","","","","canvas-keyboard-response","87","84205","0.0-70.0-0.0-0.0","","","","","","","","850","","arrowright","[667,550,536,262,53,321,244,424,82,473,504,470,608,479,177,527,390,633,701,697,32,164,14,72,204,334,728,219,149,65,737,24,186,324,426,299,71,109,18,273,559,60,359,511,614,650,306,643,410,734,58,715,546,753,674,507,497,85,281,316,747,346,628,103,476,302,521,486,124,10,153,738,602,526,336,47,759,268,132,183,251,242,714,454,615,456,680,557,230,265,632,209,179,657,356,208,718,264,224,363,688,474,551,373,582,630,129,534,213,184,539,639,512,466,597,216,543,586,478,612,493,777,13,178,59,464,566,577,345,25,499,723,446,462,587,402,712,694,392,399,782,524,284,150,765,631,716,49,303,350,94,55,206,760,658,480,622,123,93,304,724,784,523,388,89,212,327,57,338,573,172,174,275,794,743,660,713,74,365,143,637,201,285,689,367,525,19,52,565,613,232,498,34,726,670,249,2,9,693,735,472,51,401,451,1,261,141,198,247,626,448,432,540,717,575,307,494,68,368,541,267,76,604,106,173,581,779,92,648,773,567,772,298,593,563,130,564,528,655,386,654,280,239,7,433,362,519,387,656,419,266,617,459,272,789,31,168,108,705,91,438,430,138,770,357,558,671,696,241,196,797,758,128,746,20,119,740,664,562,400,463,238,506,21,385,641,436,136,37,30,194,569,396,225,785,152,348,342,489,287,271,56,370,711,791,253,642,722,227,310,325,741,445,75,259,406,629,54,353,646,154,795,677,621,23,121,101,41,354,3,69,15,673,518,721,556,61,744,313,452,67,471,226,398,790,66,349,435,461,764,603,403,142,175,326,570,8,501,167,139,308,490,428,535,127,578,381,311,140,649,414,561,636,335,260,752,197,601,252,682,455,274,787,458,27,616,620,105,180,422,214,144,553,731,691,269,169,702,748,48,382,640,727,695,341,182,207,380,279,755,477,444,699,255,624,542,329,538,425,90,774,684,199,397,709,185,686,407,344,374,360,389,159,771,38,395,676,330,555,131,64,229,440,661,295,634,576,228,165,125,379,467,314,767,78,246,698,704,502,766,441,592,775,337,549,288,331,465,340,415,36,799,703,434,413,122,146,300,554,729,220,619,317,644,203,305,485,635,116,672,683,81,530,776,200,205,781,574,293,393,508,568,627,742,547,12,662,588,4,97,43,120,315,384,113,236,282,739,371,50,725,418,126,762,610,328,409,675,319,500,653,188,606,469,133,318,135,786,522,221,579,278,256,352,590,375,0,351,605,412,420,358,750,690,223,768,162,84,761,623,638,796,294,191,376,663,599,394,607,45,449,115,39,391,600,544,323,545,609,248,749,163,254,181,560,134,443,583,245,235,736,416,176,780,189,645,22,751,763,509,171,63,11,240,659,769,110,158,202,580,233,112,104,250,572,193,453,88,137,301,291,491,339,783,147,421,429,531,95,234,533,100,309,145,237,481,482,28,117,692,333,26,35,369,488,276,77,151,496,678,457,211,437,625,552,710,99,708,647,378,332,411,187,263,468,404,297,596,669,707,427,73,96,366,515,289,611,585,537,322,733,798,361,217,148,46,83,29,87,595,170,296,431,161,277,517,719,442,292,218,666,700,42,484,514,745,529,598,62,487,98,312,215,450,503,16,668,86,475,510,70,548,423,17,372,460,33,166,706,243,618,679,107,222,532,591,754,192,495,685,283,156,155,720,730,665,40,347,520,651,343,195,792,286,788,80,408,584,571,778,231,483,5,756,516,377,102,270,290,6,681,405,652,257,114,79,190,492,44,111,793,589,320,383,439,447,157,355,417,505,258,118,757,513,687,732,210,364,160,594]","arrowleft","false","0","18","93","800","[""0065_N0800_K0093_CLIQUE"",""0023_N0800_K0093_NOCLIQUE""]"
"","","","","","","","","","","","audio-keyboard-response","88","85234","0.0-70.0-0.0-1.0","","","","","","","","null","audio_feedback/wrong/error01.mp3","null","","","","0","18","93","800","[""0065_N0800_K0093_CLIQUE"",""0023_N0800_K0093_NOCLIQUE""]"
"","","","","","","","","","","","canvas-keyboard-response","89","86893","0.0-71.0-0.0-0.0","","","","","","","","671","","arrowleft","[247,53,644,474,773,516,249,762,172,373,380,371,693,633,150,124,701,505,594,137,54,755,8,463,362,481,698,243,14,675,300,316,156,765,70,63,192,398,191,537,777,630,465,412,713,445,107,59,233,706,609,141,383,404,130,592,365,426,188,231,462,86,685,788,42,539,190,341,289,1,521,607,270,439,56,734,338,324,221,423,786,731,495,237,436,37,94,280,626,753,550,248,659,642,76,281,219,391,356,105,716,210,204,631,303,187,418,727,358,599,162,767,660,64,776,799,759,144,520,344,635,218,382,246,157,393,452,79,735,274,460,330,432,97,57,22,90,565,51,133,557,352,372,198,730,670,312,624,113,738,413,385,255,348,319,306,139,441,230,446,702,588,665,178,347,540,424,682,792,546,636,232,674,622,52,560,489,250,570,533,123,317,612,251,3,257,222,129,66,519,332,296,165,273,602,723,254,673,703,457,667,787,684,39,655,364,794,668,336,10,772,72,601,170,750,453,145,440,366,468,605,173,397,207,376,497,399,313,147,427,691,710,13,766,174,603,400,634,733,571,699,272,793,671,31,29,459,687,585,729,678,679,361,46,638,80,214,482,282,555,721,672,718,526,455,176,616,494,796,613,542,477,200,752,416,627,444,196,215,4,575,177,722,26,155,429,189,93,458,135,618,184,584,264,40,411,785,688,480,121,132,615,83,510,323,228,529,485,369,669,38,125,517,450,185,405,182,325,656,20,791,467,551,168,166,554,728,55,579,422,501,301,514,438,781,220,737,761,359,194,266,454,500,714,102,764,639,85,291,217,195,387,15,751,11,515,7,697,707,285,193,466,661,414,103,140,71,583,742,715,654,322,269,167,290,549,662,771,186,261,538,245,428,360,260,89,648,694,49,138,433,104,581,357,641,535,101,209,415,175,283,720,525,181,545,487,9,262,589,784,577,25,61,321,775,378,355,763,401,119,563,153,106,437,163,154,267,403,651,142,299,87,263,43,278,705,258,208,760,47,223,541,271,483,749,652,363,199,349,367,758,81,451,780,559,23,522,100,115,351,315,128,586,704,74,298,35,536,484,92,122,556,447,509,112,161,384,146,456,259,528,606,443,531,116,608,617,180,564,0,213,744,19,16,304,746,377,472,754,479,769,342,294,44,629,513,407,666,227,493,12,653,736,240,499,632,719,238,478,41,345,488,335,591,206,774,770,435,498,690,268,637,711,431,473,48,739,236,745,646,507,34,134,68,287,224,24,527,640,789,111,782,229,32,611,578,78,314,45,114,503,696,628,50,562,590,726,293,790,252,573,117,329,461,390,241,88,333,547,77,244,307,58,226,658,203,297,99,370,205,98,320,748,395,708,600,593,561,756,567,724,276,394,149,469,596,33,253,717,420,623,158,6,331,523,625,109,389,552,30,732,354,179,576,476,425,340,553,449,381,5,680,212,211,417,475,69,508,580,339,643,743,448,91,275,747,277,419,327,375,136,686,152,160,700,95,492,649,159,544,21,343,768,386,421,310,569,302,396,108,692,530,798,328,235,84,284,350,681,308,225,512,532,490,127,464,75,143,683,337,379,96,434,587,712,664,326,486,657,491,305,582,621,292,677,663,757,183,778,131,506,518,709,171,610,676,614,2,647,619,197,286,120,524,496,82,311,572,568,27,779,392,318,295,374,598,406,604,620,597,73,795,689,353,201,169,60,797,28,164,126,36,256,740,470,408,239,265,574,288,430,502,67,504,148,650,18,695,442,410,402,17,216,471,534,725,62,741,65,110,346,595,202,234,566,783,309,118,388,511,151,548,279,334,645,368,242,409,558,543]","arrowright","false","0","19","93","800","[""0078_N0800_K0093_NOCLIQUE"",""0033_N0800_K0093_CLIQUE""]"
"","","","","","","","","","","","audio-keyboard-response","90","87895","0.0-71.0-0.0-1.0","","","","","","","","null","audio_feedback/wrong/error01.mp3","null","","","","0","19","93","800","[""0078_N0800_K0093_NOCLIQUE"",""0033_N0800_K0093_CLIQUE""]"
"","","","","","","","","","","","canvas-keyboard-response","91","89165","0.0-72.0-0.0-0.0","","","","","","","","538","","arrowright","[426,64,236,288,448,511,214,390,447,626,442,497,70,638,459,376,418,425,138,501,373,99,227,121,405,755,679,776,100,593,220,549,783,729,304,292,309,181,630,677,365,463,794,617,565,431,269,551,98,165,775,105,78,680,354,699,527,445,11,435,773,632,400,444,331,217,432,198,156,716,245,545,326,183,300,21,357,368,243,348,83,407,748,294,484,774,720,599,515,31,391,733,560,598,639,491,145,12,779,353,0,291,388,311,341,30,35,591,634,575,197,43,522,737,643,112,278,66,109,22,201,676,209,370,604,744,460,204,440,231,562,689,338,476,749,386,93,541,799,135,762,310,28,602,489,199,315,742,768,611,631,280,171,474,72,587,586,508,136,500,566,392,210,661,727,264,88,377,513,317,248,724,628,192,524,690,173,49,312,621,91,771,577,503,420,329,454,267,759,485,216,571,797,607,224,745,399,252,255,468,496,558,732,314,478,116,273,271,158,758,750,736,347,452,26,295,144,283,172,313,7,627,194,664,673,4,660,462,350,526,531,663,325,282,131,792,653,784,251,65,102,188,576,393,153,735,79,637,597,234,177,180,641,494,429,230,346,122,766,191,434,615,52,51,430,142,693,583,683,50,184,456,339,450,642,207,669,203,608,219,563,265,281,645,287,606,211,111,584,20,32,60,705,428,385,276,108,728,706,786,402,167,483,166,520,349,616,381,788,769,174,247,261,161,263,3,486,53,250,221,711,695,398,512,1,550,320,352,480,259,499,635,118,722,305,657,308,590,279,539,556,47,649,719,436,63,89,107,481,646,356,555,417,498,37,437,509,696,461,694,257,623,464,187,739,589,600,568,130,603,162,299,612,747,160,670,268,195,74,477,375,443,68,714,517,337,41,409,237,552,240,44,455,196,629,757,730,666,662,578,137,709,384,713,530,212,205,421,34,103,761,791,149,715,548,318,763,573,262,332,510,796,793,505,504,383,334,48,58,789,707,61,33,29,760,534,582,232,322,155,372,13,446,644,495,528,482,406,104,229,596,506,8,285,148,559,266,780,119,143,17,453,114,708,725,687,336,213,80,532,182,129,618,239,84,134,778,731,382,223,306,487,580,73,389,466,588,681,164,572,721,286,379,704,554,415,502,200,67,396,470,473,92,671,458,260,439,115,246,581,692,298,540,536,152,514,364,579,154,465,321,56,441,253,307,702,69,423,782,358,362,610,150,57,438,15,81,777,59,241,743,620,723,367,258,467,640,416,738,451,335,324,567,523,296,16,233,101,289,95,546,754,394,120,533,553,316,686,18,411,110,94,225,772,519,650,594,87,659,323,366,374,359,141,170,619,328,636,516,228,544,651,297,139,128,625,159,457,206,369,238,753,585,77,185,655,717,178,614,62,490,301,125,97,475,38,542,414,672,40,648,647,685,23,764,422,186,726,751,132,343,652,117,222,254,756,678,700,734,333,798,10,86,330,665,413,674,795,360,380,355,215,175,698,244,595,682,658,741,613,235,190,525,403,140,345,633,785,493,557,25,54,537,401,19,113,404,740,27,408,378,82,529,433,193,344,765,538,71,424,387,256,712,361,543,656,521,419,710,507,718,668,601,472,746,226,770,163,9,151,133,684,609,168,24,242,123,90,675,479,208,6,169,39,469,218,767,701,667,272,371,363,410,605,270,787,106,284,157,570,412,471,790,76,397,189,290,75,274,147,342,518,176,781,569,561,249,622,340,55,327,5,124,2,179,42,547,45,688,752,319,351,146,703,654,293,427,277,697,488,691,85,126,46,574,302,36,303,564,395,96,127,14,535,449,202,492,275,624,592]","arrowright","true","0","20","80","800","[""0070_N0800_K0080_NOCLIQUE"",""0083_N0800_K0080_CLIQUE""]"
"","","","","","","","","","","","audio-keyboard-response","92","90155","0.0-72.0-0.0-1.0","","","","","","","","null","audio_feedback/right/coin01.mp3","null","","","","0","20","80","800","[""0070_N0800_K0080_NOCLIQUE"",""0083_N0800_K0080_CLIQUE""]"
"","","","","","","","","","","","canvas-keyboard-response","93","91788","0.0-73.0-0.0-0.0","","","","","","","","743","","arrowright","[764,498,690,650,97,55,427,384,625,515,73,508,687,211,242,635,333,235,717,490,575,449,537,458,356,337,397,104,662,528,448,201,728,335,771,41,313,457,598,142,22,593,365,386,621,632,755,590,109,559,78,788,649,215,230,383,774,123,746,699,185,45,382,396,153,607,113,361,647,136,533,683,548,206,748,118,349,273,789,31,779,700,100,269,181,503,139,694,482,199,354,580,611,98,433,66,693,305,783,614,208,164,589,275,52,472,81,70,167,404,489,159,640,147,768,437,638,238,626,374,620,652,155,726,409,143,612,162,573,261,604,680,691,285,309,597,345,675,360,585,660,314,12,451,619,1,74,536,381,47,331,722,336,180,452,14,209,622,505,710,227,450,103,643,247,512,422,177,316,702,624,276,644,412,546,507,735,280,569,125,532,796,544,772,5,773,223,79,787,663,130,188,664,315,83,376,327,60,596,480,721,220,65,264,749,129,513,371,20,752,56,627,216,240,357,628,231,712,86,236,521,304,704,520,753,128,411,517,781,183,441,484,77,600,296,501,583,2,321,736,196,689,144,82,715,526,479,312,502,30,475,24,756,582,688,547,133,299,67,202,117,13,658,552,760,266,579,156,16,152,318,776,141,478,577,89,96,244,115,307,366,179,148,205,477,57,293,49,465,286,157,295,527,410,504,330,778,514,793,761,29,416,292,636,348,438,714,642,54,355,388,784,297,550,352,540,665,785,731,303,59,572,191,747,287,460,262,246,308,63,150,210,591,440,792,325,283,270,343,166,419,228,161,252,3,586,300,233,535,214,769,534,539,561,707,302,765,398,473,124,338,198,224,429,545,182,237,350,51,743,169,253,25,391,518,195,84,358,734,417,432,200,375,599,310,278,476,531,434,637,408,588,401,488,48,681,9,595,723,456,329,377,288,654,646,495,709,706,322,171,492,727,4,243,23,359,94,763,64,131,121,291,782,443,353,284,387,170,672,368,91,684,85,289,674,719,72,750,562,762,306,7,168,58,379,645,88,439,163,496,108,137,250,795,346,149,673,95,326,651,68,741,385,341,229,176,464,554,234,319,603,175,294,256,11,203,21,393,563,780,146,592,557,751,584,110,511,656,339,471,101,730,486,631,40,328,453,497,659,564,158,418,613,249,716,555,62,218,670,463,107,713,469,272,676,225,33,525,420,686,759,567,661,282,754,226,10,560,655,485,462,565,430,516,90,618,493,36,267,165,767,116,551,263,705,506,758,608,332,35,43,222,174,570,134,268,415,423,102,703,392,213,190,87,708,461,135,615,678,39,69,481,692,317,738,119,682,239,671,413,724,221,122,364,405,28,467,19,407,76,587,669,390,733,400,742,370,447,105,424,542,799,254,697,145,93,160,257,140,524,558,602,92,277,426,378,187,757,428,112,120,581,207,259,499,334,444,775,641,616,311,668,538,274,217,414,442,487,395,17,610,301,260,766,739,529,466,342,184,609,786,745,380,798,605,629,245,172,666,494,362,685,566,178,696,389,212,290,34,194,373,483,553,711,402,543,744,639,445,232,399,594,351,630,347,470,99,251,541,324,151,369,509,186,657,574,111,421,403,797,474,265,6,132,61,27,556,698,667,193,530,737,367,154,633,363,192,42,219,372,634,522,15,255,114,44,241,701,71,75,568,571,298,732,127,0,653,446,725,126,549,323,53,37,435,26,510,617,106,794,468,455,50,740,436,790,777,648,258,425,344,576,695,204,431,32,80,791,248,523,394,720,454,623,679,138,197,189,406,271,340,500,38,46,578,281,519,718,729,18,601,320,8,677,279,459,770,173,606,491]","arrowright","true","0","21","80","800","[""0056_N0800_K0080_NOCLIQUE"",""0059_N0800_K0080_CLIQUE""]"
"","","","","","","","","","","","audio-keyboard-response","94","92775","0.0-73.0-0.0-1.0","","","","","","","","null","audio_feedback/right/coin01.mp3","null","","","","0","21","80","800","[""0056_N0800_K0080_NOCLIQUE"",""0059_N0800_K0080_CLIQUE""]"
"","","","","","","","","","","","canvas-keyboard-response","95","94285","0.0-74.0-0.0-0.0","","","","","","","","355","","arrowleft","[323,603,373,660,391,557,43,578,572,111,66,88,222,325,403,297,3,657,491,749,592,30,366,16,735,655,44,153,628,311,565,103,390,597,620,786,24,224,767,354,444,253,173,604,330,643,69,286,162,96,339,591,675,639,361,417,775,6,312,406,168,114,124,408,439,580,626,104,426,487,140,316,115,645,512,159,284,496,418,195,635,527,602,744,169,75,362,255,664,421,34,56,641,475,272,315,260,618,548,363,175,798,460,314,559,656,340,707,346,704,74,462,481,23,296,8,608,397,758,447,742,502,438,351,621,593,116,79,488,714,710,518,231,83,454,571,519,550,170,268,569,243,236,511,415,171,14,118,448,53,27,319,139,763,165,419,739,649,468,300,242,21,730,80,692,293,238,681,787,383,387,412,698,493,279,702,476,717,723,229,510,194,607,504,51,105,726,73,733,470,342,672,782,352,376,584,691,198,196,202,166,183,126,433,275,796,446,197,478,760,167,215,216,208,588,13,724,610,471,131,380,392,777,497,305,11,133,130,459,327,180,328,355,132,788,558,119,301,329,217,26,68,727,445,278,440,554,509,192,528,411,120,651,36,467,250,141,601,322,61,450,85,287,92,753,437,494,317,474,568,614,310,129,76,77,57,729,395,540,172,269,199,233,663,483,221,708,396,696,563,388,706,384,495,703,374,18,240,642,712,39,334,375,545,423,193,263,705,254,648,761,32,480,389,209,665,783,790,581,638,348,112,772,680,590,20,368,52,155,754,295,290,617,277,185,113,589,736,55,283,84,176,555,721,579,722,371,473,349,158,29,670,636,189,94,776,441,647,482,416,513,123,227,122,108,605,716,490,394,128,485,430,45,449,637,759,515,792,335,86,157,521,547,182,553,184,734,127,498,690,261,379,463,652,265,429,289,1,541,353,281,332,280,22,4,291,453,684,294,19,436,78,764,70,190,654,576,769,400,606,360,146,520,186,633,318,54,533,574,599,164,658,143,458,556,410,564,544,600,135,632,748,688,566,766,256,187,385,595,309,237,38,737,611,321,345,225,531,404,743,546,303,561,549,484,538,0,378,741,740,594,174,562,299,532,151,211,625,709,350,338,435,756,262,87,313,177,503,799,358,246,257,666,631,542,771,699,671,59,752,201,369,619,90,409,365,179,282,326,582,779,276,5,245,679,213,552,687,93,718,117,646,235,266,324,738,10,386,46,41,234,191,697,477,223,732,95,659,567,609,455,640,336,307,534,258,755,507,398,72,337,308,793,773,50,347,42,427,469,121,686,64,539,653,505,206,451,669,701,526,230,102,673,479,150,333,587,97,508,428,270,695,407,630,63,583,285,500,573,98,48,248,144,298,138,89,629,537,797,331,161,125,82,443,304,214,616,71,364,249,725,622,377,529,107,147,148,344,210,523,99,401,110,200,731,442,399,667,746,543,694,650,152,251,405,218,58,402,685,535,784,683,425,212,598,431,232,37,207,302,40,517,271,464,457,785,91,456,264,47,644,489,770,461,623,367,677,668,414,789,274,465,370,762,154,516,472,794,241,219,9,575,791,778,228,661,2,422,585,525,627,728,750,341,137,492,33,674,35,551,28,596,624,524,466,372,239,134,259,514,145,109,676,795,292,343,413,156,577,720,486,142,205,693,67,662,570,106,765,306,17,434,586,536,745,60,780,506,393,715,226,247,713,719,751,244,81,49,774,15,501,499,273,181,747,615,432,357,160,320,612,62,381,768,204,560,359,757,700,220,188,682,31,689,613,252,12,424,356,7,178,634,522,678,203,382,163,65,530,452,288,711,267,781,149,101,25,420,100,136]","arrowleft","true","0","22","67","800","[""0044_N0800_K0067_CLIQUE"",""0058_N0800_K0067_NOCLIQUE""]"
"","","","","","","","","","","","audio-keyboard-response","96","95275","0.0-74.0-0.0-1.0","","","","","","","","null","audio_feedback/right/coin01.mp3","null","","","","0","22","67","800","[""0044_N0800_K0067_CLIQUE"",""0058_N0800_K0067_NOCLIQUE""]"
"","","","","","","","","","","","canvas-keyboard-response","97","96780","0.0-75.0-0.0-0.0","","","","","","","","410","","arrowright","[554,650,162,449,588,395,269,360,768,280,124,771,29,555,698,68,490,126,464,232,635,671,262,384,496,223,767,575,13,4,271,441,286,347,334,60,3,595,320,427,374,27,371,626,632,421,547,611,8,41,579,49,241,672,636,634,209,556,289,456,166,355,388,438,410,248,255,798,411,687,562,502,196,657,422,400,576,684,557,629,639,712,756,565,302,587,321,497,204,48,194,185,654,548,696,77,263,335,711,356,86,470,23,691,375,455,212,386,131,76,465,564,299,503,507,62,42,535,741,102,625,412,312,541,521,145,471,139,59,433,317,128,589,486,523,324,147,329,14,710,378,545,518,370,112,745,72,494,693,606,58,619,666,394,706,530,220,83,609,424,759,674,544,498,314,55,154,245,108,540,319,227,475,303,675,94,630,362,600,695,762,109,229,200,141,238,173,423,191,53,337,21,192,2,340,708,359,116,534,513,295,633,107,233,648,163,669,403,225,32,488,435,399,294,429,437,528,511,573,33,278,440,195,505,458,61,652,472,230,266,348,643,748,217,311,420,187,235,733,221,574,66,91,628,616,251,714,38,492,117,80,613,623,578,655,308,642,647,79,5,26,751,467,704,169,686,259,288,216,481,770,487,328,542,268,761,531,254,781,782,615,688,364,667,561,331,546,372,51,250,454,716,419,165,366,398,700,304,558,137,567,594,571,462,252,193,559,563,343,644,747,681,504,240,69,515,482,740,713,31,783,132,24,677,34,70,161,786,322,180,443,780,16,197,673,160,315,258,680,101,790,349,572,22,637,239,47,690,735,222,264,509,734,569,373,383,550,701,35,387,283,151,99,757,236,190,699,765,778,184,476,63,527,25,100,660,483,247,514,526,408,730,153,405,122,174,517,414,37,351,537,45,183,142,130,590,297,501,333,621,591,799,754,584,602,785,237,226,728,318,651,43,198,291,339,697,74,376,113,218,413,453,0,201,792,668,390,316,211,659,460,727,457,434,133,9,624,779,170,98,30,566,50,439,208,46,300,737,93,519,397,543,533,599,393,276,67,743,776,392,140,257,243,618,178,40,493,261,106,729,186,95,327,769,365,167,377,709,663,608,90,676,746,148,325,205,749,281,275,244,724,265,499,369,242,581,495,607,78,726,305,592,138,596,155,175,446,525,346,444,56,176,491,450,722,679,181,368,407,665,605,85,718,797,404,123,219,234,152,260,725,164,111,228,256,707,114,389,323,622,570,442,447,477,92,287,774,506,536,604,538,766,705,683,179,17,597,723,290,721,524,396,168,39,692,115,791,772,171,89,661,736,617,84,719,310,146,752,694,307,468,717,149,353,409,336,157,381,789,19,417,459,188,357,135,224,448,753,760,425,120,172,215,702,71,500,54,273,279,612,96,670,478,614,361,787,520,432,127,703,203,1,306,363,793,610,402,267,653,560,64,549,11,293,742,489,97,385,282,522,529,82,159,332,739,298,512,354,272,631,296,510,656,445,773,121,645,20,118,640,292,603,750,451,110,330,582,485,358,379,795,270,28,646,452,426,352,796,469,685,253,10,277,539,246,65,620,732,36,406,658,682,508,532,758,344,326,788,552,341,689,777,775,466,213,207,638,284,731,104,649,479,678,158,627,428,136,182,7,641,720,338,249,189,199,75,12,73,474,342,586,568,551,794,345,664,473,285,764,309,144,598,380,143,105,231,463,382,103,391,784,81,763,350,436,480,202,484,57,52,44,416,583,214,715,87,177,313,367,738,516,210,134,585,150,593,553,15,755,274,88,430,662,418,119,156,744,577,431,601,206,401,301,18,6,129,580,461,415,125]","arrowleft","false","0","23","67","800","[""0085_N0800_K0067_CLIQUE"",""0029_N0800_K0067_NOCLIQUE""]"
