"value","trial_type","trial_index","time_elapsed","internal_node_id","width","height","webaudio","browser","browser_version","mobile","os","fullscreen","vsync_rate","webcam","microphone","success","timeout","failed_images","failed_audio","failed_video","view_history","rt","stimulus","response","nodes_order","correct_response","correct","block_index","presentation_index","clique_size","graph_size","graphs_names"
"","call-function","0","1","0.0-0.0","","","","","","","","","","","","","","","","","","","","","","","","","","","",""
"","browser-check","1","996","0.0-1.0","1536","695","true","chrome","132.0.0","false","Windows 10","true","60.56","true","true","","","","","","","","","","","","","","","","",""
"","preload","2","1104","0.0-2.0","","","","","","","","","","","","true","false","[]","[]","[]","","","","","","","","","","","",""
"","pavlovia","3","1422","0.0-3.0","","","","","","","","","","","","","","","","","","","","","","","","","","","",""
"","instructions","4","3815","0.0-4.0","","","","","","","","","","","","","","","","","[{""page_index"":0,""viewing_time"":1888},{""page_index"":1,""viewing_time"":504}]","2392","","","","","","","","","",""
"","html-keyboard-response","5","5946","0.0-5.0-0.0","","","","","","","","","","","","","","","","","","2131","By accepting to participate in this study, you confirm:
                <p style='text-align:left'>
                    - That I have carefully read the explanations regarding this study and the entire experimental procedure;<br>
                    - That I have been informed about the aims and objectives of this research;<br>
                    - That I am aware of the inconveniences, if any, caused by the experiment;<br>
                    - That I have received satisfactory assurances regarding the confidentiality of the information obtained from the examination of my own person; <br>
                    - That I am aware that I can withdraw at any stage of the study.
                <p>
                <span style=""color: #808080"">
                    Press [Y] to <strong>accept</strong>.
                </span> <br>
                <span style=""color: #808080"">
                    Press [N] to <strong>refuse</strong>.
                </span>","y","","","","","","","",""
"","survey-html-form","6","13496","0.0-6.0","","","","","","","","","","","","","","","","","","7549","","{""gender"":""male"",""age"":""12""}","","","","","","","",""
"","preload","7","14683","0.0-7.0","","","","","","","","","","","","true","false","[]","[]","[]","","","","","","","","","","","",""
"","instructions","8","23918","0.0-8.0","","","","","","","","","","","","","","","","","[{""page_index"":0,""viewing_time"":813},{""page_index"":1,""viewing_time"":153},{""page_index"":2,""viewing_time"":120},{""page_index"":3,""viewing_time"":156},{""page_index"":4,""viewing_time"":106},{""page_index"":5,""viewing_time"":167},{""page_index"":6,""viewing_time"":151},{""page_index"":7,""viewing_time"":133},{""page_index"":8,""viewing_time"":150},{""page_index"":9,""viewing_time"":135},{""page_index"":10,""viewing_time"":137},{""page_index"":11,""viewing_time"":123},{""page_index"":12,""viewing_time"":207},{""page_index"":13,""viewing_time"":174},{""page_index"":14,""viewing_time"":133},{""page_index"":15,""viewing_time"":173},{""page_index"":16,""viewing_time"":149},{""page_index"":17,""viewing_time"":153},{""page_index"":18,""viewing_time"":164},{""page_index"":19,""viewing_time"":156},{""page_index"":20,""viewing_time"":115},{""page_index"":21,""viewing_time"":200},{""page_index"":22,""viewing_time"":103},{""page_index"":23,""viewing_time"":202},{""page_index"":24,""viewing_time"":205},{""page_index"":25,""viewing_time"":160},{""page_index"":26,""viewing_time"":86},{""page_index"":27,""viewing_time"":159},{""page_index"":28,""viewing_time"":184},{""page_index"":29,""viewing_time"":184},{""page_index"":30,""viewing_time"":171},{""page_index"":31,""viewing_time"":170},{""page_index"":32,""viewing_time"":167},{""page_index"":33,""viewing_time"":170},{""page_index"":34,""viewing_time"":155},{""page_index"":35,""viewing_time"":147},{""page_index"":36,""viewing_time"":235},{""page_index"":37,""viewing_time"":150},{""page_index"":38,""viewing_time"":247},{""page_index"":39,""viewing_time"":208},{""page_index"":40,""viewing_time"":184},{""page_index"":41,""viewing_time"":165},{""page_index"":42,""viewing_time"":121},{""page_index"":43,""viewing_time"":241},{""page_index"":44,""viewing_time"":179},{""page_index"":45,""viewing_time"":168},{""page_index"":46,""viewing_time"":178},{""page_index"":47,""viewing_time"":186},{""page_index"":48,""viewing_time"":192},{""page_index"":49,""viewing_time"":203},{""page_index"":50,""viewing_time"":175},{""page_index"":51,""viewing_time"":170}]","9235","","","","","","","","","",""
"","instructions","9","25242","0.0-9.0","","","","","","","","","","","","","","","","","[{""page_index"":0,""viewing_time"":1323}]","1323","","","","","","","","","",""
"","preload","10","25970","0.0-10.0","","","","","","","","","","","","true","false","[]","[]","[]","","","","","","","","","","","",""
"","image-keyboard-response","11","25979","0.0-11.0","","","","","","","","","","","","","","","","","","8","tutorial/p_reduce/task_familiarization_images/part 1/01_N160_K90_cliqueRight_question1.PNG"," ","","","","","","","",""
"","image-keyboard-response","12","26167","0.0-12.0","","","","","","","","","","","","","","","","","","186","tutorial/p_reduce/task_familiarization_images/part 1/02_N160_K90_cliqueRight_question2.PNG"," ","","","","","","","",""
"","image-keyboard-response","13","27113","0.0-13.0","","","","","","","","","","","","","","","","","","946","tutorial/p_reduce/task_familiarization_images/part 1/03_N160_K90_cliqueRight_question3.PNG","arrowright","","","","","","","",""
"","image-keyboard-response","14","27505","0.0-14.0","","","","","","","","","","","","","","","","","","391","tutorial/p_reduce/task_familiarization_images/part 1/04_N160_K90_cliqueRight_solution.PNG"," ","","","","","","","",""
"","image-keyboard-response","15","27693","0.0-15.0","","","","","","","","","","","","","","","","","","188","tutorial/p_reduce/task_familiarization_images/part 1/05_N160_K65_cliqueRight_question1.PNG"," ","","","","","","","",""
"","image-keyboard-response","16","27843","0.0-16.0","","","","","","","","","","","","","","","","","","149","tutorial/p_reduce/task_familiarization_images/part 1/06_N160_K65_cliqueRight_question2.PNG"," ","","","","","","","",""
"","image-keyboard-response","17","28717","0.0-17.0","","","","","","","","","","","","","","","","","","874","tutorial/p_reduce/task_familiarization_images/part 1/07_N160_K65_cliqueRight_question3.PNG","arrowright","","","","","","","",""
"","image-keyboard-response","18","30145","0.0-18.0","","","","","","","","","","","","","","","","","","1427","tutorial/p_reduce/task_familiarization_images/part 1/08_N160_K65_cliqueRight_solution.PNG"," ","","","","","","","",""
"","image-keyboard-response","19","30593","0.0-19.0","","","","","","","","","","","","","","","","","","448","tutorial/p_reduce/task_familiarization_images/part 1/09_N160_K50_cliqueLeft_question1.PNG"," ","","","","","","","",""
"","image-keyboard-response","20","30759","0.0-20.0","","","","","","","","","","","","","","","","","","165","tutorial/p_reduce/task_familiarization_images/part 1/10_N160_K50_cliqueLeft_question2.PNG"," ","","","","","","","",""
"","image-keyboard-response","21","31922","0.0-21.0","","","","","","","","","","","","","","","","","","1163","tutorial/p_reduce/task_familiarization_images/part 1/11_N160_K50_cliqueLeft_question3.PNG","arrowright","","","","","","","",""
"","image-keyboard-response","22","32348","0.0-22.0","","","","","","","","","","","","","","","","","","425","tutorial/p_reduce/task_familiarization_images/part 1/12_N160_K50_cliqueLeft_solution.PNG"," ","","","","","","","",""
"","image-keyboard-response","23","32520","0.0-23.0","","","","","","","","","","","","","","","","","","171","tutorial/p_reduce/task_familiarization_images/part 1/13_N160_K80_cliqueLeft_question1.PNG"," ","","","","","","","",""
"","image-keyboard-response","24","32694","0.0-24.0","","","","","","","","","","","","","","","","","","173","tutorial/p_reduce/task_familiarization_images/part 1/14_N160_K80_cliqueLeft_question2.PNG"," ","","","","","","","",""
"","image-keyboard-response","25","33317","0.0-25.0","","","","","","","","","","","","","","","","","","623","tutorial/p_reduce/task_familiarization_images/part 1/15_N160_K80_cliqueLeft_question3.PNG","arrowright","","","","","","","",""
"","image-keyboard-response","26","33582","0.0-26.0","","","","","","","","","","","","","","","","","","264","tutorial/p_reduce/task_familiarization_images/part 1/16_N160_K80_cliqueLeft_solution.PNG"," ","","","","","","","",""
"","image-keyboard-response","27","33765","0.0-27.0","","","","","","","","","","","","","","","","","","183","tutorial/p_reduce/task_familiarization_images/part 1/17_N160_K40_cliqueRight_question1.PNG"," ","","","","","","","",""
"","image-keyboard-response","28","33955","0.0-28.0","","","","","","","","","","","","","","","","","","190","tutorial/p_reduce/task_familiarization_images/part 1/18_N160_K40_cliqueRight_question2.PNG"," ","","","","","","","",""
"","image-keyboard-response","29","34618","0.0-29.0","","","","","","","","","","","","","","","","","","662","tutorial/p_reduce/task_familiarization_images/part 1/19_N160_K40_cliqueRight_question3.PNG","arrowright","","","","","","","",""
"","image-keyboard-response","30","35047","0.0-30.0","","","","","","","","","","","","","","","","","","428","tutorial/p_reduce/task_familiarization_images/part 1/20_N160_K40_cliqueRight_solution.PNG"," ","","","","","","","",""
"","image-keyboard-response","31","35210","0.0-31.0","","","","","","","","","","","","","","","","","","163","tutorial/p_reduce/task_familiarization_images/part 1/21_N160_K70_cliqueLeft_question1.PNG"," ","","","","","","","",""
"","image-keyboard-response","32","35403","0.0-32.0","","","","","","","","","","","","","","","","","","193","tutorial/p_reduce/task_familiarization_images/part 1/22_N160_K70_cliqueLeft_question2.PNG"," ","","","","","","","",""
"","image-keyboard-response","33","36154","0.0-33.0","","","","","","","","","","","","","","","","","","750","tutorial/p_reduce/task_familiarization_images/part 1/23_N160_K70_cliqueLeft_question3.PNG","arrowleft","","","","","","","",""
"","image-keyboard-response","34","36674","0.0-34.0","","","","","","","","","","","","","","","","","","520","tutorial/p_reduce/task_familiarization_images/part 1/24_N160_K70_cliqueLeft_solution.PNG"," ","","","","","","","",""
"","preload","35","37222","0.0-35.0","","","","","","","","","","","","true","false","[]","[]","[]","","","","","","","","","","","",""
"","image-keyboard-response","36","37483","0.0-36.0","","","","","","","","","","","","","","","","","","261","tutorial/p_reduce/task_familiarization_images/part 2/01_N160_K80_cliqueLeft_withFeedback_1.PNG"," ","","","","","","","",""
"","image-keyboard-response","37","37640","0.0-37.0","","","","","","","","","","","","","","","","","","156","tutorial/p_reduce/task_familiarization_images/part 2/02_N160_K80_cliqueLeft_withFeedback_2.PNG"," ","","","","","","","",""
"","image-keyboard-response","38","37989","0.0-38.0","","","","","","","","","","","","","","","","","","349","tutorial/p_reduce/task_familiarization_images/part 2/03_N160_K80_cliqueLeft_withFeedback_3.PNG","arrowright","","","","","","","",""
"","image-keyboard-response","39","38312","0.0-39.0","","","","","","","","","","","","","","","","","","321","tutorial/p_reduce/task_familiarization_images/part 2/04_N160_K80_cliqueLeft_withFeedback_wrong.PNG"," ","","","","","","","",""
"","image-keyboard-response","40","38479","0.0-40.0","","","","","","","","","","","","","","","","","","167","tutorial/p_reduce/task_familiarization_images/part 2/05_N160_K55_cliqueRight_withFeedback_1.PNG"," ","","","","","","","",""
"","image-keyboard-response","41","38635","0.0-41.0","","","","","","","","","","","","","","","","","","156","tutorial/p_reduce/task_familiarization_images/part 2/06_N160_K55_cliqueRight_withFeedback_2.PNG"," ","","","","","","","",""
"","image-keyboard-response","42","39145","0.0-42.0","","","","","","","","","","","","","","","","","","508","tutorial/p_reduce/task_familiarization_images/part 2/07_N160_K55_cliqueRight_withFeedback_3.PNG","arrowright","","","","","","","",""
"","image-keyboard-response","43","39413","0.0-43.0","","","","","","","","","","","","","","","","","","268","tutorial/p_reduce/task_familiarization_images/part 2/08_N160_K55_cliqueRight_withFeedback_correct.PNG"," ","","","","","","","",""
"","image-keyboard-response","44","39573","0.0-44.0","","","","","","","","","","","","","","","","","","160","tutorial/p_reduce/task_familiarization_images/part 2/09_N160_K70_cliqueLeft_withFeedback_1.PNG"," ","","","","","","","",""
"","image-keyboard-response","45","39735","0.0-45.0","","","","","","","","","","","","","","","","","","161","tutorial/p_reduce/task_familiarization_images/part 2/10_N160_K70_cliqueLeft_withFeedback_2.PNG"," ","","","","","","","",""
"","image-keyboard-response","46","40246","0.0-46.0","","","","","","","","","","","","","","","","","","511","tutorial/p_reduce/task_familiarization_images/part 2/11_N160_K70_cliqueLeft_withFeedback_3.PNG","arrowright","","","","","","","",""
"","image-keyboard-response","47","40604","0.0-47.0","","","","","","","","","","","","","","","","","","358","tutorial/p_reduce/task_familiarization_images/part 2/12_N160_K70_cliqueLeft_withFeedback_wrong.PNG"," ","","","","","","","",""
"","preload","48","40806","0.0-48.0","","","","","","","","","","","","true","false","[]","[]","[]","","","","","","","","","","","",""
"","instructions","49","41538","0.0-49.0","","","","","","","","","","","","","","","","","[{""page_index"":0,""viewing_time"":732}]","732","","","","","","","","","",""
"","fullscreen","50","44801","0.0-51.0","","","","","","","","","","","","true","","","","","","","","","","","","","","","",""
"","canvas-keyboard-response","51","47862","0.0-52.0-0.0-0.0","","","","","","","","","","","","","","","","","","2385","","arrowright","[321,402,66,529,784,174,64,65,470,412,119,140,726,753,680,572,42,750,451,356,795,791,304,737,345,61,692,361,788,518,695,387,172,261,109,348,77,191,770,463,762,765,733,691,134,90,225,478,173,10,634,37,715,370,479,242,618,63,230,275,783,23,526,512,131,522,81,21,243,148,403,371,505,629,344,640,595,472,204,38,681,722,329,57,60,217,36,619,347,167,268,604,656,325,410,769,47,8,375,627,468,435,79,732,379,218,201,195,85,728,624,455,183,194,365,569,757,111,158,343,777,557,658,457,160,3,707,246,417,653,740,74,739,146,667,672,137,384,741,562,597,593,606,590,655,487,552,319,535,333,297,613,799,205,671,224,538,46,346,706,374,685,342,236,302,388,94,616,408,647,164,187,279,247,454,328,782,235,372,499,67,396,448,510,527,674,464,102,215,105,432,690,755,779,327,666,723,168,149,485,142,389,609,766,500,303,58,673,0,28,223,395,32,91,171,439,615,266,222,139,368,289,705,459,668,197,623,311,306,280,450,143,598,352,790,391,582,264,88,350,314,797,764,589,390,386,542,407,181,249,570,41,118,573,549,587,449,75,110,354,115,245,642,612,152,126,272,50,210,785,276,198,648,307,132,798,282,431,758,24,675,15,103,708,583,547,477,433,200,532,196,190,605,651,240,320,679,97,68,628,447,208,401,761,493,406,440,652,52,55,480,73,20,48,383,717,742,649,127,630,644,546,369,330,278,461,188,568,544,257,676,456,601,76,469,563,335,504,121,426,709,774,701,135,567,35,265,295,176,315,341,4,599,561,430,789,394,62,415,219,684,359,610,189,763,746,106,600,291,206,360,216,290,84,381,445,253,310,292,100,78,300,262,756,661,460,80,564,7,626,721,574,416,752,633,362,180,560,99,339,474,376,521,326,25,213,467,775,743,277,220,754,22,299,718,233,248,373,367,462,405,631,27,776,443,150,418,553,578,650,575,577,566,711,492,112,536,411,211,664,11,263,471,682,558,175,351,19,781,428,483,792,678,513,166,273,70,156,113,772,488,178,267,392,96,318,736,241,452,130,724,33,660,31,533,59,427,607,157,255,748,438,363,54,738,700,703,556,165,497,429,525,161,413,421,214,382,169,444,424,643,270,155,620,124,729,397,638,53,49,579,441,576,554,296,86,617,585,104,496,237,252,639,117,584,138,540,177,747,581,491,366,614,393,323,256,734,114,716,446,539,69,288,516,420,524,514,116,663,129,669,159,580,30,591,93,571,506,404,594,517,83,760,654,719,689,251,151,657,787,531,794,423,720,702,44,2,287,298,128,227,697,481,153,592,519,221,92,293,551,231,107,731,1,355,523,635,39,228,637,238,713,425,26,520,285,125,284,458,677,182,45,71,453,780,336,337,313,602,434,89,745,101,543,40,586,476,186,250,269,534,686,537,399,771,209,17,596,122,603,419,51,511,730,98,696,244,281,332,473,207,611,498,349,622,509,144,714,234,751,353,271,501,357,192,331,541,466,305,625,489,123,380,793,203,548,309,377,29,136,72,482,317,662,95,185,608,133,559,759,226,796,283,338,688,385,9,358,694,515,312,683,645,229,147,179,193,502,6,437,744,735,641,254,698,646,773,239,555,786,687,232,659,508,442,308,301,13,5,34,710,530,588,749,778,670,286,727,550,490,260,494,212,378,322,699,632,82,14,274,184,16,259,725,154,436,258,565,163,409,324,12,199,400,87,294,528,621,693,484,475,398,503,120,414,636,316,18,170,712,545,145,340,202,767,108,768,495,704,364,422,43,56,334,665,486,507,162,465,141]","arrowright","true","0","0","240","800","[""0067_N0800_K0240_NOCLIQUE"",""0055_N0800_K0240_CLIQUE""]"
"","audio-keyboard-response","52","49177","0.0-52.0-0.0-1.0","","","","","","","","","","","","","","","","","","null","audio_feedback/right/coin01.mp3","null","","","","0","0","240","800","[""0067_N0800_K0240_NOCLIQUE"",""0055_N0800_K0240_CLIQUE""]"
"","canvas-keyboard-response","53","50477","0.0-53.0-0.0-0.0","","","","","","","","","","","","","","","","","","792","","arrowleft","[610,733,362,589,484,744,99,226,467,771,85,184,243,707,327,292,793,518,466,108,64,575,69,678,293,571,267,383,453,180,38,596,152,253,282,657,42,244,738,335,545,296,162,565,488,746,40,639,640,298,528,398,10,234,212,19,648,290,752,792,471,464,283,531,563,727,773,606,406,675,781,650,51,189,511,422,595,146,369,259,277,623,168,17,787,7,29,89,730,86,325,612,145,265,462,299,425,551,160,344,535,215,39,617,328,397,628,602,559,450,150,171,739,75,97,431,665,46,41,689,763,703,479,741,644,510,219,9,660,635,446,539,655,15,139,399,266,379,53,775,124,785,8,500,119,291,77,725,505,638,192,382,594,561,751,721,567,66,724,120,526,690,547,492,356,187,499,196,440,415,223,301,307,737,624,681,1,447,497,517,61,340,729,11,426,608,284,597,516,554,428,319,642,728,407,174,336,609,193,197,546,544,538,656,396,23,769,649,664,391,469,104,493,542,130,588,558,451,788,112,248,508,318,13,523,31,68,754,131,693,135,177,593,330,368,155,747,341,732,705,521,486,691,503,251,514,376,310,502,207,436,647,765,242,4,395,412,35,52,315,409,107,357,159,774,445,583,530,457,452,482,348,378,82,704,208,96,536,708,404,698,405,70,715,614,351,98,95,76,278,798,74,393,512,163,419,618,235,241,110,576,302,560,169,262,37,659,227,222,91,430,695,388,645,90,324,72,740,338,768,688,134,260,683,706,420,78,472,605,784,470,603,782,175,274,634,49,541,525,133,668,87,213,513,0,759,386,799,300,485,81,416,232,352,533,540,204,28,433,616,154,654,672,745,239,332,47,350,646,236,682,501,490,73,761,480,200,21,790,136,294,556,2,413,147,57,240,250,475,580,607,631,686,421,94,191,550,80,387,188,772,195,230,702,504,233,270,641,173,132,507,636,770,424,515,570,394,473,389,410,758,598,534,206,374,463,269,795,308,178,458,229,780,261,468,392,313,263,402,67,423,34,101,272,305,287,65,578,779,258,626,483,574,615,203,311,643,474,103,764,506,43,687,630,121,569,448,460,722,116,337,161,760,666,26,736,343,364,209,797,573,581,142,137,288,314,600,711,360,789,585,144,766,58,373,701,653,437,767,577,138,621,345,30,694,414,651,663,157,48,118,165,105,366,143,149,723,756,289,342,611,679,194,216,202,372,700,459,794,321,592,697,555,322,347,661,601,709,442,205,247,625,495,370,127,316,669,381,297,32,750,306,257,16,680,519,190,102,339,268,113,568,731,158,713,719,717,509,489,676,491,477,312,185,33,696,18,385,552,109,449,439,164,271,183,527,303,537,117,735,408,637,712,791,93,181,349,276,24,674,45,170,167,224,264,123,390,456,496,141,218,252,140,620,716,182,375,757,778,129,320,658,564,225,418,50,44,201,353,84,604,667,153,333,710,285,529,60,478,572,3,365,417,613,166,786,88,692,748,220,520,403,151,122,256,743,590,254,461,83,371,494,71,198,179,487,354,59,237,582,432,438,214,115,172,384,629,677,286,355,210,281,176,238,5,323,401,100,670,54,156,579,699,652,777,427,434,255,249,455,346,619,435,543,62,465,295,186,454,562,126,114,776,524,720,734,762,14,125,221,275,79,27,444,584,481,55,549,280,622,400,56,331,633,309,128,358,326,566,377,361,662,522,334,599,742,429,714,111,557,632,587,273,753,411,532,443,279,92,671,217,673,228,359,755,553,231,796,25,317,685,6,548,22,627,591,498,749,12,441,63,20,246,148,684,36,380,304,718,199,367,476,726,245,106,211,586,329,363,783]","arrowleft","true","0","1","240","800","[""0089_N0800_K0240_CLIQUE"",""0035_N0800_K0240_NOCLIQUE""]"
"","audio-keyboard-response","54","51477","0.0-53.0-0.0-1.0","","","","","","","","","","","","","","","","","","null","audio_feedback/right/coin01.mp3","null","","","","0","1","240","800","[""0089_N0800_K0240_CLIQUE"",""0035_N0800_K0240_NOCLIQUE""]"
"","canvas-keyboard-response","55","52651","0.0-54.0-0.0-0.0","","","","","","","","","","","","","","","","","","755","","arrowleft","[194,261,757,619,104,454,269,291,86,170,226,132,275,416,695,156,555,53,512,414,489,564,739,549,644,116,312,178,287,708,189,152,98,304,149,401,294,200,39,153,94,64,728,393,482,631,541,742,406,593,533,574,356,54,183,235,734,669,494,717,683,92,698,615,7,503,326,236,328,214,296,302,0,729,783,747,531,720,726,49,547,628,298,118,30,405,305,452,415,397,781,643,537,145,373,485,384,38,385,155,474,376,390,519,142,626,125,123,278,692,97,705,324,662,563,399,771,740,210,606,95,182,292,627,74,314,101,661,797,282,51,260,72,392,208,421,325,201,471,685,387,9,299,341,693,746,264,211,288,279,596,220,197,315,121,456,579,451,604,790,719,633,594,248,460,361,355,352,196,24,640,624,592,375,584,571,687,57,6,655,381,163,218,122,229,602,428,646,660,289,731,371,351,779,283,139,21,73,400,120,764,641,167,461,241,469,22,157,508,657,140,42,608,245,82,715,65,647,238,792,796,515,499,772,473,364,126,161,37,243,673,765,26,737,29,56,276,348,20,407,251,544,419,240,204,164,141,135,486,459,159,179,438,766,645,634,124,712,714,498,744,177,198,316,285,206,775,335,566,546,709,539,333,677,701,554,536,710,150,793,239,360,23,674,517,721,509,663,171,247,217,491,518,366,307,2,649,320,529,681,565,249,411,346,408,350,221,27,354,231,174,635,525,670,365,638,188,180,293,358,310,470,598,367,330,776,504,290,445,480,216,380,560,616,423,610,17,203,432,379,435,562,331,181,263,514,532,457,252,632,413,542,743,748,195,93,652,18,250,253,675,80,587,313,190,322,63,277,114,295,16,107,444,630,706,621,741,143,115,751,199,682,308,67,686,750,446,257,582,654,556,465,437,19,636,129,618,205,789,368,782,528,732,134,168,572,41,105,192,323,439,785,44,70,154,403,12,71,87,50,694,5,273,43,478,762,209,207,786,483,548,475,522,769,1,651,573,128,284,588,280,173,11,580,524,353,234,666,81,577,230,495,424,600,59,629,318,716,426,127,625,389,412,60,455,147,186,648,100,688,215,442,165,561,538,458,440,176,184,777,758,733,117,540,476,342,233,589,271,402,357,488,725,61,32,696,46,723,481,427,429,258,329,622,256,447,138,306,185,337,431,575,760,91,76,690,45,136,603,510,502,702,398,591,160,388,244,569,420,225,425,671,96,752,345,396,605,545,340,172,106,378,735,268,570,754,267,484,111,317,227,262,311,175,58,144,377,10,623,422,703,224,761,684,691,526,614,259,798,784,753,578,497,362,507,34,736,89,391,550,501,433,237,191,338,212,4,727,611,530,228,274,449,410,795,270,48,637,724,620,711,370,679,617,778,791,668,146,327,319,69,344,613,607,266,745,558,511,642,99,774,780,763,301,265,434,374,409,567,768,68,339,490,659,242,516,223,386,730,718,590,85,33,15,77,158,363,609,513,707,119,665,443,595,383,187,552,653,672,543,286,535,103,436,704,84,109,487,55,382,700,254,689,309,597,332,255,794,773,148,699,3,749,88,639,36,650,112,568,75,722,453,450,463,523,656,417,658,404,553,521,131,664,418,394,520,232,343,601,586,113,787,527,137,581,300,372,359,493,52,169,534,297,676,166,506,467,738,464,448,83,281,110,303,321,78,468,462,667,770,40,272,202,678,369,133,13,759,108,47,599,28,31,347,477,680,767,466,35,755,349,213,90,8,441,479,583,799,430,557,756,25,79,500,62,130,162,713,492,395,151,585,102,505,219,336,334,193,66,551,697,222,788,496,612,559,576,472,246,14]","arrowleft","true","0","2","213","800","[""0081_N0800_K0213_CLIQUE"",""0099_N0800_K0213_NOCLIQUE""]"
"","audio-keyboard-response","56","53637","0.0-54.0-0.0-1.0","","","","","","","","","","","","","","","","","","null","audio_feedback/right/coin01.mp3","null","","","","0","2","213","800","[""0081_N0800_K0213_CLIQUE"",""0099_N0800_K0213_NOCLIQUE""]"
"","canvas-keyboard-response","57","54807","0.0-55.0-0.0-0.0","","","","","","","","","","","","","","","","","","486","","arrowleft","[419,99,218,698,647,472,403,187,531,47,578,437,193,237,278,550,533,474,649,518,634,757,657,652,155,479,539,250,315,599,17,407,87,225,393,257,428,571,712,402,363,190,140,739,664,414,445,342,274,642,97,209,619,77,556,389,711,460,367,138,693,583,729,330,164,694,773,320,610,336,61,104,668,549,580,58,730,648,522,485,713,480,587,359,789,29,146,169,517,203,331,175,783,500,476,723,447,100,643,650,260,469,655,158,684,135,105,366,514,37,630,651,270,554,732,763,317,337,638,59,558,475,628,189,129,468,12,567,199,582,134,644,499,408,335,509,114,133,383,511,433,440,42,598,309,258,559,9,123,570,26,471,45,541,740,68,347,562,246,747,443,1,593,718,510,290,50,269,607,748,666,720,67,450,85,351,490,454,620,714,174,503,109,786,645,575,167,532,60,448,344,528,55,576,446,592,745,312,515,780,142,488,350,249,626,572,88,617,64,692,741,108,316,601,536,756,588,464,477,396,478,54,579,388,696,671,156,560,596,207,627,401,314,150,391,125,179,69,206,184,706,18,141,332,373,574,449,3,80,107,272,659,6,288,399,254,11,293,380,675,185,412,658,213,242,612,750,394,584,743,685,124,755,687,390,462,39,551,733,727,261,197,21,529,794,752,296,299,426,548,451,486,716,690,318,126,81,163,455,230,238,377,32,212,16,707,792,392,760,322,137,285,427,535,41,0,616,682,130,360,501,375,423,688,210,604,128,275,70,749,267,569,708,236,759,311,364,523,633,508,266,84,346,240,328,280,353,358,697,701,110,33,31,253,227,777,623,404,424,247,495,590,545,387,178,302,611,157,161,444,2,282,705,594,695,73,586,215,636,74,131,160,482,767,196,429,494,252,770,117,431,24,793,15,349,303,646,641,324,731,329,201,505,416,769,248,241,625,618,735,631,216,304,94,139,785,635,771,686,103,746,355,665,83,411,719,442,276,736,502,774,516,200,459,259,674,287,487,397,5,667,467,82,10,231,589,265,566,602,413,519,56,147,281,72,154,385,605,775,372,537,172,264,608,395,162,292,119,378,338,251,111,400,79,279,243,585,370,132,211,36,557,421,737,191,52,294,493,263,524,313,35,704,228,76,379,297,173,491,457,573,19,49,669,624,89,799,614,118,371,564,526,325,677,115,8,703,219,291,239,640,63,78,563,415,153,101,298,726,764,453,552,234,222,217,283,506,603,656,46,233,683,772,481,597,497,365,113,595,192,417,273,441,504,709,418,520,208,715,734,540,27,496,268,127,221,661,798,758,521,779,465,699,341,653,722,214,530,38,181,676,14,761,271,689,345,319,362,144,310,71,629,98,326,96,145,277,306,166,498,406,435,691,483,357,751,606,782,525,430,232,405,738,43,663,662,30,34,307,25,195,422,439,62,484,507,473,333,670,724,51,374,766,781,547,40,194,369,542,352,57,561,790,245,204,159,180,255,591,152,680,149,53,461,343,622,778,136,224,725,456,700,244,4,470,797,300,121,434,538,177,513,148,410,409,361,546,637,188,678,106,577,544,527,615,368,301,348,93,198,565,170,308,186,354,90,721,679,183,768,226,613,321,262,116,28,452,151,168,420,796,438,112,654,581,48,776,512,489,744,609,22,673,381,356,543,23,176,742,7,386,95,762,398,710,205,323,672,65,339,382,75,555,340,295,165,639,284,13,795,235,492,534,286,122,463,202,728,229,334,223,754,458,765,256,600,289,384,681,91,220,376,120,425,171,717,568,787,436,102,621,753,66,660,432,182,791,466,86,788,92,327,632,20,553,143,305,784,44,702]","arrowleft","true","0","3","213","800","[""0018_N0800_K0213_CLIQUE"",""0057_N0800_K0213_NOCLIQUE""]"
"","audio-keyboard-response","58","55817","0.0-55.0-0.0-1.0","","","","","","","","","","","","","","","","","","null","audio_feedback/right/coin01.mp3","null","","","","0","3","213","800","[""0018_N0800_K0213_CLIQUE"",""0057_N0800_K0213_NOCLIQUE""]"
"","canvas-keyboard-response","59","57126","0.0-56.0-0.0-0.0","","","","","","","","","","","","","","","","","","613","","arrowleft","[480,59,118,479,165,661,266,592,11,571,52,652,4,255,350,482,507,119,397,442,798,220,789,724,560,606,557,247,241,559,171,225,28,419,273,80,713,646,394,152,585,108,16,664,161,280,190,792,589,657,582,223,387,404,463,699,206,536,413,128,391,343,418,156,249,65,429,735,61,460,269,495,781,140,231,521,318,158,259,90,323,453,774,436,390,275,728,455,528,237,694,332,46,776,194,645,71,769,530,537,506,281,166,143,640,279,601,236,569,174,409,580,399,222,385,790,548,344,691,630,12,558,392,644,54,784,465,420,32,763,93,649,520,591,60,459,321,384,214,238,470,182,590,301,146,483,600,267,229,679,284,568,685,726,215,494,360,43,330,570,51,325,754,648,747,69,566,7,379,14,348,415,472,136,441,730,149,361,341,368,474,39,288,435,410,157,213,79,603,294,692,106,598,712,164,748,244,121,309,27,511,469,73,367,184,742,233,358,456,492,476,487,113,37,375,663,270,188,354,753,81,8,352,401,767,131,9,336,656,427,160,322,20,796,33,513,770,698,175,563,195,551,74,626,219,425,298,443,593,94,103,42,524,468,355,317,133,31,324,647,783,198,5,315,183,98,48,138,110,752,634,744,428,312,486,407,62,412,786,572,454,135,741,130,745,452,201,725,438,228,359,105,608,617,624,129,519,775,210,682,583,758,613,285,204,242,342,246,139,556,547,671,87,581,445,124,687,314,478,248,101,749,684,466,444,178,83,274,414,709,77,491,357,496,300,134,260,611,224,1,499,335,400,793,573,13,683,109,549,114,516,737,234,662,782,539,291,450,619,681,471,351,750,346,635,422,515,406,540,696,766,272,757,554,389,538,736,196,373,303,738,276,716,493,208,610,541,327,446,76,374,127,256,3,643,36,574,678,144,620,287,481,126,489,17,53,693,488,799,125,304,655,370,82,180,302,546,67,253,703,179,200,669,245,759,707,416,473,764,633,605,345,623,711,116,567,383,326,159,96,667,19,168,251,788,250,641,533,461,333,57,771,88,417,58,714,612,615,104,72,23,700,34,431,313,426,668,239,226,503,232,292,319,708,517,92,243,550,433,457,378,760,651,145,252,403,405,297,41,632,151,732,115,637,731,577,437,761,376,192,575,308,659,107,6,120,653,621,527,701,153,264,553,650,733,84,751,531,363,512,258,743,526,66,193,316,721,791,564,257,10,772,40,91,203,328,636,123,177,448,787,306,542,586,576,271,334,362,523,185,154,372,217,30,163,85,338,762,565,22,265,68,594,147,254,289,293,628,458,795,24,440,579,227,172,209,169,369,658,778,21,625,432,35,729,411,720,602,181,467,484,439,25,534,587,715,299,497,340,723,697,366,449,395,216,95,689,666,408,430,794,529,329,353,654,142,268,717,283,674,137,518,670,186,388,349,75,331,578,447,543,205,535,544,282,690,150,584,797,347,307,211,509,64,402,514,500,702,176,607,756,47,777,122,2,727,688,490,462,202,631,212,424,609,614,218,746,45,673,263,44,676,505,56,187,504,686,710,396,477,26,167,63,49,162,70,718,660,522,677,197,290,29,55,508,780,50,680,525,305,240,532,502,695,117,141,705,132,773,719,588,629,464,398,311,616,627,765,722,768,596,86,561,189,434,286,112,99,278,38,604,207,597,734,595,562,706,622,0,642,235,310,262,639,296,421,199,261,501,102,755,675,451,100,510,365,393,386,704,381,170,371,356,672,552,148,739,230,173,277,382,785,423,155,618,740,295,475,377,364,779,18,339,599,111,485,97,221,191,638,380,545,15,555,337,665,498,89,78,320]","arrowleft","true","0","4","187","800","[""0014_N0800_K0187_CLIQUE"",""0059_N0800_K0187_NOCLIQUE""]"
"","audio-keyboard-response","60","58117","0.0-56.0-0.0-1.0","","","","","","","","","","","","","","","","","","null","audio_feedback/right/coin01.mp3","null","","","","0","4","187","800","[""0014_N0800_K0187_CLIQUE"",""0059_N0800_K0187_NOCLIQUE""]"
"","canvas-keyboard-response","61","59213","0.0-57.0-0.0-0.0","","","","","","","","","","","","","","","","","","494","","arrowright","[773,511,792,247,699,28,216,620,749,770,519,107,143,690,387,701,640,538,708,61,730,707,23,275,652,671,418,393,91,118,213,231,577,417,583,546,222,639,377,347,6,122,624,322,615,151,695,796,409,610,334,391,474,674,12,345,733,533,229,575,252,702,170,100,69,526,326,224,424,318,466,338,422,73,582,665,25,480,287,74,249,797,380,0,30,759,571,634,444,446,653,293,778,725,419,167,164,465,580,103,766,742,185,254,142,145,765,524,234,119,722,335,547,207,324,88,638,758,1,426,58,227,454,539,112,129,172,552,163,578,689,26,520,704,581,235,561,688,414,523,486,710,453,527,125,183,757,416,66,503,138,605,501,482,90,283,197,635,343,341,535,769,713,463,760,703,421,303,670,285,559,629,432,133,630,493,301,427,384,679,4,225,210,299,354,734,323,513,654,648,136,256,740,135,496,563,260,96,332,161,363,487,491,569,153,447,108,403,98,258,86,319,214,106,597,243,123,541,540,595,555,452,294,402,116,77,677,166,373,567,219,415,208,36,406,720,95,529,382,241,360,19,82,601,281,17,788,576,284,544,748,65,646,495,72,781,240,306,462,369,764,244,586,75,647,184,593,507,517,165,315,312,198,127,717,149,694,200,532,276,38,381,126,657,257,80,203,286,41,732,791,221,747,130,376,54,750,242,443,280,458,407,385,715,774,117,622,45,22,784,423,292,641,392,43,27,20,585,274,564,596,10,350,357,672,156,261,317,682,591,389,477,612,404,470,3,148,81,333,89,643,7,502,305,29,204,265,655,727,35,255,405,37,772,498,175,84,99,288,721,790,731,87,21,705,658,505,47,556,316,361,442,637,278,431,388,609,737,64,735,450,719,761,182,217,632,728,348,697,795,48,562,744,201,711,430,448,550,49,756,560,270,367,365,743,31,616,105,587,775,139,190,160,178,68,490,344,712,420,189,668,212,542,67,141,531,211,14,379,475,468,691,177,352,500,557,786,339,146,545,633,469,296,613,52,656,34,110,272,642,617,290,396,33,645,330,723,429,589,492,248,202,42,264,39,223,226,464,445,516,678,76,144,627,168,412,410,395,741,101,297,584,179,456,32,267,8,273,368,329,238,543,230,508,425,485,698,331,205,157,111,314,150,140,777,59,215,522,780,618,554,549,55,441,631,680,295,394,132,718,85,602,644,515,232,147,24,174,484,92,789,342,401,374,579,621,358,471,435,46,476,724,351,767,478,461,649,60,488,472,599,514,534,250,9,440,662,449,155,50,437,289,262,660,192,573,768,667,439,604,714,455,228,762,438,53,176,386,51,706,308,259,574,114,309,619,209,251,664,253,787,754,499,62,696,370,673,603,13,375,336,799,383,236,525,566,298,681,302,763,512,683,362,115,356,636,282,128,277,745,518,590,83,738,729,327,607,553,551,113,199,271,693,397,328,489,798,15,237,565,269,11,390,650,400,158,56,753,320,307,194,776,625,121,152,608,279,104,188,93,311,195,220,736,291,18,509,398,592,366,481,154,159,325,779,651,746,359,173,97,506,606,626,598,57,771,467,349,628,614,44,611,372,588,79,460,16,594,63,716,434,548,364,408,782,5,186,709,134,659,411,310,794,433,337,537,171,497,206,692,78,169,399,300,263,793,572,218,346,483,378,187,751,428,726,196,510,353,661,371,558,459,436,246,245,494,521,570,676,687,785,70,162,266,666,528,40,131,304,239,752,675,700,684,479,181,530,193,2,755,504,739,355,137,686,180,124,71,340,783,233,623,109,191,669,568,120,457,473,663,685,102,413,94,536,600,321,313,268,451]","arrowright","true","0","5","187","800","[""0052_N0800_K0187_NOCLIQUE"",""0043_N0800_K0187_CLIQUE""]"
"","audio-keyboard-response","62","60217","0.0-57.0-0.0-1.0","","","","","","","","","","","","","","","","","","null","audio_feedback/right/coin01.mp3","null","","","","0","5","187","800","[""0052_N0800_K0187_NOCLIQUE"",""0043_N0800_K0187_CLIQUE""]"
"","canvas-keyboard-response","63","61402","0.0-58.0-0.0-0.0","","","","","","","","","","","","","","","","","","740","","arrowright","[38,604,363,43,612,393,134,497,460,130,504,715,238,87,641,544,212,517,673,448,74,97,591,478,121,727,615,769,735,311,292,613,150,415,417,436,651,3,66,236,623,471,273,293,688,692,699,696,1,159,135,297,614,73,315,784,535,518,426,367,196,665,757,185,305,149,446,768,691,571,649,10,534,184,117,438,327,321,48,170,193,270,498,408,310,787,743,282,582,221,34,546,269,26,551,252,499,287,794,597,506,383,11,59,153,361,440,694,519,338,404,69,351,7,187,777,375,463,140,19,91,413,681,395,386,340,288,556,27,469,490,631,798,385,129,302,731,496,775,423,634,526,657,610,354,451,789,260,722,402,414,668,698,577,122,453,99,322,629,621,443,46,607,303,61,183,422,131,274,226,454,18,477,416,388,489,548,639,398,606,307,536,431,174,630,762,389,67,224,475,528,492,178,168,374,530,101,118,433,744,640,503,751,737,493,512,409,632,346,578,364,107,390,0,547,353,154,566,332,380,456,325,54,348,251,447,667,483,137,192,230,491,182,330,360,188,142,494,370,661,589,680,202,677,76,4,449,89,421,331,781,543,461,68,608,165,365,28,163,622,397,396,280,14,624,462,455,522,266,442,241,312,268,726,126,123,279,85,764,411,109,403,549,175,713,406,790,132,581,211,466,682,197,774,128,245,611,684,452,555,437,155,561,108,382,243,586,371,255,349,64,424,195,441,94,656,352,712,642,476,779,418,588,626,707,473,435,633,207,381,700,745,119,167,133,752,602,231,306,248,194,750,487,500,791,276,57,704,95,281,275,523,35,776,291,738,110,359,358,283,771,83,233,401,100,645,90,799,88,350,284,319,653,756,309,754,285,120,637,222,753,687,333,509,250,717,286,17,394,201,724,725,481,320,228,662,362,44,474,554,181,511,391,152,254,70,62,507,728,432,139,686,515,572,329,573,264,373,239,485,143,355,164,5,480,316,39,676,86,289,705,308,324,136,445,538,334,227,567,208,525,766,300,658,317,138,162,678,114,199,342,169,29,180,427,643,25,660,299,258,22,783,158,223,58,49,486,552,111,574,747,514,79,709,562,693,648,372,204,465,425,501,98,157,376,723,559,710,718,272,659,392,672,82,106,470,171,520,209,377,6,104,564,685,419,33,714,502,531,444,160,669,45,144,116,235,527,533,655,702,652,670,671,205,247,203,24,739,166,173,532,683,540,734,400,13,616,729,628,410,796,344,240,620,594,151,792,295,148,464,206,318,20,439,113,541,638,225,706,172,60,265,772,47,146,697,242,115,105,759,399,278,780,782,220,42,542,786,51,328,323,748,378,579,253,716,674,189,21,72,237,32,96,103,345,356,56,81,217,558,177,730,545,721,689,749,675,495,36,758,539,646,215,458,337,719,234,249,763,428,755,50,770,569,2,296,41,510,343,71,429,761,179,198,644,488,387,357,563,765,244,788,583,690,263,191,341,124,147,598,434,80,369,339,720,459,584,505,219,708,736,636,785,576,262,468,77,635,778,405,271,141,703,65,596,793,580,609,326,102,213,650,679,521,557,603,210,590,742,40,513,746,619,216,585,472,412,12,568,732,78,37,301,335,570,760,740,664,482,75,200,186,767,93,733,304,53,15,508,663,384,246,617,368,565,176,214,420,741,63,232,366,695,31,516,529,553,145,336,484,666,161,587,84,259,218,599,229,407,450,575,379,560,701,277,156,16,797,601,290,112,592,267,52,605,190,467,600,55,294,550,23,92,261,773,347,125,8,30,595,479,256,457,654,618,711,298,647,795,430,627,9,537,593,313,524,625,127,257,314]","arrowright","true","0","6","173","800","[""0097_N0800_K0173_NOCLIQUE"",""0047_N0800_K0173_CLIQUE""]"
"","audio-keyboard-response","64","62397","0.0-58.0-0.0-1.0","","","","","","","","","","","","","","","","","","null","audio_feedback/right/coin01.mp3","null","","","","0","6","173","800","[""0097_N0800_K0173_NOCLIQUE"",""0047_N0800_K0173_CLIQUE""]"
"","canvas-keyboard-response","65","63654","0.0-59.0-0.0-0.0","","","","","","","","","","","","","","","","","","537","","arrowright","[90,568,452,324,652,687,564,442,363,715,29,496,286,755,624,35,120,182,780,631,144,642,490,520,170,60,411,241,200,466,400,20,514,316,555,418,628,626,739,223,731,247,105,510,96,444,350,604,717,216,320,405,306,760,763,309,549,301,56,269,325,721,319,427,567,489,467,192,267,257,277,561,261,786,661,304,577,41,451,406,207,781,487,552,49,372,548,732,367,145,289,700,440,446,779,98,118,285,783,521,131,253,748,794,793,176,576,151,125,796,323,714,690,704,202,658,201,62,472,326,328,270,767,603,648,784,703,556,280,429,387,586,3,699,178,71,128,789,370,164,617,407,79,110,39,12,710,454,593,443,726,93,143,759,790,678,233,44,88,312,630,481,645,399,709,272,254,16,10,694,408,660,77,281,736,674,284,675,746,596,50,425,228,197,147,299,158,543,437,602,589,547,369,672,610,212,775,636,475,240,179,772,766,214,351,702,497,513,194,614,380,148,136,251,224,103,236,344,592,761,536,381,447,129,581,428,266,785,222,754,265,230,298,611,493,762,654,749,91,155,730,701,463,43,353,72,336,385,797,307,569,288,484,32,318,238,276,116,782,117,705,566,584,362,529,620,246,84,606,575,745,112,26,557,401,553,311,505,455,524,5,373,644,538,551,239,226,681,335,175,376,667,99,204,696,516,735,134,205,764,716,366,361,707,23,27,441,263,765,486,488,527,208,394,52,503,358,537,509,562,597,338,317,138,643,245,483,383,393,574,278,659,622,38,473,728,542,17,558,646,47,382,723,206,295,607,330,665,554,268,9,706,619,713,585,404,346,711,243,327,708,313,616,375,471,157,177,310,229,242,18,187,282,100,798,67,123,37,113,609,104,124,612,195,95,333,343,378,580,275,507,13,594,126,388,352,188,657,180,274,291,541,386,777,181,532,396,432,279,273,293,357,397,340,613,168,76,115,769,250,48,51,771,75,97,670,68,237,122,339,500,46,296,315,758,133,647,384,641,468,423,271,314,252,141,341,153,598,21,80,478,290,515,787,718,183,355,255,526,149,342,42,59,545,402,725,414,774,773,211,172,579,139,649,61,259,727,33,512,522,190,439,677,130,747,294,688,476,85,729,734,668,66,167,692,221,724,560,753,15,368,300,305,108,588,629,738,218,686,506,302,720,719,248,571,546,460,479,799,364,7,528,409,778,374,438,421,752,615,322,53,461,287,25,389,664,583,722,359,480,332,219,621,682,424,64,608,174,135,142,770,413,650,448,663,417,453,137,161,683,474,345,697,477,196,82,563,742,331,469,618,795,159,426,433,679,102,504,435,63,283,511,482,154,744,459,430,539,525,220,169,58,191,685,78,81,462,666,419,152,213,741,391,203,57,416,217,410,601,4,498,689,24,691,0,458,740,502,550,712,65,132,365,534,508,733,398,109,162,676,354,573,256,457,227,347,635,743,101,6,450,225,189,662,595,14,495,751,640,600,519,693,156,587,166,297,249,559,262,165,83,449,127,501,680,303,171,591,634,235,86,215,637,523,231,356,22,415,605,623,582,92,184,234,653,173,544,140,638,791,160,119,55,360,431,737,792,121,292,111,695,70,31,198,244,599,412,756,494,348,570,106,395,8,30,492,491,456,258,334,1,590,776,199,518,146,750,74,788,535,34,655,684,639,465,329,114,517,308,45,28,94,632,420,2,371,572,470,403,379,349,232,565,163,186,531,673,185,87,698,392,89,669,651,757,671,422,321,40,390,36,625,377,627,69,150,434,768,209,540,485,656,54,260,578,19,633,464,264,210,337,436,530,193,107,533,11,73,445,499]","arrowright","true","0","7","173","800","[""0029_N0800_K0173_NOCLIQUE"",""0083_N0800_K0173_CLIQUE""]"
"","audio-keyboard-response","66","64637","0.0-59.0-0.0-1.0","","","","","","","","","","","","","","","","","","null","audio_feedback/right/coin01.mp3","null","","","","0","7","173","800","[""0029_N0800_K0173_NOCLIQUE"",""0083_N0800_K0173_CLIQUE""]"
"","canvas-keyboard-response","67","65933","0.0-60.0-0.0-0.0","","","","","","","","","","","","","","","","","","752","","arrowleft","[175,559,10,313,548,103,661,659,352,14,523,669,451,137,121,21,331,146,431,195,307,204,217,347,40,555,85,144,541,334,135,372,614,66,575,32,579,449,590,745,567,478,711,685,318,57,44,560,359,16,490,214,379,18,612,450,349,578,417,499,665,183,717,93,247,361,678,731,161,780,589,31,409,215,128,150,503,680,721,684,571,511,325,428,317,788,643,759,445,505,88,170,525,655,707,181,288,99,432,42,157,262,420,141,543,130,775,351,705,564,206,322,303,164,255,557,407,168,378,186,507,782,59,435,364,679,545,461,761,771,639,208,770,388,784,644,698,100,683,330,798,765,296,552,617,107,266,489,133,257,86,79,495,148,631,275,80,521,496,412,68,138,736,109,169,120,17,706,243,182,377,540,577,33,446,232,84,360,8,384,681,777,460,176,184,35,672,389,528,689,769,648,11,500,605,259,166,20,651,421,298,101,403,581,213,715,452,498,531,193,238,455,357,415,537,173,110,509,344,708,335,207,692,187,709,616,675,77,15,443,437,434,386,766,355,72,36,482,702,155,233,393,63,493,787,663,573,6,203,396,514,394,762,690,600,583,271,397,305,277,751,145,551,592,358,216,118,251,39,95,340,237,196,250,411,224,422,719,436,593,178,785,595,76,23,633,381,657,136,799,306,549,30,53,0,627,205,265,626,354,416,98,353,556,760,249,438,337,158,70,160,346,45,309,297,723,310,795,553,369,43,253,131,139,433,610,733,597,282,607,772,419,513,516,218,223,280,341,225,192,576,299,219,637,463,542,524,591,104,686,442,550,38,401,696,565,666,508,2,327,248,742,368,522,534,677,142,210,123,483,444,526,756,236,488,791,744,664,231,703,701,779,235,558,286,602,122,132,722,294,584,520,127,440,174,781,41,12,281,269,287,753,725,342,618,676,491,149,459,370,267,154,268,623,755,632,284,456,621,486,783,400,574,151,343,244,391,424,390,418,497,89,580,366,620,561,693,395,115,209,797,604,326,603,385,256,227,126,54,599,406,285,738,302,712,743,649,171,404,662,258,375,332,34,94,333,399,764,625,716,293,670,300,776,518,239,704,363,49,124,338,682,634,69,747,536,345,92,410,316,572,697,111,485,202,533,688,582,517,113,754,519,312,527,356,5,606,700,273,465,774,74,414,467,480,48,321,156,159,96,188,628,622,786,383,466,172,506,24,25,367,691,667,116,143,91,429,635,61,221,646,652,624,735,60,254,448,283,757,638,162,319,510,22,699,190,58,674,291,588,594,229,279,636,720,587,191,619,315,608,270,729,790,601,547,469,365,97,668,117,492,458,598,252,398,55,50,796,19,81,56,473,289,562,339,515,611,494,654,563,102,462,301,728,501,470,167,240,134,336,320,425,26,447,615,778,29,246,660,201,194,52,479,748,108,476,222,129,329,106,119,767,746,671,382,230,185,292,323,3,439,730,727,481,51,570,278,28,200,546,740,471,477,475,295,75,474,741,749,374,37,4,718,308,737,641,153,314,228,274,426,87,512,568,457,544,311,197,453,328,67,566,125,402,713,687,472,656,373,695,177,78,27,630,7,405,464,739,226,73,413,502,220,653,260,609,261,245,535,763,468,376,647,234,180,380,596,569,179,392,212,726,650,62,529,264,484,773,211,199,640,105,387,710,64,147,71,362,324,454,90,613,9,538,198,290,165,789,304,263,348,694,792,793,504,114,427,241,530,794,645,140,1,539,629,714,750,46,642,732,82,189,276,242,758,673,13,163,430,112,554,152,724,734,371,441,768,65,586,272,487,47,658,585,408,752,350,532,83,423]","arrowleft","true","0","8","160","800","[""0056_N0800_K0160_CLIQUE"",""0008_N0800_K0160_NOCLIQUE""]"
"","audio-keyboard-response","68","66917","0.0-60.0-0.0-1.0","","","","","","","","","","","","","","","","","","null","audio_feedback/right/coin01.mp3","null","","","","0","8","160","800","[""0056_N0800_K0160_CLIQUE"",""0008_N0800_K0160_NOCLIQUE""]"
"","canvas-keyboard-response","69","68014","0.0-61.0-0.0-0.0","","","","","","","","","","","","","","","","","","543","","arrowleft","[338,142,726,488,590,1,592,195,223,790,319,4,345,227,682,427,277,341,399,271,680,625,788,283,698,322,618,697,619,638,689,312,573,463,584,582,724,43,150,731,436,85,266,461,487,99,176,692,672,775,621,693,606,390,54,583,481,785,82,329,733,562,539,96,119,740,612,313,393,68,141,295,707,602,789,261,132,164,485,600,242,388,597,686,116,233,557,595,206,430,308,683,498,189,423,262,729,529,45,397,115,12,742,477,495,139,171,275,128,367,178,226,547,604,309,629,410,405,473,484,100,499,140,104,58,175,163,147,616,291,392,755,224,335,73,433,260,298,709,6,93,122,636,746,503,173,614,300,745,608,620,644,46,523,3,637,42,401,63,555,760,553,465,777,15,617,350,66,544,667,75,758,385,254,236,346,631,306,412,696,20,134,311,580,406,10,753,632,372,791,327,35,741,701,77,214,243,443,645,451,776,586,70,482,333,321,572,475,220,353,442,71,694,154,374,317,504,459,87,460,279,588,441,519,420,666,14,330,646,437,39,434,336,357,492,661,578,213,65,377,48,440,26,381,445,716,197,355,506,458,130,737,784,284,202,674,264,369,135,22,348,359,704,668,304,297,34,768,559,89,201,681,318,541,151,339,145,315,687,649,366,773,470,647,512,630,596,691,225,51,153,376,457,516,205,190,556,501,747,196,274,215,502,18,158,489,263,446,282,522,235,413,662,112,679,793,786,209,361,194,505,675,464,258,466,640,633,589,702,398,659,370,455,212,2,98,364,334,36,31,302,219,84,723,609,626,185,712,27,783,718,11,411,439,628,483,431,769,766,781,521,273,186,480,657,307,351,639,771,402,380,181,449,700,136,293,756,438,426,166,352,772,342,727,565,221,56,695,94,571,710,560,587,524,7,155,326,607,651,577,37,41,53,799,660,567,5,199,168,165,310,699,290,579,730,414,289,780,725,513,706,474,114,208,650,69,419,38,127,270,462,779,635,435,64,156,601,761,537,222,97,424,24,198,383,603,210,251,180,240,678,531,360,389,496,50,454,432,218,143,688,188,169,28,561,320,735,259,404,530,102,33,81,91,384,510,744,47,174,365,794,246,8,29,533,750,267,332,177,113,705,149,407,172,551,88,131,528,49,394,95,717,249,285,230,448,576,552,105,751,754,652,78,624,120,409,444,314,144,17,752,382,286,677,101,739,237,229,234,305,19,80,517,415,296,160,472,508,368,764,550,170,72,797,62,447,711,722,456,83,796,469,281,450,416,743,511,152,720,494,491,540,248,663,486,670,328,59,400,527,232,554,767,507,187,792,703,121,268,371,526,736,108,479,269,575,514,653,252,581,453,325,92,471,55,408,774,671,748,599,86,643,257,211,133,656,124,613,192,749,564,500,715,378,763,558,676,30,265,217,373,344,125,425,452,627,598,216,467,294,566,569,673,714,655,623,109,534,563,32,669,146,542,184,231,191,74,161,52,418,379,239,162,287,622,396,354,759,713,403,324,732,40,179,684,497,358,391,107,244,21,615,515,708,536,299,303,641,129,110,525,518,183,340,478,67,157,574,25,276,421,253,757,770,203,316,585,428,61,642,123,288,476,375,138,719,247,568,256,347,0,250,356,787,762,103,238,798,549,278,690,493,126,301,611,520,292,60,245,362,594,593,545,387,546,535,532,117,734,490,548,591,782,9,570,721,664,543,79,90,118,255,44,241,323,395,509,200,182,658,137,111,422,634,76,429,605,654,204,468,280,57,363,23,795,386,272,343,349,665,337,16,728,159,765,207,13,778,738,610,648,538,148,685,417,106,193,331,228,167]","arrowright","false","0","9","160","800","[""0066_N0800_K0160_NOCLIQUE"",""0011_N0800_K0160_CLIQUE""]"
"","audio-keyboard-response","70","69037","0.0-61.0-0.0-1.0","","","","","","","","","","","","","","","","","","null","audio_feedback/wrong/error01.mp3","null","","","","0","9","160","800","[""0066_N0800_K0160_NOCLIQUE"",""0011_N0800_K0160_CLIQUE""]"
"","canvas-keyboard-response","71","69969","0.0-62.0-0.0-0.0","","","","","","","","","","","","","","","","","","433","","arrowright","[403,495,330,634,224,67,80,223,388,61,73,790,552,180,238,186,630,491,654,635,100,233,188,398,555,175,447,324,274,297,35,236,785,263,530,117,488,218,537,752,554,249,562,381,190,44,370,502,290,284,130,206,620,222,426,580,627,205,338,799,539,285,675,207,298,174,132,232,383,725,434,62,631,452,775,29,757,503,470,58,662,673,572,328,531,601,475,545,344,306,201,795,26,668,517,664,191,196,538,633,737,342,255,176,380,110,242,296,553,340,345,691,687,766,162,439,237,97,510,745,522,393,450,624,448,726,339,315,382,628,119,311,360,202,47,245,158,353,663,57,103,409,86,65,154,138,64,283,609,212,641,366,9,126,276,559,289,469,66,20,258,753,3,486,211,761,277,4,15,541,181,748,363,295,573,318,170,648,655,472,79,710,385,60,112,683,707,374,129,716,416,209,615,54,282,590,142,679,14,102,68,579,125,724,432,305,214,714,701,294,760,95,155,22,92,769,231,304,449,676,300,506,656,256,796,667,544,678,474,55,25,459,587,440,457,567,36,692,115,672,685,397,680,688,208,566,476,643,427,108,76,604,721,508,603,75,167,82,227,28,653,192,526,743,578,568,331,612,606,700,83,730,626,613,533,549,514,658,152,704,750,742,120,114,269,308,649,240,719,147,241,280,137,63,116,270,430,390,127,189,468,173,375,246,407,6,275,660,534,484,372,765,131,786,512,378,523,185,34,712,524,228,413,88,465,594,498,396,151,651,94,684,291,281,755,564,483,513,51,657,666,335,597,334,767,490,505,477,740,772,665,749,252,428,611,723,453,471,171,532,139,93,425,718,525,177,614,253,619,591,546,408,738,456,156,271,121,528,354,420,671,632,272,23,424,762,273,788,135,729,84,134,225,193,197,444,560,329,160,771,337,260,203,446,636,442,217,708,59,697,169,243,622,49,558,319,404,776,149,358,161,32,542,288,415,556,699,569,451,18,412,248,756,577,250,610,204,323,550,322,797,561,368,463,302,194,346,521,747,384,686,90,401,698,321,548,661,226,150,111,166,783,793,496,213,547,576,286,482,265,702,287,645,21,377,146,220,540,584,585,371,625,179,98,739,405,421,247,592,438,787,418,621,705,56,251,436,369,706,27,387,10,481,310,650,303,184,435,123,195,616,364,348,87,71,441,43,5,141,543,48,681,652,693,261,431,386,351,316,583,535,605,17,113,600,727,677,30,529,417,443,504,445,640,489,19,494,480,168,99,12,159,332,464,257,199,313,736,235,574,124,798,361,163,499,551,105,598,336,460,50,327,582,183,647,262,264,682,637,758,768,607,563,229,497,557,642,350,198,462,794,234,91,759,347,402,536,70,46,487,596,519,391,669,423,588,104,715,516,128,389,230,770,164,595,638,410,42,422,599,182,399,39,709,509,433,629,78,299,751,267,41,696,411,518,266,279,244,349,455,37,689,118,33,314,268,356,479,485,172,520,507,575,301,478,376,343,674,7,333,406,307,74,53,778,694,309,143,24,764,570,373,357,109,593,106,325,454,466,210,96,178,746,711,359,38,744,728,144,720,731,122,429,219,565,784,608,458,735,741,581,52,278,789,659,148,352,639,40,367,602,2,586,780,492,107,773,1,392,293,414,473,89,239,467,326,200,500,355,646,0,792,81,31,362,437,571,777,703,72,45,722,779,187,157,292,511,732,11,165,644,215,690,259,527,254,763,733,791,13,754,77,133,461,734,781,501,589,618,782,623,69,617,395,153,341,85,670,320,695,394,717,216,379,221,136,400,493,515,774,140,312,365,101,8,419,16,713,145,317]","arrowright","true","0","10","147","800","[""0088_N0800_K0147_NOCLIQUE"",""0095_N0800_K0147_CLIQUE""]"
"","audio-keyboard-response","72","70957","0.0-62.0-0.0-1.0","","","","","","","","","","","","","","","","","","null","audio_feedback/right/coin01.mp3","null","","","","0","10","147","800","[""0088_N0800_K0147_NOCLIQUE"",""0095_N0800_K0147_CLIQUE""]"
"","canvas-keyboard-response","73","72211","0.0-63.0-0.0-0.0","","","","","","","","","","","","","","","","","","773","","arrowleft","[9,378,730,244,737,119,543,546,426,129,340,655,41,167,459,746,331,449,49,358,311,714,474,520,357,601,173,106,350,489,446,132,688,182,414,360,367,507,695,335,577,566,342,531,201,158,502,170,596,262,475,779,169,616,398,663,91,587,792,15,508,121,384,480,763,224,748,56,701,734,289,251,98,319,203,215,395,408,484,422,327,483,177,73,363,445,8,87,506,729,11,318,573,229,664,221,635,332,192,433,90,682,657,60,432,661,636,336,669,240,304,628,783,527,689,373,768,96,579,396,309,654,164,585,355,178,700,46,139,42,793,418,773,401,351,437,720,374,644,479,149,334,430,487,135,247,226,161,481,607,320,665,470,279,406,24,510,559,594,239,795,59,708,529,604,300,387,252,205,440,705,759,312,179,710,505,584,376,625,50,210,159,242,329,684,672,69,245,417,26,273,431,394,233,645,99,263,316,460,323,151,733,260,614,466,202,402,777,124,265,521,762,122,495,399,365,522,186,425,438,511,549,219,647,270,605,268,687,313,372,12,325,476,21,44,515,603,629,146,722,328,656,580,339,523,92,673,514,290,652,728,280,602,512,627,223,424,35,526,72,567,258,256,171,206,278,267,228,547,5,209,361,642,47,63,272,541,16,712,583,766,17,776,552,785,439,287,333,347,271,0,187,150,261,471,82,534,190,120,551,578,723,556,95,778,598,10,392,326,540,237,709,249,421,467,78,451,538,243,671,427,14,609,798,3,503,539,330,93,452,324,62,569,61,420,54,45,413,199,369,379,679,492,403,491,496,317,284,612,231,619,690,692,337,230,485,255,27,133,591,623,166,423,293,65,553,286,646,516,698,760,532,4,704,282,168,751,234,683,352,386,207,463,208,409,175,353,458,788,281,6,455,377,691,678,595,371,648,618,79,428,37,117,693,721,542,410,141,275,125,473,67,163,448,707,735,77,225,545,633,769,563,620,731,20,315,22,713,599,608,630,314,143,739,382,364,764,558,103,536,277,102,465,39,572,174,385,744,775,537,643,142,715,765,116,632,702,727,105,750,301,362,456,264,76,84,703,680,415,472,564,513,88,71,184,675,232,753,111,183,1,450,626,571,747,235,662,666,469,130,297,53,699,196,292,755,429,127,442,781,774,740,306,624,134,436,568,548,288,305,211,557,676,388,565,592,696,157,640,615,787,38,138,197,31,172,453,716,283,443,554,770,29,343,131,638,674,576,772,738,383,419,308,754,454,241,227,617,668,397,500,176,780,140,653,486,13,154,55,457,767,246,126,200,276,302,606,152,649,109,291,493,610,266,193,298,7,354,274,745,524,188,28,294,412,213,165,19,613,299,393,560,303,797,25,40,464,796,181,611,791,494,794,651,23,86,113,248,101,416,144,711,322,114,622,441,296,100,667,544,789,641,650,51,366,57,518,550,790,254,75,742,344,153,631,112,519,621,685,108,136,447,198,434,468,145,593,444,499,637,107,404,391,259,253,194,220,639,180,97,749,756,80,368,375,110,48,345,346,214,589,718,115,123,488,498,64,530,574,570,725,137,380,148,407,34,295,478,185,497,58,405,581,757,525,66,686,381,218,482,726,477,212,236,310,588,597,761,732,338,719,582,590,389,370,411,634,517,743,717,799,89,555,162,752,257,307,533,528,509,189,461,348,269,321,104,600,706,238,118,741,724,736,504,435,677,160,36,81,2,341,349,128,659,658,562,74,204,156,697,490,32,400,561,43,94,390,586,195,191,83,782,660,786,359,70,147,670,285,758,222,30,694,250,52,771,68,575,462,85,217,535,18,681,155,784,33,216,356,501]","arrowleft","true","0","11","147","800","[""0083_N0800_K0147_CLIQUE"",""0087_N0800_K0147_NOCLIQUE""]"
"","audio-keyboard-response","74","73197","0.0-63.0-0.0-1.0","","","","","","","","","","","","","","","","","","null","audio_feedback/right/coin01.mp3","null","","","","0","11","147","800","[""0083_N0800_K0147_CLIQUE"",""0087_N0800_K0147_NOCLIQUE""]"
"","canvas-keyboard-response","75","74164","0.0-64.0-0.0-0.0","","","","","","","","","","","","","","","","","","462","","arrowleft","[631,345,430,141,674,327,340,596,635,418,496,539,661,362,209,124,722,319,154,115,47,130,395,84,524,494,483,439,44,544,664,311,190,381,184,70,229,711,712,102,677,414,103,720,507,501,48,779,626,462,336,529,303,778,372,601,68,772,347,140,613,353,371,175,314,641,295,790,456,763,63,355,251,206,80,276,513,733,407,296,495,410,602,310,307,799,473,186,632,530,706,555,460,137,508,500,644,651,789,262,270,572,465,87,787,798,127,337,255,207,215,402,642,233,119,486,365,686,49,665,717,543,452,429,552,112,332,59,99,609,163,269,713,343,519,50,367,645,580,271,755,479,170,516,490,403,477,368,19,177,705,145,217,679,238,279,328,182,346,83,142,106,451,350,146,376,104,313,245,562,385,9,126,422,133,569,79,228,31,54,566,672,242,792,202,666,777,698,449,6,36,152,587,761,568,464,770,324,335,404,138,40,386,624,308,267,650,620,339,593,426,166,67,503,172,793,616,321,193,441,136,634,716,17,179,630,10,523,729,24,514,436,471,764,230,709,673,309,288,92,107,623,196,55,109,627,603,41,412,390,280,727,52,253,263,660,322,306,281,392,715,608,148,290,443,615,129,710,272,77,579,746,356,383,159,527,246,113,329,98,283,476,315,64,316,89,21,259,382,293,782,149,344,212,73,511,232,117,254,406,510,32,150,360,700,607,489,570,90,37,370,341,375,759,491,266,220,78,101,748,116,540,292,330,180,203,604,747,532,797,302,684,670,732,558,488,440,482,122,704,703,153,363,33,43,352,767,618,388,548,4,7,192,719,743,250,199,754,167,573,783,409,213,438,185,595,542,398,427,528,155,794,53,594,236,675,204,447,378,535,18,557,15,450,773,261,96,121,26,88,741,120,416,745,334,742,143,379,515,95,766,678,191,405,589,13,171,3,769,294,681,97,612,697,611,274,682,638,157,765,323,1,285,393,643,29,264,454,781,108,389,509,629,396,708,354,34,134,784,739,667,517,326,198,685,240,338,663,156,547,788,305,556,689,522,561,174,268,694,289,237,437,110,221,659,2,565,195,248,397,575,654,758,284,563,287,65,628,139,158,12,600,20,286,531,730,459,498,619,751,299,100,541,74,487,331,474,348,582,493,752,114,546,417,394,647,357,223,160,737,358,25,662,46,550,399,791,446,688,599,774,583,239,757,669,744,235,222,504,377,420,176,69,463,189,86,622,128,625,485,735,218,216,408,795,39,62,105,162,132,750,468,244,559,639,66,373,780,457,753,534,424,731,425,776,621,359,636,265,325,5,577,581,16,680,411,545,161,291,690,576,304,300,598,226,400,415,434,169,227,738,219,342,380,640,144,188,320,702,574,723,42,461,391,762,173,453,768,707,257,369,497,536,205,56,610,525,725,14,658,480,499,696,526,183,586,432,419,554,433,466,633,467,512,699,249,518,231,125,208,435,282,653,201,210,421,374,214,243,695,61,401,11,333,606,671,656,118,775,181,475,85,470,260,448,51,413,297,387,27,151,505,82,273,756,93,472,200,131,366,35,301,502,455,168,23,469,298,537,444,211,578,676,318,564,506,60,278,247,241,571,683,0,312,553,94,164,71,597,605,771,592,567,349,718,194,701,584,492,691,275,187,649,361,428,614,749,75,533,72,714,588,58,796,521,786,178,458,317,652,30,8,258,225,364,655,724,45,351,484,668,785,478,442,277,147,590,734,551,617,252,646,657,760,740,111,591,549,165,431,38,692,197,520,693,445,481,22,123,726,560,637,736,687,538,648,585,256,224,423,57,91,28,135,728,721,81,384,234,76]","arrowleft","true","0","12","133","800","[""0090_N0800_K0133_CLIQUE"",""0048_N0800_K0133_NOCLIQUE""]"
"","audio-keyboard-response","76","75157","0.0-64.0-0.0-1.0","","","","","","","","","","","","","","","","","","null","audio_feedback/right/coin01.mp3","null","","","","0","12","133","800","[""0090_N0800_K0133_CLIQUE"",""0048_N0800_K0133_NOCLIQUE""]"
"","canvas-keyboard-response","77","76390","0.0-65.0-0.0-0.0","","","","","","","","","","","","","","","","","","788","","arrowleft","[2,750,39,677,179,476,340,684,128,133,165,466,249,548,192,534,694,357,205,541,648,113,304,199,214,764,715,459,78,482,215,412,258,761,241,441,505,486,436,228,516,0,740,344,8,509,547,665,418,268,458,515,417,22,82,360,470,97,639,286,781,481,124,372,185,378,722,623,289,607,492,57,296,153,493,243,239,624,164,147,34,696,756,579,38,292,732,652,40,323,211,622,405,51,11,616,421,474,662,655,718,393,462,386,527,480,1,127,244,495,161,219,41,577,191,218,437,635,467,79,319,657,330,226,526,62,168,507,149,576,551,774,465,468,397,656,15,689,183,342,312,336,685,601,196,21,246,403,376,710,146,48,608,683,119,560,792,517,580,692,699,779,365,614,96,49,190,730,349,92,142,653,122,682,45,276,290,208,753,647,438,350,81,574,158,742,271,637,232,426,747,695,760,231,194,20,100,225,294,794,72,166,198,33,73,379,691,167,395,785,479,719,177,12,434,10,363,618,511,125,572,331,90,293,745,151,679,291,542,230,195,588,132,368,74,377,502,68,266,227,224,705,141,536,176,42,739,247,259,667,788,581,636,278,321,83,663,35,641,76,633,506,30,138,287,562,347,220,626,152,483,115,99,738,758,120,451,741,733,615,207,512,419,188,13,382,202,435,309,586,173,564,731,324,587,273,489,646,87,313,461,154,101,442,375,355,346,797,200,443,575,163,37,757,790,432,528,535,23,472,627,735,337,203,260,144,593,669,568,680,389,56,773,47,503,602,721,706,431,673,729,727,463,414,306,772,628,325,427,94,367,702,450,388,5,530,767,413,520,709,791,701,172,490,3,597,252,116,759,703,452,69,328,212,326,267,31,288,407,621,799,447,106,749,592,563,496,566,658,546,570,284,561,793,272,297,456,640,617,317,310,610,445,359,104,714,322,569,338,302,748,7,498,43,201,329,390,728,583,334,53,529,650,744,471,261,594,67,406,193,265,209,299,108,612,345,477,469,282,711,766,473,464,755,160,625,550,590,491,184,373,449,538,253,522,162,422,24,787,110,301,89,221,385,362,398,358,197,508,182,720,786,500,404,765,170,573,384,659,17,29,591,457,275,687,84,387,93,708,16,103,478,789,77,6,475,698,634,613,308,123,361,619,736,531,55,28,320,642,494,420,780,117,91,600,270,314,707,666,216,401,248,604,484,295,335,305,446,488,26,532,223,14,245,136,46,411,233,688,371,61,409,370,59,595,440,277,366,539,383,734,674,66,250,638,571,769,63,391,187,660,303,139,394,341,112,651,428,364,352,460,675,236,751,798,416,300,410,649,279,332,109,105,782,678,504,686,606,518,178,396,174,676,700,533,557,169,485,582,254,327,784,762,107,307,424,723,497,264,544,697,693,555,499,206,285,763,796,95,425,630,645,620,540,423,181,770,88,180,644,186,9,501,726,631,415,454,298,351,713,408,140,523,27,148,32,137,135,18,599,704,737,58,519,333,311,118,256,392,318,514,783,60,238,754,75,429,444,4,681,354,130,690,584,157,54,510,430,369,598,274,552,717,315,664,525,52,589,724,353,513,64,217,263,439,771,213,549,50,85,629,131,654,134,65,257,670,159,145,155,339,121,487,558,98,380,316,150,537,777,433,111,596,156,262,251,114,543,611,585,725,399,86,44,752,280,255,553,661,795,237,71,234,716,70,102,343,281,189,25,129,448,712,556,402,603,455,348,229,554,210,609,775,171,356,400,521,240,746,283,126,567,374,565,524,175,19,80,778,743,242,632,269,559,222,143,235,605,204,672,545,453,668,643,768,776,381,578,36,671]","arrowleft","true","0","13","133","800","[""0017_N0800_K0133_CLIQUE"",""0051_N0800_K0133_NOCLIQUE""]"
"","audio-keyboard-response","78","77397","0.0-65.0-0.0-1.0","","","","","","","","","","","","","","","","","","null","audio_feedback/right/coin01.mp3","null","","","","0","13","133","800","[""0017_N0800_K0133_CLIQUE"",""0051_N0800_K0133_NOCLIQUE""]"
"","canvas-keyboard-response","79","78719","0.0-66.0-0.0-0.0","","","","","","","","","","","","","","","","","","610","","arrowright","[654,91,280,796,519,435,105,682,63,438,483,583,659,463,236,562,191,715,80,171,190,258,647,618,739,661,11,358,415,222,527,217,610,218,230,697,268,375,623,662,65,672,300,690,767,713,653,591,399,270,716,132,139,790,479,127,547,577,291,391,344,239,568,145,76,709,428,699,227,642,119,374,708,114,271,636,737,535,148,50,120,57,414,707,34,178,211,442,294,513,484,687,508,331,30,455,313,7,652,319,324,738,478,99,776,273,19,763,38,745,529,166,683,60,553,306,158,487,429,359,497,717,27,679,293,135,762,92,770,657,552,55,539,74,732,474,187,777,118,461,621,238,133,121,667,106,335,347,644,613,289,464,454,89,558,595,151,492,545,81,248,320,241,17,380,560,630,72,272,718,154,427,588,596,723,390,249,629,21,448,197,228,616,28,370,231,4,225,234,793,648,575,409,688,336,192,651,761,326,297,71,75,96,203,116,450,524,103,244,208,490,392,388,503,165,611,220,83,425,333,432,509,117,406,702,727,726,733,664,585,143,784,16,592,795,603,403,787,516,625,46,769,100,342,110,283,84,356,381,605,728,721,416,431,334,389,750,372,341,546,556,246,608,1,413,628,176,407,216,408,329,514,308,424,631,363,45,405,789,606,510,337,668,639,361,328,382,49,97,660,678,559,680,321,164,373,440,786,137,278,459,452,781,578,214,567,705,663,417,604,377,58,582,742,52,397,620,525,444,747,658,574,168,465,505,383,584,798,499,322,365,304,489,18,641,47,292,42,445,748,571,765,720,64,284,15,614,515,673,142,698,323,302,177,471,330,643,581,172,670,183,108,617,395,269,37,434,153,466,779,557,501,5,104,20,740,462,506,418,785,102,477,730,199,476,396,684,601,26,31,685,82,296,712,286,541,494,791,287,251,550,430,538,346,149,312,549,194,669,314,729,6,126,674,681,443,185,22,768,188,426,35,495,543,572,638,237,122,193,675,311,597,518,710,533,295,587,694,70,150,254,67,554,788,298,649,481,758,125,221,386,224,542,517,371,665,355,180,138,288,469,615,493,260,32,612,773,548,367,655,212,129,633,398,327,590,146,62,305,401,422,147,85,522,152,261,250,264,226,799,528,204,500,299,589,411,235,144,189,724,467,676,520,637,128,400,619,696,379,456,242,743,315,196,593,352,378,609,701,348,338,555,54,369,170,736,446,491,645,98,140,33,350,764,255,343,8,711,512,340,485,458,10,263,43,666,262,318,157,256,253,366,101,201,173,561,646,66,419,111,247,598,457,9,175,704,570,453,511,757,607,394,77,207,229,219,161,563,339,243,368,451,124,351,39,232,167,437,423,449,240,107,735,752,277,695,281,73,472,79,797,441,357,488,602,223,530,624,706,68,12,307,162,475,131,181,134,215,206,40,473,772,275,29,267,714,115,309,136,551,632,580,566,402,259,780,719,412,210,69,523,265,14,504,213,725,521,205,112,61,741,775,671,635,156,537,141,755,279,200,410,186,25,2,362,404,198,460,433,689,3,87,569,600,78,507,754,36,310,290,766,384,182,257,692,301,41,526,421,634,531,447,783,792,586,252,544,746,0,44,385,282,349,749,345,160,579,90,759,468,276,482,573,59,169,94,195,565,393,48,88,109,774,794,731,599,285,656,155,56,540,436,13,245,439,184,233,420,751,744,316,753,626,303,502,686,53,163,354,693,778,782,627,86,332,480,496,771,51,722,536,159,691,93,209,650,179,594,756,325,353,113,498,534,576,703,95,622,274,564,387,266,486,532,317,376,123,130,734,677,360,700,640,470,23,364,24,174,202,760]","arrowright","true","0","14","120","800","[""0062_N0800_K0120_NOCLIQUE"",""0046_N0800_K0120_CLIQUE""]"
"","audio-keyboard-response","80","79717","0.0-66.0-0.0-1.0","","","","","","","","","","","","","","","","","","null","audio_feedback/right/coin01.mp3","null","","","","0","14","120","800","[""0062_N0800_K0120_NOCLIQUE"",""0046_N0800_K0120_CLIQUE""]"
"","canvas-keyboard-response","81","82263","0.0-67.0-0.0-0.0","","","","","","","","","","","","","","","","","","1864","","arrowleft","[689,511,46,205,687,403,755,387,700,80,25,116,246,148,203,375,656,377,79,11,129,533,609,23,384,420,347,354,73,617,445,379,22,369,352,395,283,591,401,574,490,446,502,648,676,266,215,340,268,704,702,427,768,42,110,275,421,754,627,60,785,545,479,726,795,160,187,305,659,661,238,613,167,360,86,26,706,651,675,389,152,519,393,400,520,269,54,50,182,537,474,588,745,658,132,443,397,214,459,56,581,120,190,596,318,143,736,664,230,131,612,353,549,493,277,341,362,570,748,713,374,592,666,95,729,89,619,236,672,381,49,248,501,104,444,710,310,593,115,223,751,265,739,417,229,92,126,155,256,237,331,691,579,66,250,725,742,525,409,59,635,36,41,32,508,720,567,138,193,194,610,497,12,219,410,746,159,563,730,315,538,590,678,705,542,364,460,424,559,87,550,708,786,524,455,561,717,21,466,778,34,614,603,91,622,259,29,564,615,719,586,435,52,584,53,10,168,240,113,40,130,123,522,27,404,19,454,690,241,103,453,287,526,342,618,529,303,106,779,597,253,798,709,226,679,668,43,260,744,632,124,231,329,274,562,166,65,714,325,117,28,527,413,14,582,174,747,242,346,151,416,76,185,587,281,200,565,431,624,771,280,695,572,641,244,64,628,553,464,506,539,523,686,711,594,667,140,149,385,320,156,653,150,419,286,447,566,109,683,357,738,428,213,769,276,210,633,299,449,680,161,425,225,595,673,777,37,108,481,125,723,344,383,599,439,144,78,544,759,105,164,774,515,718,536,509,665,233,752,405,290,314,727,788,645,540,721,674,483,743,249,629,697,418,234,796,477,296,62,307,204,701,547,365,386,68,482,473,197,465,773,495,528,349,712,517,412,693,304,784,24,551,195,608,228,101,15,31,391,451,681,514,558,247,186,575,647,791,715,741,555,63,88,191,232,640,790,556,97,414,30,272,543,498,339,177,503,772,630,222,351,433,261,733,39,461,327,432,114,220,607,20,178,426,158,753,153,636,440,735,326,146,371,396,180,600,505,343,298,257,45,373,181,9,513,703,173,82,263,172,206,760,294,83,6,141,585,135,370,267,654,698,423,85,77,688,456,208,285,573,399,139,797,243,332,634,1,770,192,548,510,317,44,620,407,602,388,4,394,507,740,333,201,589,601,35,789,291,787,58,750,625,61,119,98,55,631,406,767,457,577,258,644,762,293,8,378,758,216,438,578,532,273,93,626,218,380,278,655,646,568,604,799,671,494,202,262,516,732,430,485,239,441,17,657,716,521,472,359,308,38,136,598,47,491,198,761,376,422,724,137,224,100,313,334,322,468,279,321,642,662,235,162,639,5,621,345,616,96,486,650,72,372,470,3,81,84,682,368,163,289,569,227,694,469,324,254,476,312,649,361,794,415,7,571,154,366,175,271,484,170,134,780,398,669,450,171,402,488,489,663,121,605,643,295,722,546,411,336,18,408,437,48,309,471,147,300,2,107,282,442,392,217,111,306,57,319,99,763,207,757,560,728,530,348,118,133,355,94,255,264,776,69,504,169,292,367,127,74,696,0,707,670,500,737,434,301,623,316,512,478,330,328,70,793,652,463,183,188,436,382,165,122,583,535,128,462,699,576,487,534,189,212,302,67,684,531,16,448,356,211,338,199,480,337,541,363,552,775,792,75,358,580,496,783,252,251,323,142,499,554,734,179,71,518,452,102,288,184,660,782,51,311,692,390,781,245,335,221,685,33,475,467,350,297,756,196,638,557,492,749,765,606,112,637,176,209,429,764,611,284,157,90,13,145,458,766,677,270,731]","arrowleft","true","0","15","120","800","[""0069_N0800_K0120_CLIQUE"",""0098_N0800_K0120_NOCLIQUE""]"
"","audio-keyboard-response","82","83257","0.0-67.0-0.0-1.0","","","","","","","","","","","","","","","","","","null","audio_feedback/right/coin01.mp3","null","","","","0","15","120","800","[""0069_N0800_K0120_CLIQUE"",""0098_N0800_K0120_NOCLIQUE""]"
"","canvas-keyboard-response","83","85319","0.0-68.0-0.0-0.0","","","","","","","","","","","","","","","","","","1503","","arrowleft","[211,538,504,202,736,157,231,726,328,588,425,633,4,346,596,376,748,762,767,263,683,479,785,518,206,273,190,44,57,20,429,113,531,796,7,261,182,283,71,119,556,344,605,133,489,29,23,292,300,318,483,713,169,661,627,712,671,410,65,475,367,51,111,477,209,148,654,598,45,676,387,561,47,342,66,420,487,67,604,349,466,39,522,746,210,143,162,500,529,40,168,431,278,440,97,16,381,745,760,434,397,473,677,285,482,791,497,614,484,641,634,358,616,481,94,540,632,272,458,175,707,586,770,485,399,238,452,125,456,592,692,436,98,773,101,552,279,411,252,546,81,354,250,92,178,430,293,32,795,719,464,166,669,706,740,100,786,557,565,711,507,352,361,243,737,405,704,516,530,174,396,306,656,568,161,223,136,309,682,490,613,193,569,24,422,242,603,454,330,336,735,359,576,611,38,441,544,792,296,655,253,768,208,9,110,386,138,267,341,191,637,153,371,784,413,365,115,326,383,117,442,192,290,394,135,722,542,197,282,574,519,686,571,698,36,333,324,418,393,646,156,426,73,63,658,665,302,447,554,725,438,581,320,409,750,245,652,537,461,167,721,435,312,580,259,188,486,508,715,373,695,107,129,181,268,534,406,501,495,701,222,779,160,687,515,679,724,618,43,694,348,189,61,339,612,295,512,523,799,395,663,621,774,493,150,165,743,249,8,173,151,575,424,332,619,48,106,105,262,754,702,789,46,360,319,204,31,28,72,104,289,782,123,771,304,400,756,264,134,35,403,199,738,375,159,33,390,127,241,307,778,315,186,331,635,528,77,364,468,720,299,777,549,286,648,90,313,203,421,128,229,316,379,723,584,130,314,200,303,265,790,700,277,402,233,74,710,672,601,158,30,385,535,666,215,257,401,629,732,585,377,476,239,463,91,274,753,469,68,524,491,41,291,89,369,563,647,12,589,88,275,733,650,625,177,696,755,366,21,550,572,412,207,763,27,742,432,660,224,602,2,382,308,338,521,564,235,591,266,505,626,246,502,154,609,558,788,258,798,141,220,662,624,321,140,271,325,488,276,219,460,573,164,617,527,437,3,444,717,509,301,517,551,11,363,17,787,638,664,70,759,378,280,797,559,64,240,673,58,226,96,120,567,53,132,357,155,147,227,281,216,269,659,25,82,237,60,84,606,439,630,407,76,553,758,255,525,636,747,465,152,305,455,388,176,337,689,503,651,179,667,218,228,372,83,582,708,26,334,590,323,729,744,761,555,95,449,765,419,62,56,506,451,391,480,374,543,714,680,404,697,232,408,251,749,532,311,678,433,595,0,118,172,149,112,462,163,560,668,471,184,709,103,355,183,570,690,644,194,22,731,730,600,783,513,144,703,752,716,427,34,6,741,548,131,775,757,270,351,536,102,170,10,198,78,230,414,288,794,643,254,52,234,294,684,520,443,511,310,15,345,126,728,772,776,180,478,145,121,705,674,448,428,578,545,350,583,87,142,14,356,514,221,423,50,212,769,370,764,380,217,653,597,93,526,329,467,450,599,42,287,49,236,492,446,510,13,317,642,297,124,298,362,1,751,649,340,335,688,718,416,499,146,739,5,453,109,657,645,75,196,137,541,780,594,322,185,171,623,793,459,631,19,69,622,37,327,86,539,205,256,693,457,691,54,685,55,347,727,781,681,187,547,122,389,593,472,615,577,699,470,59,640,417,766,18,248,566,398,498,675,496,670,628,607,139,284,114,620,116,85,415,201,80,494,213,734,474,343,587,244,392,610,195,225,353,608,579,562,639,108,533,368,214,99,384,247,445,79,260]","arrowleft","true","0","16","107","800","[""0044_N0800_K0107_CLIQUE"",""0009_N0800_K0107_NOCLIQUE""]"
"","audio-keyboard-response","84","86317","0.0-68.0-0.0-1.0","","","","","","","","","","","","","","","","","","null","audio_feedback/right/coin01.mp3","null","","","","0","16","107","800","[""0044_N0800_K0107_CLIQUE"",""0009_N0800_K0107_NOCLIQUE""]"
"","canvas-keyboard-response","85","88314","0.0-69.0-0.0-0.0","","","","","","","","","","","","","","","","","","1496","","arrowleft","[156,23,52,664,450,640,216,710,600,334,339,407,45,239,391,255,654,518,532,59,330,438,727,486,262,29,235,567,770,167,215,85,590,263,789,275,175,796,649,760,231,305,588,106,17,519,456,317,706,776,610,580,501,279,169,364,743,634,278,715,647,642,733,701,445,129,754,725,4,67,118,299,724,554,729,472,28,164,93,253,33,382,645,254,504,341,348,492,399,86,679,686,720,744,499,72,9,467,404,270,681,711,19,439,166,753,632,619,446,47,252,582,517,79,618,322,196,15,629,592,40,703,613,1,77,362,10,477,596,732,187,152,136,99,182,162,25,387,422,674,557,325,304,529,545,748,24,259,787,95,424,293,621,506,639,111,568,750,73,460,189,202,655,603,223,344,430,476,244,556,585,211,560,533,402,123,310,192,228,595,749,44,601,453,604,88,66,738,5,398,665,36,208,719,94,497,745,513,300,163,507,793,689,765,11,122,678,288,315,318,246,435,35,108,220,688,308,209,680,190,376,351,34,433,788,3,769,27,247,337,630,91,543,266,790,426,437,611,569,555,54,291,704,138,414,306,157,617,549,96,434,452,80,739,340,537,566,602,696,384,147,586,413,81,741,449,431,335,558,229,401,30,177,708,716,503,698,285,213,31,570,521,327,16,740,459,165,505,480,423,171,354,281,451,658,314,576,345,531,735,104,214,493,762,0,303,690,412,217,417,121,250,102,752,149,396,468,607,780,661,12,183,625,307,675,301,411,132,464,74,633,64,723,421,714,224,766,375,786,374,495,75,113,455,179,227,360,579,771,768,145,18,546,561,153,457,125,764,127,13,705,243,84,523,204,195,78,669,98,660,718,572,559,428,574,89,496,494,481,97,386,372,406,371,728,418,186,712,405,381,290,271,43,181,767,458,483,799,736,272,646,591,71,713,349,370,357,676,180,63,448,598,563,536,538,200,785,324,332,389,76,597,742,87,469,425,606,616,265,124,514,692,210,662,479,432,693,779,541,154,26,620,564,237,573,331,442,627,737,444,525,777,139,638,691,143,473,462,631,609,185,55,277,21,280,373,420,309,758,233,284,540,571,159,329,144,717,20,755,395,137,355,343,707,520,292,353,178,242,623,522,110,656,117,258,756,599,379,82,363,218,544,722,509,500,57,131,677,671,463,552,551,238,336,490,759,682,440,751,151,60,366,795,651,400,133,297,702,510,516,672,221,685,114,367,542,274,58,191,791,511,512,553,443,222,286,135,194,146,377,614,142,241,695,547,535,528,83,429,663,103,550,578,684,342,350,48,683,670,612,69,397,51,419,188,721,700,100,385,466,709,527,530,14,161,539,392,534,454,107,90,369,652,394,257,226,261,232,378,415,470,230,68,730,321,659,268,282,416,644,105,116,347,636,319,461,22,781,158,236,797,119,313,526,333,269,734,584,487,49,365,626,184,56,256,65,61,289,294,637,155,295,581,475,352,666,140,326,320,515,170,390,548,264,62,205,234,8,276,206,577,746,109,260,199,594,489,615,212,488,575,624,267,648,201,427,498,168,641,240,249,368,198,508,589,694,778,393,203,774,731,46,70,134,761,441,667,622,436,657,485,128,763,502,176,173,565,474,465,668,150,112,32,491,587,296,359,403,287,2,6,316,207,383,248,126,219,92,358,141,148,338,608,283,38,471,115,311,482,687,773,298,650,328,635,346,593,794,356,653,409,251,39,775,380,524,361,160,120,245,643,798,225,792,772,484,410,782,273,628,699,757,323,197,783,53,101,726,408,784,583,312,562,130,697,302,388,37,747,41,478,174,172,447,193,673,50,605,7,42]","arrowleft","true","0","17","107","800","[""0072_N0800_K0107_CLIQUE"",""0079_N0800_K0107_NOCLIQUE""]"
"","audio-keyboard-response","86","89317","0.0-69.0-0.0-1.0","","","","","","","","","","","","","","","","","","null","audio_feedback/right/coin01.mp3","null","","","","0","17","107","800","[""0072_N0800_K0107_CLIQUE"",""0079_N0800_K0107_NOCLIQUE""]"
"","canvas-keyboard-response","87","91718","0.0-70.0-0.0-0.0","","","","","","","","","","","","","","","","","","1931","","arrowright","[474,644,86,531,255,797,480,100,573,188,662,499,304,442,733,635,207,620,18,721,428,96,383,597,29,253,703,411,117,664,155,240,714,56,472,335,175,286,682,209,373,449,254,174,665,505,251,130,744,217,287,201,309,95,393,45,595,395,608,516,768,264,63,21,789,590,581,722,525,424,688,313,374,10,263,107,612,556,495,660,325,678,468,447,488,684,543,297,672,258,270,127,769,401,755,285,685,609,410,748,111,99,550,751,596,446,312,752,375,448,384,308,690,536,622,653,36,645,205,269,307,730,459,68,572,455,121,439,9,22,754,686,582,281,279,80,627,349,385,194,359,172,210,632,89,122,276,471,180,604,487,452,469,13,267,732,354,613,370,223,773,535,146,700,668,483,59,753,647,355,628,149,108,500,82,138,553,742,344,705,243,323,387,366,39,617,600,104,341,538,274,655,298,717,781,266,658,508,160,291,57,528,778,444,50,16,633,6,453,441,156,619,390,606,491,208,141,221,85,147,382,15,171,125,238,762,523,234,406,70,322,54,179,169,196,185,345,515,248,404,794,361,216,328,680,545,667,771,1,674,353,195,514,498,712,734,268,19,479,637,272,4,11,537,392,256,25,593,494,708,331,190,492,316,367,544,55,592,77,517,191,271,687,464,24,724,477,436,148,476,740,284,352,534,135,711,46,701,332,28,760,623,132,510,293,433,98,351,787,549,458,137,79,718,74,315,529,415,519,32,8,554,669,306,518,152,585,84,229,165,368,551,420,780,202,150,110,639,83,509,273,503,681,402,184,766,376,693,423,429,421,235,17,116,246,650,380,67,634,594,250,228,557,177,618,558,134,539,485,119,546,419,189,317,260,369,599,405,403,656,799,586,320,61,496,747,456,566,72,327,245,214,158,371,3,0,463,775,611,666,42,741,679,559,631,377,128,621,651,131,438,311,782,88,294,154,561,533,795,407,659,118,318,38,412,788,224,212,360,587,338,20,602,610,578,785,504,391,707,342,450,555,462,434,173,598,461,164,66,774,226,630,661,520,695,675,324,153,337,756,409,365,81,73,142,181,244,230,37,568,629,562,636,567,49,761,765,506,726,336,607,580,170,48,417,220,330,591,784,649,641,211,763,698,192,102,242,112,2,126,41,706,326,783,14,481,236,23,347,115,786,343,710,570,101,413,638,40,60,310,178,203,524,362,466,440,720,738,140,482,143,547,259,427,301,114,333,746,381,723,133,577,422,490,222,626,758,358,574,30,295,470,198,683,764,652,78,475,564,798,5,389,136,75,729,584,507,213,478,227,692,394,94,124,736,793,372,526,728,432,716,346,759,58,44,288,616,735,625,65,166,363,791,282,465,779,513,467,289,486,145,522,457,601,51,321,215,451,588,278,743,396,218,575,364,702,443,109,357,445,157,772,64,770,615,34,26,576,648,646,579,673,76,560,197,232,416,296,290,699,418,257,183,694,305,252,671,552,739,350,511,92,161,676,709,167,204,697,583,542,90,113,378,670,31,408,512,280,642,129,329,120,767,159,460,565,790,663,339,431,493,624,219,691,225,527,139,69,319,292,489,33,425,603,97,277,713,750,193,776,540,502,689,757,106,52,261,398,737,399,725,388,614,640,340,283,87,303,532,12,704,93,541,563,206,501,334,643,657,548,144,426,571,414,302,53,497,435,237,454,569,7,430,35,162,91,239,715,262,47,605,777,792,199,749,103,200,379,437,521,400,348,71,43,473,654,249,275,677,151,314,745,182,299,62,731,241,727,105,484,300,386,233,176,265,27,530,187,696,168,397,247,356,719,589,231,123,796,163,186]","arrowright","true","0","18","93","800","[""0033_N0800_K0093_NOCLIQUE"",""0093_N0800_K0093_CLIQUE""]"
"","audio-keyboard-response","88","92717","0.0-70.0-0.0-1.0","","","","","","","","","","","","","","","","","","null","audio_feedback/right/coin01.mp3","null","","","","0","18","93","800","[""0033_N0800_K0093_NOCLIQUE"",""0093_N0800_K0093_CLIQUE""]"
"","canvas-keyboard-response","89","94914","0.0-71.0-0.0-0.0","","","","","","","","","","","","","","","","","","1558","","arrowright","[577,677,680,638,505,447,485,554,439,550,216,306,626,784,653,73,585,125,618,70,386,58,796,695,538,345,31,609,81,606,127,654,642,312,750,692,588,565,272,624,635,40,1,353,487,482,76,645,220,694,435,249,398,360,80,86,254,409,191,708,113,315,89,35,197,278,15,54,452,640,634,590,52,463,612,104,710,41,106,284,279,685,789,532,103,123,143,289,407,6,793,130,545,214,568,448,9,420,362,773,91,510,310,266,757,774,298,56,391,689,291,519,553,679,164,438,325,244,459,599,227,303,282,725,495,382,492,269,340,336,233,185,19,74,135,314,14,234,307,675,161,759,639,411,337,257,509,751,46,528,589,251,64,321,650,219,36,252,627,196,567,313,767,385,714,736,464,361,225,410,596,587,179,302,423,513,457,295,324,61,152,4,764,203,27,384,293,441,294,13,92,283,71,223,535,594,723,636,87,93,75,213,593,456,541,549,221,628,268,476,154,683,12,720,263,21,597,319,139,17,518,574,681,151,258,563,367,660,215,145,580,301,741,153,467,416,608,555,762,453,684,132,739,792,617,403,355,62,2,657,729,329,429,357,372,390,709,730,726,350,703,669,85,32,503,328,389,648,475,560,515,399,0,396,304,742,655,51,318,100,240,256,431,656,523,797,90,712,217,493,366,134,633,614,731,451,470,246,631,261,55,22,175,478,121,450,270,351,740,520,516,483,672,604,60,408,39,443,245,168,770,721,572,383,163,166,512,688,449,342,776,484,371,665,395,172,542,247,174,734,707,218,359,228,160,497,702,481,335,442,352,754,480,537,29,105,381,155,8,83,187,623,377,356,735,766,320,534,202,281,552,500,332,204,738,460,700,182,508,195,785,570,388,273,561,755,615,543,259,375,109,250,181,192,327,49,140,602,499,108,514,226,207,112,417,637,373,292,706,687,129,338,756,496,717,404,575,393,732,275,696,546,749,271,632,394,369,222,201,663,540,619,427,760,84,564,69,719,124,791,308,20,697,744,718,116,699,436,119,88,348,26,11,331,193,126,28,526,583,169,446,280,184,682,530,243,437,607,536,652,670,544,507,47,241,358,521,747,118,94,137,711,591,705,647,354,444,392,522,44,167,433,566,79,230,788,659,676,239,99,107,668,795,102,490,170,111,529,704,194,713,421,491,38,504,66,3,473,401,115,783,59,96,621,210,413,573,311,209,465,117,769,799,405,461,242,440,374,651,370,82,605,415,42,309,400,110,753,95,581,428,43,569,426,333,661,339,527,33,786,120,601,274,488,600,25,524,472,771,198,265,690,424,402,603,557,138,149,317,737,559,63,728,548,458,746,582,586,667,613,255,531,489,232,779,658,349,114,188,562,376,781,253,539,48,387,455,592,479,620,477,162,276,406,260,778,595,326,379,649,501,419,343,7,498,432,558,78,794,212,468,131,727,136,678,666,777,37,571,445,368,579,722,277,316,486,763,287,363,330,378,30,229,598,65,205,765,57,67,506,630,745,322,551,662,748,286,45,157,200,414,24,743,346,664,701,128,625,144,761,98,101,208,768,671,643,474,190,236,616,183,297,211,533,347,97,300,148,186,341,235,454,578,176,299,798,418,72,629,224,16,53,782,556,147,206,288,173,10,122,691,674,698,646,290,238,296,285,502,305,248,158,77,23,584,180,787,334,494,199,686,434,471,752,775,462,611,576,364,380,156,466,641,673,365,262,511,780,397,146,724,622,517,171,644,547,430,425,68,733,177,693,758,165,422,412,525,267,133,141,159,716,18,150,237,189,323,5,142,34,715,264,344,790,469,610,178,772,50,231]","arrowleft","false","0","19","93","800","[""0030_N0800_K0093_CLIQUE"",""0007_N0800_K0093_NOCLIQUE""]"
"","audio-keyboard-response","90","95937","0.0-71.0-0.0-1.0","","","","","","","","","","","","","","","","","","null","audio_feedback/wrong/error01.mp3","null","","","","0","19","93","800","[""0030_N0800_K0093_CLIQUE"",""0007_N0800_K0093_NOCLIQUE""]"
"","canvas-keyboard-response","91","97255","0.0-72.0-0.0-0.0","","","","","","","","","","","","","","","","","","653","","arrowleft","[175,450,301,243,657,112,53,375,299,457,235,785,261,673,283,529,388,54,131,677,624,41,604,174,666,672,665,456,68,571,95,770,178,622,76,767,404,392,246,108,397,179,668,250,51,628,389,21,170,141,287,753,431,317,732,102,275,436,19,156,181,353,676,399,313,576,744,692,696,289,205,405,383,90,165,603,521,641,544,747,735,361,167,9,249,147,693,276,633,385,370,98,386,409,669,647,91,242,740,348,239,695,564,363,451,387,539,445,132,149,230,682,376,231,486,614,58,546,396,428,485,342,333,737,464,2,240,690,172,782,452,188,13,401,148,650,551,208,640,443,435,104,255,367,632,527,733,215,697,327,598,258,16,357,66,199,312,350,193,17,796,588,103,79,490,752,730,189,416,425,402,72,530,288,717,548,607,741,494,790,689,340,110,438,310,209,749,459,764,341,323,499,715,97,549,247,616,106,182,791,626,81,224,400,291,61,707,120,73,394,308,688,703,680,114,157,507,662,202,522,244,720,623,630,85,437,194,578,750,583,395,613,176,88,755,702,320,297,65,601,216,164,259,751,635,611,565,550,324,510,139,570,678,556,426,45,447,57,264,511,589,679,555,792,380,83,338,612,506,648,3,534,798,477,277,78,252,558,31,339,500,656,446,637,524,187,200,282,177,245,10,659,775,27,554,469,509,773,473,449,533,587,168,519,415,712,154,638,218,593,226,410,293,214,627,354,408,158,201,294,295,122,211,331,580,47,63,180,144,421,305,190,127,248,667,351,617,743,547,704,432,18,710,532,777,788,379,625,150,204,161,378,467,523,237,518,377,748,645,608,513,417,285,42,605,553,316,698,253,610,11,0,722,574,709,716,286,482,502,223,99,699,653,498,267,227,64,359,739,461,542,718,322,719,307,217,517,366,686,74,439,427,778,700,526,186,582,670,663,129,411,365,734,381,649,206,309,372,268,412,418,319,566,270,280,487,7,362,453,14,705,480,321,639,284,251,475,491,728,599,560,330,761,606,124,238,113,166,454,369,56,109,5,701,70,403,126,75,130,424,315,422,433,440,781,87,1,713,642,169,478,545,726,615,765,269,414,585,455,619,347,117,232,46,495,273,62,406,468,40,162,489,159,390,220,49,481,37,646,783,302,470,512,736,772,234,759,32,643,15,423,746,236,96,594,636,525,8,434,768,462,442,229,419,620,794,465,471,303,569,675,793,460,160,371,581,771,654,429,531,497,298,573,93,631,6,184,658,493,225,745,195,29,769,779,572,496,708,685,538,795,67,364,136,754,508,586,714,254,398,48,328,516,797,441,766,221,358,671,492,784,479,82,265,591,602,374,145,198,34,393,660,514,210,600,306,135,44,292,540,488,332,505,391,592,23,171,738,300,559,59,501,563,118,222,360,597,691,579,241,84,344,119,664,760,596,142,575,609,311,763,116,345,173,260,279,590,80,325,742,101,278,483,567,256,711,413,33,724,444,562,352,568,36,725,55,349,28,543,207,77,133,504,71,20,661,384,219,651,128,12,257,706,192,787,758,271,143,274,683,153,213,762,731,472,723,561,326,629,4,197,634,290,776,356,38,687,537,43,420,185,644,368,721,183,137,337,774,557,60,674,355,515,336,756,536,343,314,335,115,281,652,123,262,25,595,140,799,203,138,346,22,577,786,26,134,757,334,373,621,263,458,463,304,789,484,266,694,296,152,448,52,155,503,382,121,541,681,618,329,684,105,196,729,430,476,69,163,272,233,92,107,552,535,39,727,86,111,520,94,89,146,151,474,100,780,528,30,318,228,466,125,50,407,191,35,655,212,584,24]","arrowleft","true","0","20","80","800","[""0031_N0800_K0080_CLIQUE"",""0020_N0800_K0080_NOCLIQUE""]"
"","audio-keyboard-response","92","98237","0.0-72.0-0.0-1.0","","","","","","","","","","","","","","","","","","null","audio_feedback/right/coin01.mp3","null","","","","0","20","80","800","[""0031_N0800_K0080_CLIQUE"",""0020_N0800_K0080_NOCLIQUE""]"
"","canvas-keyboard-response","93","99336","0.0-73.0-0.0-0.0","","","","","","","","","","","","","","","","","","573","","arrowright","[187,63,574,320,745,178,533,85,439,413,157,310,189,319,112,662,414,20,553,782,105,90,591,425,205,71,100,27,75,361,466,725,797,743,470,546,83,154,666,622,625,150,697,365,180,113,321,578,441,738,516,709,658,103,627,799,114,232,308,37,91,297,531,418,76,379,362,454,234,769,10,791,788,264,419,534,518,144,758,731,59,7,670,33,277,339,694,183,327,167,104,653,529,774,231,281,50,757,225,165,659,364,390,445,573,201,746,300,684,785,133,794,289,465,646,219,291,436,280,486,48,651,571,160,295,726,577,293,102,710,548,487,742,639,188,244,517,15,241,131,34,423,540,618,184,576,507,620,602,52,503,61,12,381,238,243,158,601,123,580,641,541,220,525,400,498,143,200,420,307,703,753,424,690,727,527,523,342,326,415,235,520,688,623,566,500,41,472,13,693,186,67,132,603,166,798,351,261,600,340,19,262,1,314,515,358,45,288,756,505,459,290,346,35,141,194,654,80,176,352,637,374,682,401,125,69,43,644,328,147,369,708,458,685,388,335,611,453,649,306,551,496,729,399,510,590,136,704,24,233,765,109,18,6,521,39,82,170,206,54,484,707,156,79,309,282,30,28,391,115,78,787,485,780,44,680,615,174,610,724,605,613,532,665,246,565,456,430,494,407,408,524,14,617,204,224,596,597,269,116,383,29,784,457,598,750,767,437,16,62,203,792,8,26,549,260,301,467,563,499,638,464,460,678,657,447,389,360,138,334,270,331,11,495,479,380,315,17,87,263,614,723,626,751,240,660,237,275,257,714,790,716,536,139,512,497,634,161,285,713,371,432,427,747,493,64,740,95,409,198,118,717,481,608,111,508,554,356,343,317,99,322,354,384,771,589,763,669,298,635,775,396,446,558,604,259,378,564,504,749,519,766,162,42,417,793,65,368,411,474,89,570,405,217,431,612,632,562,629,686,303,712,299,776,120,734,530,53,779,752,588,332,258,719,386,23,311,245,192,696,393,528,636,149,582,477,755,151,473,668,51,349,313,483,193,36,387,25,706,93,60,316,538,266,721,32,687,770,376,754,438,223,375,762,164,129,761,469,202,190,702,273,359,557,126,4,584,239,214,230,191,330,607,49,478,271,197,84,336,168,449,119,412,675,689,172,292,585,463,650,296,272,210,121,435,692,236,778,631,267,664,159,681,526,561,544,606,196,667,428,350,134,212,700,760,140,3,471,185,490,671,66,370,283,86,247,672,56,55,255,304,92,543,559,550,575,451,107,395,433,88,344,124,208,568,130,545,70,677,630,645,455,173,169,404,795,628,163,110,701,142,421,68,547,122,357,268,72,337,152,117,38,592,94,254,542,556,211,691,609,599,305,294,21,663,348,535,222,31,567,764,633,621,47,155,673,353,77,179,748,416,730,661,648,209,655,786,265,674,127,728,392,759,502,171,492,720,410,715,278,128,511,640,253,468,440,572,333,735,377,426,452,448,403,462,248,741,181,216,552,506,698,325,652,302,683,286,366,581,718,397,274,475,579,382,488,781,2,422,732,5,250,711,699,555,0,744,783,513,355,537,777,323,429,252,279,145,81,385,442,347,514,583,569,146,318,737,679,218,135,539,329,773,96,363,199,624,372,616,394,74,177,256,338,489,137,501,643,586,476,251,227,789,98,9,656,276,461,406,595,249,443,46,284,509,97,593,148,312,229,40,722,242,373,642,733,647,226,195,207,736,213,215,480,619,106,73,108,444,796,594,491,482,522,153,287,398,101,228,768,22,695,434,560,341,58,676,450,739,367,221,345,402,705,182,772,57,324,175,587]","arrowright","true","0","21","80","800","[""0019_N0800_K0080_NOCLIQUE"",""0029_N0800_K0080_CLIQUE""]"
"","audio-keyboard-response","94","100357","0.0-73.0-0.0-1.0","","","","","","","","","","","","","","","","","","null","audio_feedback/right/coin01.mp3","null","","","","0","21","80","800","[""0019_N0800_K0080_NOCLIQUE"",""0029_N0800_K0080_CLIQUE""]"
"","canvas-keyboard-response","95","101698","0.0-74.0-0.0-0.0","","","","","","","","","","","","","","","","","","815","","arrowleft","[363,362,57,411,497,131,475,701,255,180,397,169,119,8,222,706,312,427,351,424,50,176,307,130,521,681,248,581,448,557,769,100,663,698,304,656,511,144,4,370,263,765,692,704,139,622,187,254,602,453,148,562,268,24,204,203,240,530,456,630,638,571,113,708,0,173,449,469,543,533,125,604,201,561,94,501,619,216,305,270,228,588,786,388,107,463,46,536,275,206,467,789,252,62,794,259,716,485,423,768,431,70,242,323,393,286,316,566,682,559,580,226,452,195,273,16,394,660,381,750,101,20,595,44,774,389,541,31,168,265,577,118,159,344,358,360,755,680,368,624,329,432,385,465,574,758,174,392,184,401,640,303,707,327,326,333,19,605,441,261,160,699,657,488,374,5,155,128,221,232,589,98,188,150,517,346,92,109,122,34,127,225,179,296,631,49,365,697,289,199,523,383,584,51,359,227,612,548,292,111,153,317,182,66,780,684,579,572,454,420,22,499,470,596,298,52,250,597,524,635,7,175,623,212,773,690,730,238,583,231,487,64,123,120,48,28,653,319,484,14,377,444,245,592,376,233,116,157,550,593,309,481,253,398,124,516,715,754,668,335,724,143,372,570,721,239,629,97,651,450,18,267,783,42,776,779,85,676,555,147,693,415,476,185,72,55,224,688,106,163,152,257,59,379,492,258,763,287,480,81,519,512,35,603,218,747,694,154,334,314,25,396,471,405,306,67,495,277,112,189,288,720,515,99,283,413,576,10,284,713,711,26,281,260,446,798,535,795,649,390,170,757,181,399,88,655,137,503,198,249,378,540,762,384,478,788,53,710,430,17,41,529,29,196,200,419,764,318,665,27,108,167,510,272,745,126,606,563,325,766,482,644,410,760,567,439,83,744,587,513,114,43,78,71,505,256,177,247,402,782,149,220,93,468,321,639,672,634,645,6,183,348,192,472,598,703,237,648,339,75,271,345,243,162,500,205,373,337,202,172,320,518,294,251,799,479,728,677,33,331,84,89,741,778,387,554,215,731,382,437,13,403,23,140,63,719,87,718,636,428,586,117,194,483,61,532,276,369,614,32,732,68,531,466,103,797,578,293,738,658,496,445,407,537,95,367,285,462,380,486,451,575,743,21,357,422,171,142,643,386,262,601,460,726,709,507,354,477,632,91,264,40,761,627,395,508,207,498,473,626,767,151,349,458,308,733,2,15,322,197,102,343,502,76,282,353,375,438,79,241,650,208,364,542,617,647,679,509,735,793,9,687,504,30,459,753,236,434,528,546,727,166,280,695,408,269,565,493,80,60,790,110,279,683,165,217,82,585,564,336,1,56,421,96,39,552,37,230,290,691,433,219,696,340,213,784,436,300,669,86,400,702,628,608,717,494,447,414,545,725,787,594,440,775,58,36,65,90,391,291,785,506,313,667,751,534,526,539,642,295,771,558,615,223,136,527,409,734,610,146,347,443,234,352,299,350,138,461,161,324,714,781,191,338,341,54,770,73,366,591,551,739,582,412,211,662,607,457,145,671,297,134,646,573,637,418,435,361,489,209,133,689,609,568,520,796,705,121,736,491,618,186,302,105,311,474,229,791,490,132,759,772,464,77,600,356,633,278,792,616,674,141,686,274,135,115,332,740,38,729,620,756,406,549,246,641,553,659,442,12,673,190,104,69,328,3,661,244,47,746,723,777,404,193,214,685,654,129,266,556,749,178,712,310,569,45,525,560,158,675,748,678,752,666,342,599,700,722,621,455,156,590,742,538,613,11,315,625,425,371,416,514,544,652,74,330,426,611,737,522,547,355,301,235,164,670,417,210,664,429]","arrowleft","true","0","22","67","800","[""0075_N0800_K0067_CLIQUE"",""0066_N0800_K0067_NOCLIQUE""]"
"","audio-keyboard-response","96","102697","0.0-74.0-0.0-1.0","","","","","","","","","","","","","","","","","","null","audio_feedback/right/coin01.mp3","null","","","","0","22","67","800","[""0075_N0800_K0067_CLIQUE"",""0066_N0800_K0067_NOCLIQUE""]"
"","canvas-keyboard-response","97","103737","0.0-75.0-0.0-0.0","","","","","","","","","","","","","","","","","","531","","arrowright","[426,21,429,598,358,280,589,25,792,14,572,428,285,193,638,608,569,777,341,335,212,420,737,327,230,51,455,36,92,793,731,180,380,603,169,745,714,136,313,378,584,91,30,388,37,551,626,161,32,585,34,433,664,545,113,110,200,725,17,661,507,410,559,658,111,408,217,231,534,599,2,523,134,76,31,503,353,59,339,201,494,182,546,196,85,746,192,500,489,220,250,614,700,467,342,8,734,203,701,681,352,483,306,617,679,744,177,606,379,443,526,166,221,782,675,629,553,775,270,432,355,619,657,566,155,788,459,154,799,497,271,692,560,508,480,464,48,444,773,147,434,778,291,665,336,22,328,247,740,596,488,412,750,790,243,702,204,715,528,219,309,634,407,772,248,571,650,798,278,687,748,573,60,284,726,299,351,4,542,127,621,295,255,733,145,233,172,211,563,524,151,761,162,331,55,66,660,751,188,53,282,499,413,244,641,705,485,58,735,29,796,131,323,387,82,779,141,286,238,99,724,35,69,758,544,70,461,57,706,774,592,186,79,590,293,654,683,716,340,10,736,26,484,504,321,385,669,466,347,625,369,509,130,699,556,697,555,520,148,292,414,63,252,764,474,337,178,568,486,100,531,216,717,646,722,671,41,106,421,591,754,11,495,274,694,39,112,445,114,202,718,537,647,743,90,440,749,514,229,152,690,338,354,222,720,272,191,64,623,156,615,206,276,477,417,187,783,756,346,116,567,56,124,173,140,259,441,403,456,126,377,481,225,468,755,263,361,381,785,333,501,604,517,435,766,365,399,3,246,28,511,574,723,132,101,15,94,344,210,409,279,576,319,372,382,476,521,673,570,205,543,324,115,223,308,453,711,348,540,611,703,102,302,334,449,283,645,760,312,438,406,695,163,314,258,601,296,786,137,418,642,125,533,552,105,415,643,595,605,644,320,400,431,394,50,538,454,632,769,612,738,376,513,235,135,607,264,158,541,317,670,656,368,398,294,1,109,490,765,470,729,482,209,95,548,789,422,67,181,396,579,311,227,732,363,315,457,298,693,129,770,45,741,240,620,473,198,791,13,649,446,253,49,23,696,194,448,565,197,183,239,73,93,588,18,672,118,143,207,719,475,600,277,405,267,52,516,404,164,165,139,496,237,176,266,33,395,562,479,303,450,104,316,582,268,721,728,6,691,618,622,478,38,458,602,281,83,594,639,149,256,460,350,249,78,780,784,153,5,290,366,370,416,208,345,469,349,727,89,536,310,427,439,77,103,487,759,492,360,261,318,185,224,386,525,288,232,512,170,674,688,401,518,648,159,391,374,160,275,609,300,84,578,260,42,133,628,527,228,558,88,763,265,44,465,616,168,505,65,128,138,522,532,662,787,97,9,16,515,174,663,384,631,195,630,332,561,234,215,273,7,392,343,245,304,184,452,651,535,81,776,491,86,424,510,436,493,633,462,402,362,577,593,419,122,213,120,74,297,747,199,498,610,794,757,583,709,753,437,190,24,12,425,142,254,71,640,652,447,373,157,712,682,781,72,330,655,684,463,575,241,587,322,680,383,389,685,795,637,752,653,117,242,305,150,530,554,19,123,742,686,597,68,730,704,189,550,236,54,171,0,364,326,367,218,357,659,519,356,586,325,624,442,87,707,539,301,451,506,121,43,40,636,80,75,307,668,411,557,613,667,226,257,62,179,710,287,739,390,423,397,393,108,502,98,214,251,678,46,144,269,547,175,167,96,472,689,119,289,371,107,359,329,708,677,471,627,762,676,375,666,430,549,767,635,27,580,768,713,20,146,771,698,529,564,61,797,47,262,581]","arrowright","true","0","23","67","800","[""0099_N0800_K0067_NOCLIQUE"",""0024_N0800_K0067_CLIQUE""]"
