"width","height","webaudio","browser","browser_version","mobile","os","fullscreen","vsync_rate","webcam","microphone","trial_type","trial_index","time_elapsed","internal_node_id","value","success","timeout","failed_images","failed_audio","failed_video","view_history","rt","stimulus","response","nodes_order","correct_response","correct","block_index","presentation_index","clique_size","graph_size","graphs_names"
"1440","778","true","chrome","132.0.0","false","Mac OS","true","61.22","true","true","browser-check","0","981","0.0-0.0","","","","","","","","","","","","","","","","","",""
"","","","","","","","","","","","call-function","1","1007","0.0-1.0","","","","","","","","","","","","","","","","","",""
"","","","","","","","","","","","preload","2","1013","0.0-2.0","","true","false","[]","[]","[]","","","","","","","","","","","",""
"","","","","","","","","","","","pavlovia","3","1233","0.0-3.0","","","","","","","","","","","","","","","","","",""
"","","","","","","","","","","","instructions","4","9858","0.0-4.0","","","","","","","[{""page_index"":0,""viewing_time"":614},{""page_index"":1,""viewing_time"":8009}]","8623","","","","","","","","","",""
"","","","","","","","","","","","html-keyboard-response","5","12190","0.0-5.0-0.0","","","","","","","","2330","By accepting to participate in this study, you confirm:
                <p style='text-align:left'>
                    - That I have carefully read the explanations regarding this study and the entire experimental procedure;<br>
                    - That I have been informed about the aims and objectives of this research;<br>
                    - That I am aware of the inconveniences, if any, caused by the experiment;<br>
                    - That I have received satisfactory assurances regarding the confidentiality of the information obtained from the examination of my own person; <br>
                    - That I am aware that I can withdraw at any stage of the study.
                <p>
                <span style=""color: #808080"">
                    Press [Y] to <strong>accept</strong>.
                </span> <br>
                <span style=""color: #808080"">
                    Press [N] to <strong>refuse</strong>.
                </span>","n","","","","","","","",""
"","","","","","","","","","","","html-keyboard-response","6","14875","0.0-5.0-1.0-0.0","","","","","","","","2684","Do you confirm you refuse to go on?
            <p> 
                By pressing [Y], you will end the experiment <strong>without reward</strong> and will be redirected to Prolific.<br>
                By pressing [N] you will be redirected to the <strong>informed consent</strong> to read again the informations and accept the conditions.
            <p>
                <span style=""color: #808080"">Press [Y] to <strong>end the experiment</strong>.</span> <br>
                <span style=""color: #808080"">Press [N] to <strong>go back to the informed consent page</strong>.</span>","n","","","","","","","",""
"","","","","","","","","","","","html-keyboard-response","7","15809","0.0-5.1-0.1","","","","","","","","932","By accepting to participate in this study, you confirm:
                <p style='text-align:left'>
                    - That I have carefully read the explanations regarding this study and the entire experimental procedure;<br>
                    - That I have been informed about the aims and objectives of this research;<br>
                    - That I am aware of the inconveniences, if any, caused by the experiment;<br>
                    - That I have received satisfactory assurances regarding the confidentiality of the information obtained from the examination of my own person; <br>
                    - That I am aware that I can withdraw at any stage of the study.
                <p>
                <span style=""color: #808080"">
                    Press [Y] to <strong>accept</strong>.
                </span> <br>
                <span style=""color: #808080"">
                    Press [N] to <strong>refuse</strong>.
                </span>","y","","","","","","","",""
"","","","","","","","","","","","survey-html-form","8","22716","0.0-6.0","","","","","","","","6905","","{""gender"":""female"",""age"":""32""}","","","","","","","",""
"","","","","","","","","","","","preload","9","22783","0.0-7.0","","true","false","[]","[]","[]","","","","","","","","","","","",""
"","","","","","","","","","","","instructions","10","46715","0.0-8.0","","","","","","","[{""page_index"":0,""viewing_time"":1911},{""page_index"":1,""viewing_time"":114},{""page_index"":2,""viewing_time"":402},{""page_index"":3,""viewing_time"":178},{""page_index"":4,""viewing_time"":133},{""page_index"":5,""viewing_time"":149},{""page_index"":6,""viewing_time"":175},{""page_index"":7,""viewing_time"":157},{""page_index"":8,""viewing_time"":139},{""page_index"":9,""viewing_time"":186},{""page_index"":10,""viewing_time"":163},{""page_index"":11,""viewing_time"":146},{""page_index"":12,""viewing_time"":374},{""page_index"":13,""viewing_time"":169},{""page_index"":14,""viewing_time"":143},{""page_index"":15,""viewing_time"":154},{""page_index"":16,""viewing_time"":168},{""page_index"":17,""viewing_time"":194},{""page_index"":18,""viewing_time"":155},{""page_index"":19,""viewing_time"":159},{""page_index"":20,""viewing_time"":161},{""page_index"":21,""viewing_time"":173},{""page_index"":22,""viewing_time"":191},{""page_index"":23,""viewing_time"":172},{""page_index"":24,""viewing_time"":153},{""page_index"":25,""viewing_time"":167},{""page_index"":26,""viewing_time"":174},{""page_index"":27,""viewing_time"":171},{""page_index"":28,""viewing_time"":215},{""page_index"":29,""viewing_time"":199},{""page_index"":30,""viewing_time"":182},{""page_index"":31,""viewing_time"":222},{""page_index"":32,""viewing_time"":238},{""page_index"":33,""viewing_time"":847},{""page_index"":32,""viewing_time"":9416},{""page_index"":33,""viewing_time"":204},{""page_index"":34,""viewing_time"":210},{""page_index"":35,""viewing_time"":166},{""page_index"":36,""viewing_time"":160},{""page_index"":37,""viewing_time"":173},{""page_index"":38,""viewing_time"":176},{""page_index"":39,""viewing_time"":224},{""page_index"":40,""viewing_time"":317},{""page_index"":41,""viewing_time"":151},{""page_index"":42,""viewing_time"":159},{""page_index"":43,""viewing_time"":164},{""page_index"":44,""viewing_time"":176},{""page_index"":45,""viewing_time"":188},{""page_index"":46,""viewing_time"":323},{""page_index"":45,""viewing_time"":181},{""page_index"":44,""viewing_time"":189},{""page_index"":43,""viewing_time"":332},{""page_index"":42,""viewing_time"":404},{""page_index"":41,""viewing_time"":232},{""page_index"":42,""viewing_time"":185},{""page_index"":43,""viewing_time"":182},{""page_index"":44,""viewing_time"":174},{""page_index"":45,""viewing_time"":183},{""page_index"":46,""viewing_time"":202},{""page_index"":47,""viewing_time"":176},{""page_index"":48,""viewing_time"":164},{""page_index"":49,""viewing_time"":179},{""page_index"":50,""viewing_time"":158},{""page_index"":51,""viewing_time"":154}]","23933","","","","","","","","","",""
"","","","","","","","","","","","instructions","11","48703","0.0-9.0","","","","","","","[{""page_index"":0,""viewing_time"":1987}]","1987","","","","","","","","","",""
"","","","","","","","","","","","preload","12","48762","0.0-10.0","","true","false","[]","[]","[]","","","","","","","","","","","",""
"","","","","","","","","","","","image-keyboard-response","13","49205","0.0-11.0","","","","","","","","441","tutorial/p_reduce/task_familiarization_images/part 1/01_N160_K90_cliqueRight_question1.PNG"," ","","","","","","","",""
"","","","","","","","","","","","image-keyboard-response","14","49388","0.0-12.0","","","","","","","","182","tutorial/p_reduce/task_familiarization_images/part 1/02_N160_K90_cliqueRight_question2.PNG"," ","","","","","","","",""
"","","","","","","","","","","","image-keyboard-response","15","49855","0.0-13.0","","","","","","","","465","tutorial/p_reduce/task_familiarization_images/part 1/03_N160_K90_cliqueRight_question3.PNG","arrowright","","","","","","","",""
"","","","","","","","","","","","image-keyboard-response","16","50106","0.0-14.0","","","","","","","","249","tutorial/p_reduce/task_familiarization_images/part 1/04_N160_K90_cliqueRight_solution.PNG"," ","","","","","","","",""
"","","","","","","","","","","","image-keyboard-response","17","50331","0.0-15.0","","","","","","","","224","tutorial/p_reduce/task_familiarization_images/part 1/05_N160_K65_cliqueRight_question1.PNG"," ","","","","","","","",""
"","","","","","","","","","","","image-keyboard-response","18","50531","0.0-16.0","","","","","","","","198","tutorial/p_reduce/task_familiarization_images/part 1/06_N160_K65_cliqueRight_question2.PNG"," ","","","","","","","",""
"","","","","","","","","","","","image-keyboard-response","19","50761","0.0-17.0","","","","","","","","229","tutorial/p_reduce/task_familiarization_images/part 1/07_N160_K65_cliqueRight_question3.PNG","arrowright","","","","","","","",""
"","","","","","","","","","","","image-keyboard-response","20","50940","0.0-18.0","","","","","","","","178","tutorial/p_reduce/task_familiarization_images/part 1/08_N160_K65_cliqueRight_solution.PNG"," ","","","","","","","",""
"","","","","","","","","","","","image-keyboard-response","21","51197","0.0-19.0","","","","","","","","256","tutorial/p_reduce/task_familiarization_images/part 1/09_N160_K50_cliqueLeft_question1.PNG"," ","","","","","","","",""
"","","","","","","","","","","","image-keyboard-response","22","51402","0.0-20.0","","","","","","","","203","tutorial/p_reduce/task_familiarization_images/part 1/10_N160_K50_cliqueLeft_question2.PNG"," ","","","","","","","",""
"","","","","","","","","","","","image-keyboard-response","23","51562","0.0-21.0","","","","","","","","159","tutorial/p_reduce/task_familiarization_images/part 1/11_N160_K50_cliqueLeft_question3.PNG","arrowleft","","","","","","","",""
"","","","","","","","","","","","image-keyboard-response","24","51717","0.0-22.0","","","","","","","","153","tutorial/p_reduce/task_familiarization_images/part 1/12_N160_K50_cliqueLeft_solution.PNG"," ","","","","","","","",""
"","","","","","","","","","","","image-keyboard-response","25","51897","0.0-23.0","","","","","","","","179","tutorial/p_reduce/task_familiarization_images/part 1/13_N160_K80_cliqueLeft_question1.PNG"," ","","","","","","","",""
"","","","","","","","","","","","image-keyboard-response","26","52116","0.0-24.0","","","","","","","","217","tutorial/p_reduce/task_familiarization_images/part 1/14_N160_K80_cliqueLeft_question2.PNG"," ","","","","","","","",""
"","","","","","","","","","","","image-keyboard-response","27","52466","0.0-25.0","","","","","","","","349","tutorial/p_reduce/task_familiarization_images/part 1/15_N160_K80_cliqueLeft_question3.PNG","arrowleft","","","","","","","",""
"","","","","","","","","","","","image-keyboard-response","28","52646","0.0-26.0","","","","","","","","178","tutorial/p_reduce/task_familiarization_images/part 1/16_N160_K80_cliqueLeft_solution.PNG"," ","","","","","","","",""
"","","","","","","","","","","","image-keyboard-response","29","52826","0.0-27.0","","","","","","","","179","tutorial/p_reduce/task_familiarization_images/part 1/17_N160_K40_cliqueRight_question1.PNG"," ","","","","","","","",""
"","","","","","","","","","","","image-keyboard-response","30","53076","0.0-28.0","","","","","","","","248","tutorial/p_reduce/task_familiarization_images/part 1/18_N160_K40_cliqueRight_question2.PNG"," ","","","","","","","",""
"","","","","","","","","","","","image-keyboard-response","31","53315","0.0-29.0","","","","","","","","238","tutorial/p_reduce/task_familiarization_images/part 1/19_N160_K40_cliqueRight_question3.PNG","arrowright","","","","","","","",""
"","","","","","","","","","","","image-keyboard-response","32","53503","0.0-30.0","","","","","","","","186","tutorial/p_reduce/task_familiarization_images/part 1/20_N160_K40_cliqueRight_solution.PNG"," ","","","","","","","",""
"","","","","","","","","","","","image-keyboard-response","33","53731","0.0-31.0","","","","","","","","227","tutorial/p_reduce/task_familiarization_images/part 1/21_N160_K70_cliqueLeft_question1.PNG"," ","","","","","","","",""
"","","","","","","","","","","","image-keyboard-response","34","53936","0.0-32.0","","","","","","","","203","tutorial/p_reduce/task_familiarization_images/part 1/22_N160_K70_cliqueLeft_question2.PNG"," ","","","","","","","",""
"","","","","","","","","","","","image-keyboard-response","35","54141","0.0-33.0","","","","","","","","204","tutorial/p_reduce/task_familiarization_images/part 1/23_N160_K70_cliqueLeft_question3.PNG","arrowleft","","","","","","","",""
"","","","","","","","","","","","image-keyboard-response","36","54303","0.0-34.0","","","","","","","","160","tutorial/p_reduce/task_familiarization_images/part 1/24_N160_K70_cliqueLeft_solution.PNG"," ","","","","","","","",""
"","","","","","","","","","","","preload","37","54359","0.0-35.0","","true","false","[]","[]","[]","","","","","","","","","","","",""
"","","","","","","","","","","","image-keyboard-response","38","54558","0.0-36.0","","","","","","","","199","tutorial/p_reduce/task_familiarization_images/part 2/01_N160_K80_cliqueLeft_withFeedback_1.PNG"," ","","","","","","","",""
"","","","","","","","","","","","image-keyboard-response","39","54799","0.0-37.0","","","","","","","","240","tutorial/p_reduce/task_familiarization_images/part 2/02_N160_K80_cliqueLeft_withFeedback_2.PNG"," ","","","","","","","",""
"","","","","","","","","","","","image-keyboard-response","40","55060","0.0-38.0","","","","","","","","259","tutorial/p_reduce/task_familiarization_images/part 2/03_N160_K80_cliqueLeft_withFeedback_3.PNG","arrowleft","","","","","","","",""
"","","","","","","","","","","","image-keyboard-response","41","55236","0.0-39.0","","","","","","","","172","tutorial/p_reduce/task_familiarization_images/part 2/04_N160_K80_cliqueLeft_withFeedback_correct.PNG"," ","","","","","","","",""
"","","","","","","","","","","","image-keyboard-response","42","55493","0.0-40.0","","","","","","","","256","tutorial/p_reduce/task_familiarization_images/part 2/05_N160_K55_cliqueRight_withFeedback_1.PNG"," ","","","","","","","",""
"","","","","","","","","","","","image-keyboard-response","43","55671","0.0-41.0","","","","","","","","176","tutorial/p_reduce/task_familiarization_images/part 2/06_N160_K55_cliqueRight_withFeedback_2.PNG"," ","","","","","","","",""
"","","","","","","","","","","","image-keyboard-response","44","55844","0.0-42.0","","","","","","","","173","tutorial/p_reduce/task_familiarization_images/part 2/07_N160_K55_cliqueRight_withFeedback_3.PNG","arrowright","","","","","","","",""
"","","","","","","","","","","","image-keyboard-response","45","56099","0.0-43.0","","","","","","","","254","tutorial/p_reduce/task_familiarization_images/part 2/08_N160_K55_cliqueRight_withFeedback_correct.PNG"," ","","","","","","","",""
"","","","","","","","","","","","image-keyboard-response","46","56341","0.0-44.0","","","","","","","","240","tutorial/p_reduce/task_familiarization_images/part 2/09_N160_K70_cliqueLeft_withFeedback_1.PNG"," ","","","","","","","",""
"","","","","","","","","","","","image-keyboard-response","47","56527","0.0-45.0","","","","","","","","185","tutorial/p_reduce/task_familiarization_images/part 2/10_N160_K70_cliqueLeft_withFeedback_2.PNG"," ","","","","","","","",""
"","","","","","","","","","","","image-keyboard-response","48","56714","0.0-46.0","","","","","","","","185","tutorial/p_reduce/task_familiarization_images/part 2/11_N160_K70_cliqueLeft_withFeedback_3.PNG","arrowleft","","","","","","","",""
"","","","","","","","","","","","image-keyboard-response","49","56892","0.0-47.0","","","","","","","","176","tutorial/p_reduce/task_familiarization_images/part 2/12_N160_K70_cliqueLeft_withFeedback_correct.PNG"," ","","","","","","","",""
"","","","","","","","","","","","preload","50","56925","0.0-48.0","","true","false","[]","[]","[]","","","","","","","","","","","",""
"","","","","","","","","","","","instructions","51","57907","0.0-49.0","","","","","","","[{""page_index"":0,""viewing_time"":981}]","981","","","","","","","","","",""
"","","","","","","","","","","","fullscreen","52","60846","0.0-51.0","","true","","","","","","","","","","","","","","","",""
"","","","","","","","","","","","canvas-keyboard-response","53","85069","0.0-52.0-0.0-0.0","","","","","","","","23867","","arrowright","[777,279,476,627,200,135,656,837,36,669,770,49,706,20,457,171,952,365,525,813,136,19,831,330,307,986,181,584,843,767,348,425,432,407,192,557,628,215,606,391,139,655,368,191,243,972,651,421,180,974,21,637,685,696,95,838,480,393,585,160,48,787,166,323,472,746,154,756,379,112,440,442,969,743,260,134,953,108,921,631,647,110,149,879,197,406,769,7,753,951,69,566,788,118,422,230,727,127,299,477,600,131,822,254,84,496,793,817,446,940,466,42,186,748,705,848,40,409,800,615,198,351,814,481,895,138,214,176,625,621,2,861,996,933,847,567,855,930,589,643,545,301,219,765,385,326,687,384,632,823,353,896,448,803,865,596,235,321,413,46,792,836,13,935,428,402,549,815,420,553,366,106,560,261,318,460,708,608,686,541,456,763,98,256,71,327,992,143,482,725,419,22,618,575,775,798,383,993,35,709,377,880,807,826,140,552,723,779,720,695,435,963,68,121,59,864,857,14,889,273,486,829,433,534,337,109,923,875,518,699,507,573,922,684,737,324,724,576,979,358,882,206,598,473,162,760,94,806,231,208,712,297,86,62,389,173,715,8,694,251,370,772,578,859,758,540,682,322,976,624,877,312,328,733,29,372,474,268,505,415,170,852,604,538,47,488,152,15,851,704,247,586,638,726,926,196,388,558,238,492,24,18,352,179,317,591,443,644,738,300,303,79,721,729,459,195,717,872,697,395,414,495,30,888,636,221,533,918,810,439,52,298,253,784,984,771,386,490,437,344,194,276,380,429,73,382,475,884,338,100,252,430,287,483,63,515,559,76,749,674,25,839,469,692,66,102,120,117,229,934,104,116,497,500,43,335,438,916,77,468,832,450,944,954,478,908,72,818,491,928,903,991,9,943,970,212,78,296,445,998,941,856,470,532,81,956,961,988,97,240,664,678,89,617,142,241,190,801,354,622,4,958,137,153,271,345,282,308,660,919,536,893,689,820,82,860,315,736,653,790,129,168,502,925,93,441,399,985,255,451,899,794,862,703,508,701,408,535,237,871,174,156,785,60,223,809,693,620,909,92,550,920,103,284,182,285,911,661,411,650,376,427,828,544,479,522,74,313,203,975,144,39,811,119,799,640,616,745,580,551,412,937,45,410,629,264,680,16,267,172,503,570,454,320,554,977,867,188,858,33,369,115,177,423,907,67,124,583,897,967,722,207,272,646,825,493,531,673,572,670,645,12,711,523,750,133,605,293,504,290,302,579,588,982,824,633,205,340,561,463,487,471,786,185,44,582,275,947,213,905,289,401,511,485,341,403,498,217,513,658,960,245,319,357,516,874,841,866,844,390,648,599,517,325,968,924,906,569,514,309,886,892,962,612,676,265,568,997,757,942,764,201,400,702,361,506,683,234,878,449,827,359,519,780,184,1,447,994,10,360,870,458,821,65,125,665,331,461,266,762,912,873,713,773,257,744,311,57,444,900,987,364,99,577,619,17,978,548,306,374,602,381,292,288,342,126,761,672,565,332,250,159,54,562,34,280,741,946,915,949,842,339,51,759,178,64,662,939,751,542,732,291,593,592,714,971,910,611,805,869,464,776,574,363,671,901,642,199,424,225,489,555,564,904,885,462,747,675,846,434,233,132,55,796,130,752,914,5,465,28,710,262,601,373,484,392,418,520,789,87,932,405,938,782,316,394,850,85,404,343,128,830,654,527,945,730,155,122,819,539,902,808,597,543,863,349,742,218,739,11,677,781,158,202,164,249,246,913,853,333,891,398,795,286,304,802,244,849,731,161,347,145,791,603,111,211,955,890,728,529,563,228,151,740,707,494,362,210,157,626,623,123,691,314,274,75,845,530,667,854,595,70,346,258,367,277,163,995,734,698,657,204,50,659,835,881,61,101,216,31,269,959,270,521,167,114,431,833,679,980,609,735,537,336,635,957,797,283,150,528,417,898,990,224,887,983,936,681,169,666,58,193,668,716,263,840,278,452,147,754,259,209,436,546,594,227,614,96,113,148,804,334,310,634,883,999,37,236,929,639,783,90,931,688,107,6,329,183,305,641,965,917,950,53,387,3,834,524,455,91,630,894,989,964,768,607,220,610,56,23,281,774,32,526,83,222,512,587,146,510,755,187,27,175,649,41,719,239,581,226,652,0,397,355,248,509,378,590,80,547,927,966,375,165,700,371,663,189,350,426,868,26,571,501,38,816,718,453,467,396,141,876,778,232,499,416,105,242,356,613,295,88,948,973,294,690,556,812,766,981]","arrowright","true","0","0","300","1000","[""0086_N1000_K0300_NOCLIQUE"",""0023_N1000_K0300_CLIQUE""]"
"","","","","","","","","","","","audio-keyboard-response","54","86108","0.0-52.0-0.0-1.0","","","","","","","","null","audio_feedback/right/coin01.mp3","null","","","","0","0","300","1000","[""0086_N1000_K0300_NOCLIQUE"",""0023_N1000_K0300_CLIQUE""]"
"","","","","","","","","","","","canvas-keyboard-response","55","195981","0.0-53.0-0.0-0.0","","","","","","","","109558","","arrowright","[853,923,443,103,905,660,271,59,209,302,318,281,161,869,491,95,531,263,287,418,215,976,48,570,683,431,819,913,990,63,244,300,835,145,390,924,602,478,80,259,99,424,374,137,379,874,780,200,372,901,968,157,383,471,836,226,292,417,362,711,81,484,376,903,174,892,169,522,309,87,439,147,386,530,205,341,480,47,512,926,716,133,565,190,458,983,652,876,757,375,854,182,329,107,813,904,664,975,685,596,0,393,829,266,568,449,994,204,741,621,401,28,953,943,312,637,463,294,562,663,320,240,323,635,974,222,251,559,154,91,861,914,732,627,191,100,859,885,722,179,166,752,681,141,618,619,409,934,845,918,803,888,843,571,297,725,494,935,932,198,519,550,283,238,492,687,644,472,30,776,629,750,791,74,132,981,631,717,142,162,682,957,96,865,756,315,662,339,24,79,220,62,288,890,870,729,285,328,331,699,907,12,346,535,521,768,733,134,572,49,278,447,580,910,735,967,460,993,864,947,181,227,556,987,646,415,146,293,267,264,928,343,867,43,988,19,495,13,488,454,706,805,361,616,210,231,136,808,208,156,544,951,127,689,248,419,940,94,151,18,126,767,509,781,9,505,199,333,325,872,234,718,796,303,357,771,617,641,400,345,567,124,377,578,720,969,998,113,898,560,691,149,481,700,740,282,444,212,679,429,773,912,553,636,991,175,184,896,528,232,246,430,299,748,600,986,944,435,566,633,84,352,193,474,470,754,743,584,511,6,25,922,485,117,978,370,321,628,490,703,880,373,529,10,143,894,715,517,46,148,507,499,219,135,416,395,927,762,434,948,889,247,64,902,982,841,254,630,338,815,655,525,445,51,589,197,651,625,225,41,817,392,243,349,477,389,518,684,543,274,461,500,973,871,806,405,755,394,189,72,723,104,634,595,355,42,502,67,727,173,897,971,719,558,469,603,591,549,979,36,236,537,82,342,709,851,101,109,701,777,76,188,498,804,305,195,125,31,539,116,421,218,643,131,593,728,887,482,822,228,657,347,533,276,960,877,807,118,941,510,277,350,984,816,45,965,163,609,958,403,313,826,848,667,364,623,77,666,708,289,20,809,122,678,852,316,255,44,555,878,893,391,290,457,68,936,573,39,520,579,724,920,668,465,177,33,506,159,115,451,765,900,202,972,753,598,378,604,840,269,102,187,404,671,27,677,778,760,61,721,999,203,453,286,196,916,586,686,381,367,120,455,842,784,380,561,185,950,194,22,172,253,223,257,433,694,2,552,216,356,545,672,23,891,114,574,250,167,647,106,799,217,493,152,473,406,83,546,582,863,594,838,144,516,291,795,564,850,608,35,396,929,961,71,322,65,487,17,112,882,868,508,911,221,622,139,656,489,119,575,758,524,388,592,501,420,828,335,365,462,3,607,503,275,942,692,93,774,348,742,446,997,956,921,515,211,908,605,384,587,332,50,128,336,29,955,772,110,58,201,751,256,252,536,75,980,823,249,734,736,946,713,611,55,675,747,714,650,798,794,879,811,366,844,26,800,164,966,273,810,855,704,963,514,992,937,541,996,775,442,695,37,669,557,279,824,397,11,577,563,192,456,540,436,737,698,599,790,486,354,97,34,121,793,624,432,906,547,239,787,697,337,640,425,783,398,642,344,233,615,649,270,178,245,954,402,612,538,340,8,661,554,314,414,866,964,150,933,268,78,382,534,54,513,176,467,52,665,690,88,814,426,576,899,585,856,57,917,761,452,298,645,827,466,881,183,688,745,789,165,673,802,938,820,422,475,4,69,702,327,140,160,86,138,830,886,229,834,738,324,532,985,265,214,258,284,464,363,763,818,5,504,849,620,696,962,261,939,130,759,171,862,38,1,786,98,785,280,230,839,108,186,995,296,371,959,746,326,825,408,260,412,295,170,658,368,410,769,764,427,915,330,129,833,92,832,360,638,744,359,399,523,837,56,930,613,693,224,450,551,235,32,16,648,105,241,496,90,7,989,770,597,206,797,111,705,875,353,590,437,438,40,476,527,831,73,14,749,766,676,53,459,304,387,306,158,931,468,15,812,919,581,542,801,153,606,308,739,583,207,730,351,358,440,272,168,413,909,895,788,952,21,970,307,89,614,411,883,925,369,483,180,680,497,407,428,311,726,237,884,334,242,977,712,85,632,385,60,448,639,659,479,707,441,319,601,569,949,262,873,779,846,70,66,653,731,123,548,526,610,588,213,847,155,654,782,945,860,301,710,423,792,670,626,310,317,858,821,674,857]","arrowright","true","0","1","300","1000","[""0096_N1000_K0300_NOCLIQUE"",""0065_N1000_K0300_CLIQUE""]"
"","","","","","","","","","","","audio-keyboard-response","56","197019","0.0-53.0-0.0-1.0","","","","","","","","null","audio_feedback/right/coin01.mp3","null","","","","0","1","300","1000","[""0096_N1000_K0300_NOCLIQUE"",""0065_N1000_K0300_CLIQUE""]"
"","","","","","","","","","","","canvas-keyboard-response","57","198160","0.0-54.0-0.0-0.0","","","","","","","","795","","arrowright","[480,995,679,433,452,992,636,462,105,781,731,565,626,820,801,155,623,485,830,743,110,142,93,189,209,665,844,757,918,680,986,501,845,657,893,169,886,536,13,580,106,567,955,628,882,113,978,10,181,786,332,205,756,96,59,564,252,905,84,742,625,129,923,589,701,164,765,204,216,512,294,694,855,375,439,307,724,568,991,824,939,934,453,390,162,200,176,688,617,875,769,546,802,436,274,730,499,130,890,493,11,607,541,972,599,505,482,865,789,632,76,747,864,543,140,269,689,334,851,34,761,180,92,937,443,95,364,270,754,259,881,711,69,678,127,767,2,884,598,202,133,236,922,795,172,326,340,234,551,524,191,681,171,387,813,758,637,360,854,366,836,135,354,309,157,21,90,692,839,547,369,878,254,232,676,946,818,16,846,693,914,391,739,471,195,134,63,691,392,776,555,42,673,725,759,750,39,592,671,718,196,313,869,168,136,478,368,271,753,806,150,721,242,117,880,883,910,330,98,261,344,12,578,734,401,141,961,277,929,597,456,821,444,861,834,460,427,46,286,197,487,936,726,179,220,949,454,492,293,262,906,660,596,233,174,102,301,402,147,41,712,237,585,468,67,495,435,879,710,60,722,862,741,82,812,979,566,872,393,292,577,331,214,889,422,896,282,300,239,213,805,99,775,974,744,919,296,614,602,47,85,374,885,65,915,74,78,320,464,652,803,498,440,586,594,945,921,572,764,116,370,800,192,429,118,225,659,3,940,876,684,396,412,629,569,241,15,295,715,257,650,913,888,222,66,349,491,573,933,14,525,894,895,278,630,449,226,64,426,538,856,517,31,943,762,947,717,319,6,395,574,794,398,380,312,901,975,980,246,287,70,38,362,310,472,993,249,265,175,399,695,437,215,982,240,339,451,772,348,927,377,185,470,669,346,920,815,784,670,26,832,211,447,77,290,755,987,520,182,357,534,154,773,203,17,68,289,72,373,808,510,719,966,957,829,860,273,218,746,720,621,243,971,111,18,131,465,20,941,526,853,965,550,379,699,381,178,826,557,193,36,73,404,930,450,981,540,792,970,559,448,457,104,791,509,563,219,383,442,556,908,27,528,407,911,873,388,284,128,823,544,545,698,785,308,417,859,996,640,145,639,184,306,389,529,302,942,518,666,101,139,207,897,250,7,378,44,61,866,419,494,384,397,351,322,748,788,723,732,600,522,466,408,648,828,350,687,490,868,1,871,643,515,760,91,777,279,143,985,324,355,653,549,89,944,685,5,804,633,107,558,198,615,248,253,983,86,513,552,108,811,963,0,235,288,542,166,817,976,899,371,329,651,151,255,951,807,579,507,847,850,333,638,999,421,931,606,54,386,835,658,819,79,423,843,610,852,455,593,88,311,990,590,469,502,365,148,367,75,912,583,903,496,463,187,798,272,445,32,503,52,663,641,256,925,244,952,561,489,647,708,697,230,266,458,749,674,201,304,337,146,229,30,22,709,347,45,735,361,570,224,997,618,954,23,335,152,409,416,953,500,55,581,745,382,413,595,677,716,634,948,935,173,917,704,316,620,321,988,900,967,231,49,752,508,94,8,892,83,571,317,323,771,24,53,530,964,199,315,223,406,840,238,924,816,441,56,553,87,112,188,170,506,227,123,736,37,533,137,298,212,909,668,887,363,575,50,40,438,71,206,258,376,19,385,103,714,474,514,644,702,410,797,728,751,228,400,149,703,646,217,857,177,926,405,631,664,977,338,4,778,260,428,167,275,932,738,814,959,654,962,208,158,356,353,318,604,126,532,838,584,587,58,989,280,535,635,210,582,285,627,796,144,774,263,809,707,612,291,245,613,352,560,461,842,327,299,281,793,969,591,372,247,605,33,415,25,686,780,183,874,486,475,314,325,403,737,336,956,904,481,425,655,159,763,727,504,477,696,672,690,733,770,841,221,867,958,43,916,548,165,138,782,706,645,870,649,153,783,430,432,341,539,394,799,267,268,125,682,29,109,863,766,616,186,497,345,122,9,810,523,973,683,484,562,849,411,603,609,276,827,194,62,81,877,190,414,822,608,622,328,343,907,662,729,57,305,163,537,511,661,424,624,124,928,891,418,476,115,611,80,554,264,479,831,960,119,160,656,161,642,342,516,446,968,521,700,984,473,848,132,858,120,251,531,28,790,51,768,998,431,588,121,619,420,576,675,114,902,833,950,898,779,488,994,97,156,938,35,100,483,667,527,359,467,459,48,837,740,283,825,713,519,434,297,601,303,705,787,358]","arrowright","true","0","2","267","1000","[""0023_N1000_K0267_NOCLIQUE"",""0034_N1000_K0267_CLIQUE""]"
"","","","","","","","","","","","audio-keyboard-response","58","199173","0.0-54.0-0.0-1.0","","","","","","","","null","audio_feedback/right/coin01.mp3","null","","","","0","2","267","1000","[""0023_N1000_K0267_NOCLIQUE"",""0034_N1000_K0267_CLIQUE""]"
"","","","","","","","","","","","canvas-keyboard-response","59","200219","0.0-55.0-0.0-0.0","","","","","","","","697","","arrowright","[945,973,724,789,382,83,255,804,147,61,49,997,150,137,424,9,559,113,794,62,886,256,821,262,622,731,429,538,613,616,44,103,857,658,954,172,722,885,282,596,4,90,637,797,571,486,436,978,966,796,361,725,35,524,494,80,60,189,493,917,767,266,343,130,806,708,636,11,127,10,405,563,181,713,47,816,198,399,217,689,506,507,710,107,5,341,992,342,641,887,312,23,314,654,29,798,663,392,247,249,441,569,168,669,758,489,466,698,604,549,349,195,714,771,65,897,557,106,350,753,661,888,927,446,620,274,241,86,164,990,302,389,68,336,769,456,709,231,846,178,652,104,859,50,881,187,580,582,156,625,381,51,952,483,460,332,985,546,56,912,502,404,264,298,229,439,845,112,235,348,946,770,306,923,555,208,762,801,861,720,733,330,70,360,465,639,711,820,983,495,749,467,84,523,455,498,915,968,960,459,443,680,374,223,957,428,595,673,809,485,398,396,660,364,819,889,716,326,201,414,558,27,159,873,573,896,913,949,761,781,275,882,826,656,162,911,14,141,577,645,510,470,980,564,545,754,197,327,829,962,66,93,644,838,883,895,671,686,803,918,940,996,935,445,211,194,126,174,864,338,207,234,171,304,265,741,170,974,738,657,624,301,118,490,601,879,100,692,430,111,480,419,409,390,606,562,602,837,700,20,232,760,995,646,74,608,237,659,817,745,728,699,119,696,242,843,437,453,501,744,12,499,955,323,426,965,357,778,458,969,148,192,444,900,87,105,609,519,41,892,38,427,665,487,358,800,259,283,808,252,310,849,209,621,518,228,251,906,979,594,363,216,872,69,691,730,723,368,482,316,143,45,987,165,717,145,787,568,813,922,697,334,473,294,280,488,751,755,72,532,878,561,737,683,239,970,526,144,934,385,179,715,505,920,43,146,984,999,587,780,503,58,191,117,378,504,605,331,975,88,844,308,736,365,986,852,260,550,136,26,779,759,317,108,273,830,151,589,553,823,185,500,408,792,406,193,442,481,472,78,668,24,200,155,537,576,221,474,81,840,324,743,339,628,547,988,457,311,132,508,449,279,677,541,814,734,517,511,375,366,417,384,452,6,227,775,173,371,839,642,928,643,183,42,631,188,21,768,704,99,810,721,431,764,525,512,166,205,588,395,629,719,599,115,742,463,287,133,121,288,412,543,932,788,321,757,811,245,202,471,795,522,799,856,182,530,36,19,836,48,515,268,899,138,479,647,292,243,702,805,2,578,271,39,354,367,97,257,40,554,682,212,891,790,478,313,380,676,678,388,693,46,315,286,732,685,140,687,299,773,447,950,7,607,149,22,812,615,718,542,651,534,905,277,295,476,740,590,253,675,335,963,536,784,727,539,167,581,701,433,75,322,535,92,407,924,347,831,158,672,477,556,353,169,464,203,1,284,842,869,161,815,981,909,469,101,560,496,462,18,131,63,344,484,230,584,356,548,735,529,397,318,15,394,387,250,853,309,876,593,516,824,572,423,640,890,910,874,413,37,782,64,603,386,598,421,977,370,875,825,96,124,263,827,497,238,851,377,614,976,246,916,450,964,91,52,425,225,296,944,833,0,300,921,226,533,491,967,772,694,77,623,908,186,707,213,552,998,667,858,157,291,871,248,125,438,142,362,214,94,346,8,688,841,401,85,565,653,340,626,914,712,71,739,902,76,236,832,926,176,120,540,376,834,681,28,67,411,59,619,379,706,32,418,435,400,936,267,114,570,750,574,57,33,359,153,293,862,600,177,880,372,319,297,393,566,931,451,420,551,674,705,567,662,303,633,746,254,783,199,756,73,261,785,752,544,835,670,618,528,102,290,630,894,285,461,610,634,184,355,953,993,454,818,695,369,991,941,152,196,329,175,971,948,592,509,210,855,763,13,218,893,128,204,802,163,110,333,585,666,942,278,959,939,337,972,907,410,281,53,866,276,402,134,139,122,468,527,373,776,898,863,777,877,30,904,865,650,655,269,632,307,25,943,961,233,612,884,937,597,774,579,244,222,649,415,345,531,240,726,391,206,351,933,270,190,416,55,747,575,432,807,870,352,648,703,925,305,224,514,947,901,822,748,930,951,79,919,583,903,17,791,521,258,3,828,729,635,989,116,938,664,89,679,766,82,54,591,690,958,994,586,16,434,793,272,513,325,219,982,638,31,868,289,847,34,180,617,854,850,98,492,95,320,403,765,129,154,123,475,929,786,611,440,848,956,860,684,383,867,160,215,328,220,109,135,520,627,422,448]","arrowright","true","0","3","267","1000","[""0044_N1000_K0267_NOCLIQUE"",""0052_N1000_K0267_CLIQUE""]"
"","","","","","","","","","","","audio-keyboard-response","60","201243","0.0-55.0-0.0-1.0","","","","","","","","null","audio_feedback/right/coin01.mp3","null","","","","0","3","267","1000","[""0044_N1000_K0267_NOCLIQUE"",""0052_N1000_K0267_CLIQUE""]"
"","","","","","","","","","","","canvas-keyboard-response","61","202966","0.0-56.0-0.0-0.0","","","","","","","","1395","","arrowright","[443,869,680,226,641,890,761,577,418,597,230,479,305,280,343,431,499,289,373,340,363,70,906,956,966,547,404,366,351,515,643,531,749,178,59,299,875,186,549,395,371,457,757,406,574,922,122,726,469,855,705,900,628,428,897,519,617,143,836,639,52,184,592,717,960,565,891,735,867,635,538,936,706,249,786,581,700,738,819,51,568,256,550,605,303,703,45,730,330,528,729,295,663,6,588,95,269,245,350,412,27,200,579,517,116,678,71,926,196,110,521,889,781,488,660,759,456,420,315,864,722,36,463,168,284,728,812,898,760,874,472,782,194,784,610,157,793,140,544,102,203,560,545,725,131,346,342,598,818,459,626,206,304,733,3,979,883,645,427,419,238,193,248,978,839,55,237,858,317,403,669,465,708,803,844,244,424,225,163,292,821,584,508,29,381,932,258,417,524,282,313,156,429,986,489,172,345,252,606,273,948,920,266,870,964,91,170,696,925,804,546,973,975,563,393,509,971,632,83,347,980,602,631,603,233,750,267,773,880,739,962,755,430,833,318,195,543,440,374,965,851,476,902,552,311,993,919,611,486,222,657,856,619,853,709,809,622,298,322,684,718,137,731,967,174,155,691,601,780,78,575,976,616,158,520,646,713,14,775,103,885,882,737,681,162,863,445,591,90,649,953,212,480,30,857,991,89,752,484,719,204,35,908,180,943,860,176,868,799,720,548,467,139,810,734,221,493,385,634,367,826,65,375,85,723,286,825,692,461,132,387,235,352,849,992,243,356,167,270,905,945,160,142,629,357,187,339,901,165,114,301,227,640,108,541,447,582,218,251,278,25,257,40,769,316,185,144,64,766,31,746,675,177,772,405,84,981,789,571,580,572,101,558,707,446,665,325,502,884,211,331,324,653,999,972,661,145,935,152,183,112,758,136,24,954,370,950,207,989,969,623,958,516,915,11,94,391,198,896,423,872,566,378,498,20,513,667,946,138,19,817,747,787,4,765,928,937,805,990,923,627,191,621,841,534,0,876,254,271,500,229,124,702,501,72,771,202,959,58,903,815,800,255,893,742,247,364,753,682,348,551,401,745,199,732,578,250,562,309,740,522,13,485,843,359,234,28,308,61,452,38,320,48,801,2,677,336,120,277,439,904,307,744,655,358,421,614,188,676,454,987,794,150,362,982,92,21,961,743,173,468,326,327,688,382,573,460,426,127,887,17,236,785,942,877,651,453,415,494,265,970,483,275,505,714,658,778,604,293,376,596,1,462,828,852,474,916,526,213,279,33,590,674,796,369,715,529,166,414,511,998,878,481,561,608,402,736,106,169,912,97,104,281,530,448,151,593,559,514,466,296,147,73,647,536,75,615,380,283,710,335,811,397,223,74,770,910,43,408,354,997,130,633,179,434,854,192,585,490,15,115,297,941,205,527,441,119,113,217,171,154,79,911,246,77,272,197,712,659,220,264,845,478,190,503,66,240,846,832,259,510,37,319,477,988,930,300,437,838,848,482,673,398,260,41,410,983,777,873,666,984,921,310,349,455,433,164,450,576,555,355,642,50,699,539,377,618,121,637,63,69,22,134,951,353,117,512,748,47,360,865,751,228,16,82,564,947,679,96,888,219,224,444,879,768,861,776,333,432,940,671,830,625,797,111,332,365,694,727,599,589,53,957,109,798,927,914,135,241,899,32,436,662,652,553,388,379,683,586,840,146,866,215,18,425,654,153,837,383,686,834,507,924,871,783,938,535,34,321,57,62,54,129,687,208,189,697,290,392,10,413,125,859,518,76,314,994,407,600,724,831,670,306,399,288,813,442,435,86,820,949,952,7,802,612,328,67,118,842,471,214,341,209,917,504,985,638,695,329,701,26,974,394,624,128,542,814,918,792,648,698,595,201,892,523,556,754,968,294,644,532,133,537,338,996,390,100,716,650,525,764,291,795,263,8,583,963,741,161,384,835,368,567,620,944,721,850,823,668,913,98,955,80,533,664,46,808,416,554,909,181,44,107,56,894,389,995,232,609,636,907,816,570,438,790,93,939,99,756,361,693,409,239,689,767,422,285,827,807,492,470,182,23,977,931,451,774,274,344,276,607,60,491,690,9,5,779,540,475,126,88,685,613,763,458,506,587,81,411,334,148,822,497,39,881,49,762,302,312,287,268,231,824,656,449,175,672,487,704,862,323,242,123,933,791,886,216,496,934,12,372,262,210,473,141,594,386,630,42,929,337,149,400,495,569,847,105,806,261,464,711,253,788,557,895,68,87,159,829,396]","arrowright","true","0","4","233","1000","[""0091_N1000_K0233_NOCLIQUE"",""0069_N1000_K0233_CLIQUE""]"
"","","","","","","","","","","","audio-keyboard-response","62","203973","0.0-56.0-0.0-1.0","","","","","","","","null","audio_feedback/right/coin01.mp3","null","","","","0","4","233","1000","[""0091_N1000_K0233_NOCLIQUE"",""0069_N1000_K0233_CLIQUE""]"
"","","","","","","","","","","","canvas-keyboard-response","63","206150","0.0-57.0-0.0-0.0","","","","","","","","1841","","arrowright","[869,75,278,705,229,388,376,816,192,417,62,39,707,973,8,617,719,511,336,612,546,841,205,754,379,261,143,714,534,933,53,525,413,410,239,639,100,932,740,951,411,81,782,540,945,593,77,860,998,385,407,943,485,325,383,863,468,743,566,867,938,696,824,86,37,882,764,277,521,153,662,217,204,634,990,875,403,929,110,896,907,941,539,327,718,87,187,741,182,609,846,814,478,463,254,202,394,195,326,19,762,409,282,177,316,190,233,586,627,765,791,34,758,947,864,836,923,832,335,471,813,515,175,691,344,988,333,185,456,883,552,826,366,22,688,490,997,248,108,188,136,712,686,289,76,341,451,206,434,414,365,157,140,111,158,854,290,930,827,121,307,118,183,572,965,769,783,436,821,115,292,264,226,30,309,893,642,144,164,299,68,939,787,507,464,351,961,554,128,502,942,570,285,302,493,496,795,587,576,373,761,370,51,94,776,647,267,518,538,198,514,598,532,231,982,176,615,670,839,399,856,755,247,616,425,482,970,931,626,589,453,134,789,666,288,457,994,57,664,181,843,404,721,738,234,18,855,567,476,745,527,613,79,536,269,920,934,967,709,633,541,311,865,517,974,44,318,262,614,149,421,823,214,819,584,807,523,390,120,596,975,950,736,405,890,375,47,675,531,82,430,553,904,889,497,510,723,314,623,964,892,506,406,529,0,216,818,946,673,628,320,480,857,343,224,725,250,850,138,135,342,1,953,300,256,800,559,24,551,194,232,949,760,298,858,340,243,154,874,495,28,168,728,645,220,322,618,133,287,21,441,619,637,808,548,291,172,130,16,380,770,275,2,330,508,196,71,447,416,93,419,412,33,7,301,50,522,427,452,895,356,152,763,678,422,221,902,520,921,989,52,382,396,986,487,492,328,377,448,780,293,148,786,562,940,919,669,503,361,359,992,699,798,573,186,504,29,887,91,957,199,126,654,415,433,367,27,462,40,41,599,56,918,163,54,241,702,470,676,160,296,571,58,80,644,213,692,742,660,655,805,59,236,483,820,960,151,580,489,908,717,355,803,357,948,305,801,348,99,274,350,11,588,549,245,542,681,649,640,338,730,756,127,700,113,677,842,582,346,424,752,680,345,767,577,545,116,710,104,665,631,635,63,749,658,955,308,840,897,191,212,31,139,911,454,555,727,757,112,286,917,13,744,672,26,162,899,995,657,560,156,449,804,473,428,467,859,729,12,778,735,446,90,64,392,550,259,141,651,122,610,530,397,132,66,774,905,211,401,352,690,847,372,45,886,695,861,88,431,107,834,381,604,43,513,630,575,971,753,632,885,60,150,281,460,429,69,319,105,408,935,831,547,400,528,439,693,167,5,38,817,980,981,443,474,207,119,72,590,466,671,129,501,362,505,936,360,23,193,873,788,145,606,46,444,89,625,14,283,956,251,334,564,611,317,368,440,270,724,295,329,123,750,993,701,597,358,266,455,393,912,147,353,958,395,833,6,685,916,253,771,898,972,83,853,65,698,339,703,881,276,910,488,711,746,178,687,238,279,179,556,459,591,569,601,565,650,906,608,389,739,384,837,189,197,684,294,784,996,469,595,398,726,169,663,208,838,479,927,106,715,706,733,498,543,922,25,230,284,581,884,174,985,737,585,636,203,987,870,312,458,851,85,349,900,914,225,815,822,966,849,825,656,720,465,265,794,731,124,809,925,557,877,499,324,3,583,944,620,734,697,694,260,894,880,600,155,868,450,574,96,716,768,55,913,959,643,200,602,568,371,303,722,386,519,579,95,876,171,748,629,332,249,323,420,796,337,78,477,829,223,125,516,848,159,114,67,472,537,432,844,563,524,313,999,984,146,641,180,461,732,173,781,17,759,297,240,766,486,315,835,799,101,708,49,592,976,952,830,228,271,862,652,70,9,797,484,979,131,475,321,544,872,310,242,653,378,806,667,442,512,161,852,35,20,491,962,704,304,790,84,272,374,605,97,244,845,891,32,775,252,879,969,903,364,811,526,437,42,871,924,258,74,102,937,828,10,802,607,418,218,142,426,246,494,227,219,435,369,481,793,280,810,785,535,977,4,751,558,901,117,445,888,648,73,779,170,263,402,391,215,92,354,210,772,235,15,963,184,423,878,624,578,363,978,347,533,166,306,646,915,638,257,661,928,222,603,792,237,991,954,983,659,689,926,137,103,622,509,255,109,773,36,438,683,331,909,594,674,268,777,201,500,273,209,682,98,621,48,812,668,968,713,679,165,561,866,387,61,747]","arrowright","true","0","5","233","1000","[""0061_N1000_K0233_NOCLIQUE"",""0080_N1000_K0233_CLIQUE""]"
"","","","","","","","","","","","audio-keyboard-response","64","207172","0.0-57.0-0.0-1.0","","","","","","","","null","audio_feedback/right/coin01.mp3","null","","","","0","5","233","1000","[""0061_N1000_K0233_NOCLIQUE"",""0080_N1000_K0233_CLIQUE""]"
"","","","","","","","","","","","canvas-keyboard-response","65","217122","0.0-58.0-0.0-0.0","","","","","","","","9572","","arrowright","[228,559,524,406,849,595,30,597,578,264,304,244,850,327,686,192,669,838,989,147,66,316,85,434,580,541,231,679,680,84,396,371,722,109,160,81,855,310,937,582,974,768,915,129,877,581,743,591,142,337,700,946,111,46,528,145,691,427,428,626,146,242,140,846,656,472,138,522,238,704,9,785,617,888,200,640,368,28,490,799,557,834,130,544,265,384,227,833,90,706,715,699,369,781,400,894,611,478,731,672,934,260,122,236,82,281,540,68,104,397,197,995,782,272,774,479,650,633,904,178,154,57,183,533,755,991,943,958,45,87,652,69,424,510,49,407,751,984,625,839,326,916,608,842,663,896,520,891,367,964,261,422,58,746,278,553,291,75,158,537,675,461,905,970,455,296,128,594,852,749,331,114,556,116,164,821,194,726,399,890,583,939,773,170,893,670,938,167,997,273,711,80,432,542,911,827,797,802,59,632,560,96,201,565,494,784,40,744,92,710,464,694,922,335,411,493,898,555,926,262,563,682,558,664,249,431,329,969,394,882,459,825,757,179,862,256,474,50,115,413,364,507,404,452,51,908,535,645,745,268,818,5,792,885,856,305,487,467,372,532,635,612,794,959,800,705,307,713,665,697,589,448,311,798,222,26,742,495,653,398,203,865,10,721,810,266,288,505,534,502,845,875,324,826,717,98,135,709,667,630,539,674,393,157,21,70,52,884,727,451,955,234,627,690,951,853,377,352,454,500,587,570,601,766,499,14,321,961,759,516,405,251,931,237,357,851,425,2,74,518,317,511,458,657,132,832,213,907,314,506,546,212,143,235,574,38,44,193,725,841,456,618,847,155,423,569,17,935,523,912,233,683,468,765,177,519,420,118,953,638,55,466,450,208,95,976,775,53,703,837,696,483,36,286,708,209,787,598,525,624,175,936,806,76,226,206,895,973,859,564,753,820,628,869,793,263,223,609,622,72,637,552,771,390,62,86,747,521,586,646,693,196,952,385,139,254,739,828,23,477,294,776,16,889,185,812,604,712,941,131,168,948,230,929,868,163,783,156,15,151,668,188,950,421,480,484,489,37,83,182,600,579,34,323,475,279,788,962,332,125,992,754,328,159,309,47,415,63,43,918,342,300,764,207,290,835,295,901,173,100,636,719,306,224,110,568,718,437,453,899,684,341,187,779,527,758,876,985,593,24,440,867,900,687,963,678,392,346,606,280,572,113,861,73,576,945,345,289,530,871,436,688,843,590,967,409,631,41,858,990,0,402,245,153,433,639,283,79,89,11,954,767,176,880,144,592,374,247,738,514,320,343,615,844,285,35,19,105,538,42,666,8,240,252,216,819,232,276,698,299,778,928,439,763,770,93,872,641,994,438,246,298,1,848,99,550,870,365,220,325,623,910,933,65,241,644,647,375,804,740,284,91,121,648,927,412,968,189,166,211,270,181,148,6,966,836,355,271,419,361,444,817,584,975,930,347,217,169,359,248,554,186,119,658,253,370,102,732,986,382,504,944,596,509,379,101,914,319,120,716,470,515,919,441,387,198,366,190,215,577,508,67,351,257,547,796,736,418,32,56,287,729,925,780,336,389,293,701,71,734,863,308,752,777,815,469,957,497,274,536,808,25,378,471,381,517,18,322,250,27,854,463,218,913,498,733,33,543,741,330,141,822,735,315,831,977,947,772,692,481,204,258,643,107,447,391,106,567,426,465,64,12,614,318,363,760,48,443,3,501,485,473,491,979,801,750,803,339,112,987,942,949,980,805,267,108,462,277,442,730,457,171,60,761,403,702,94,756,97,887,380,724,353,549,214,358,410,460,610,883,486,210,662,275,39,513,13,866,857,823,864,512,811,956,195,571,649,348,602,616,360,720,416,150,127,993,191,879,840,301,813,172,654,551,376,816,655,496,282,430,917,243,575,982,981,259,383,676,7,603,334,789,225,449,31,297,152,255,312,940,126,205,651,354,22,161,923,807,634,199,435,149,909,401,886,103,529,545,999,737,689,386,395,184,881,814,830,677,20,292,998,417,707,902,349,681,356,671,333,824,972,924,588,313,607,892,642,202,978,983,728,526,137,748,124,629,685,123,239,619,429,531,673,903,988,921,762,932,362,971,573,165,561,4,219,878,117,344,769,874,660,714,492,605,585,373,338,790,229,621,78,503,303,446,897,965,873,920,723,548,482,809,829,133,786,906,566,54,996,562,695,350,61,388,302,180,88,599,162,960,77,136,445,174,613,620,340,795,269,860,408,414,221,134,661,659,791,29,488,476]","arrowright","true","0","6","217","1000","[""0082_N1000_K0217_NOCLIQUE"",""0010_N1000_K0217_CLIQUE""]"
"","","","","","","","","","","","audio-keyboard-response","66","218135","0.0-58.0-0.0-1.0","","","","","","","","null","audio_feedback/right/coin01.mp3","null","","","","0","6","217","1000","[""0082_N1000_K0217_NOCLIQUE"",""0010_N1000_K0217_CLIQUE""]"
"","","","","","","","","","","","canvas-keyboard-response","67","219899","0.0-59.0-0.0-0.0","","","","","","","","1404","","arrowleft","[774,214,767,995,868,609,240,581,920,519,945,749,420,288,660,808,801,540,766,84,595,309,728,635,81,283,260,220,885,370,542,653,318,626,506,875,781,250,813,791,698,410,535,43,325,568,989,725,991,734,193,434,809,512,507,795,114,761,883,225,424,3,624,416,810,184,656,118,189,976,121,722,475,778,64,773,91,623,383,583,284,715,102,651,310,520,950,55,558,526,412,215,911,910,134,274,216,703,8,711,797,471,843,126,394,159,980,376,18,837,443,20,588,683,650,470,192,680,500,13,378,934,604,530,170,566,401,951,12,890,221,398,363,287,947,157,67,942,426,891,765,985,643,569,838,217,446,222,667,771,602,160,133,699,974,278,860,41,366,597,387,190,339,35,914,346,600,844,415,37,687,589,631,850,645,889,144,549,652,438,347,586,68,893,935,686,467,433,168,293,547,842,368,462,831,587,729,28,384,17,796,769,648,613,464,379,135,340,736,488,198,62,932,661,205,219,421,938,259,916,357,440,463,388,697,849,389,365,561,970,649,702,175,211,529,362,472,508,805,737,835,295,776,777,815,492,459,501,556,853,360,96,201,783,227,775,751,428,234,514,553,116,792,673,684,326,457,386,491,61,321,348,513,576,124,937,517,406,509,695,252,209,598,203,429,82,784,490,496,232,577,465,197,996,584,930,486,719,172,700,418,918,9,872,246,601,177,480,212,754,957,430,975,265,460,174,308,785,522,880,154,706,620,984,489,59,155,616,36,721,678,169,953,129,790,449,22,633,731,663,286,397,662,839,304,899,149,895,239,320,26,739,902,879,151,539,138,965,316,334,332,794,764,707,845,884,618,352,912,971,403,621,450,90,939,484,787,245,782,425,194,140,422,804,968,337,51,712,834,79,772,972,323,668,848,367,76,672,153,182,940,23,495,122,543,720,230,34,585,999,146,350,455,361,612,85,58,504,634,724,11,264,727,730,836,277,967,738,328,63,746,962,657,188,978,186,904,961,886,856,819,147,223,208,235,54,142,409,297,847,854,73,402,763,143,637,510,404,31,136,19,342,254,380,132,42,516,611,742,647,281,551,789,666,717,206,97,864,93,933,511,298,744,692,833,994,98,786,948,263,851,871,822,679,344,861,251,655,173,180,747,6,878,752,32,806,349,74,158,757,882,444,456,906,272,550,27,226,990,395,821,442,518,431,466,167,39,607,992,408,743,816,605,505,718,125,548,685,997,665,610,191,112,341,257,299,70,482,80,544,115,276,748,331,247,708,537,2,594,803,437,578,915,545,479,897,800,638,423,533,753,966,448,674,898,25,145,393,630,689,152,925,139,560,69,48,779,733,49,927,38,924,196,439,369,163,557,552,606,238,582,907,788,199,371,477,77,330,629,4,453,46,45,640,481,110,113,523,741,60,536,619,162,364,483,128,799,229,826,716,866,165,44,987,591,319,682,986,887,726,127,300,964,123,572,322,458,541,107,89,820,306,955,956,473,119,917,963,105,101,921,923,302,441,894,392,494,461,959,908,391,469,654,762,704,16,622,644,528,399,385,137,814,354,292,670,676,590,117,862,546,827,750,359,314,979,396,760,273,94,72,639,262,176,343,213,50,909,859,592,65,603,241,275,452,675,913,574,71,432,336,694,807,690,641,249,515,735,627,228,0,758,280,414,863,780,497,258,407,307,983,183,7,1,224,575,210,846,103,390,327,493,256,926,642,244,944,315,355,487,130,100,30,14,109,156,290,271,538,92,573,922,413,411,555,830,503,559,828,877,812,713,903,901,150,946,53,400,202,825,345,625,701,580,617,658,171,270,823,381,111,696,669,931,468,818,178,681,303,56,677,499,982,148,231,445,218,981,195,998,338,419,179,382,521,954,269,855,351,636,579,141,242,705,454,253,628,305,988,313,99,282,329,755,21,131,870,691,564,759,596,86,567,936,615,525,207,928,200,802,534,841,377,723,324,267,811,896,375,502,289,941,993,793,865,233,858,599,608,15,664,562,969,372,374,570,358,268,451,919,261,770,688,798,958,266,973,291,356,75,498,161,478,527,524,78,614,52,952,353,900,593,185,317,852,108,565,33,243,632,943,405,888,248,710,756,881,294,867,66,204,709,768,563,255,29,892,279,285,447,745,873,10,435,335,164,87,874,817,659,57,427,474,869,554,740,417,693,88,571,476,532,929,311,301,40,876,5,646,187,829,237,312,166,531,714,436,120,95,949,905,106,333,236,83,181,296,977,104,485,732,857,960,824,24,840,373,47,671,832]","arrowleft","true","0","7","217","1000","[""0017_N1000_K0217_CLIQUE"",""0036_N1000_K0217_NOCLIQUE""]"
"","","","","","","","","","","","audio-keyboard-response","68","220908","0.0-59.0-0.0-1.0","","","","","","","","null","audio_feedback/right/coin01.mp3","null","","","","0","7","217","1000","[""0017_N1000_K0217_CLIQUE"",""0036_N1000_K0217_NOCLIQUE""]"
"","","","","","","","","","","","canvas-keyboard-response","69","221860","0.0-60.0-0.0-0.0","","","","","","","","589","","arrowright","[635,305,108,429,841,784,680,730,455,380,173,977,435,909,960,71,830,8,346,376,504,749,820,223,198,670,740,860,733,893,819,823,96,772,768,246,681,219,302,667,926,802,706,138,136,369,556,965,158,565,300,837,814,544,192,63,991,359,147,870,439,664,857,169,918,941,572,6,66,863,165,498,842,984,676,188,250,46,59,496,474,80,482,975,459,388,674,56,969,466,736,211,104,404,611,691,373,122,808,266,178,438,442,708,238,407,871,501,409,658,85,936,357,221,120,472,961,206,974,150,988,492,732,697,613,427,920,826,403,432,212,21,350,453,862,366,304,550,543,982,525,181,391,701,679,530,65,954,330,253,171,400,615,247,763,273,291,491,655,799,129,944,887,88,277,513,900,838,444,955,217,978,744,930,386,17,804,754,785,582,791,87,687,596,595,209,979,387,693,274,752,663,112,761,739,191,322,964,45,686,61,259,643,385,163,692,146,721,289,52,145,587,943,493,392,38,557,86,906,106,81,695,303,265,353,137,665,626,788,82,710,445,383,324,143,488,558,89,937,886,594,933,509,972,393,648,69,919,780,796,880,575,190,182,599,140,759,425,261,309,650,537,992,4,801,884,722,753,781,356,414,783,844,729,13,876,18,161,533,760,738,948,786,195,30,141,337,269,484,675,831,981,805,133,522,308,170,105,360,521,313,883,347,288,854,405,910,153,232,481,368,457,773,203,545,451,464,314,631,577,237,731,94,290,602,450,750,268,807,586,583,845,850,26,397,31,220,569,580,872,865,293,934,90,822,869,630,497,746,354,371,551,528,891,62,983,148,436,798,53,113,77,382,839,632,379,352,684,7,614,832,142,144,367,811,39,208,756,579,536,76,154,789,340,546,790,406,847,477,946,20,78,507,711,966,713,853,547,156,619,125,716,370,402,999,606,344,688,270,885,506,666,262,323,200,244,230,777,696,540,282,561,196,532,301,970,812,374,487,267,720,800,489,633,526,797,554,234,923,297,996,428,967,226,771,745,727,184,668,888,295,636,765,446,83,889,600,673,328,815,767,993,495,524,735,517,559,415,852,276,54,476,563,896,908,364,316,915,751,448,29,185,424,742,591,515,956,5,508,651,562,317,440,570,875,911,705,471,962,475,243,284,333,479,298,939,656,821,186,287,335,205,74,603,682,240,590,774,762,903,254,260,928,873,712,649,28,332,411,14,734,608,968,478,197,942,851,166,861,657,702,117,401,187,363,516,199,135,867,836,829,987,321,422,809,725,372,207,698,581,467,395,858,709,272,68,35,189,469,118,553,519,128,23,218,101,109,252,168,421,174,377,748,131,398,55,306,622,949,134,523,715,717,787,320,699,703,877,846,215,152,585,381,818,119,953,677,9,921,162,848,843,342,827,994,864,47,952,326,70,855,394,627,792,345,927,249,358,490,901,456,775,22,741,924,355,849,549,704,520,319,33,84,325,470,584,0,959,292,286,110,202,251,255,413,683,607,280,329,116,621,535,672,618,318,512,973,542,997,534,213,567,433,931,617,130,139,34,167,856,552,660,123,98,758,1,410,755,67,912,859,723,44,15,500,194,757,806,57,578,957,60,881,462,625,384,879,19,24,779,669,637,782,894,449,794,183,349,149,100,423,160,892,897,810,281,574,315,454,294,605,833,659,279,770,103,835,102,503,3,447,283,652,604,907,16,278,624,511,916,231,361,242,616,107,776,351,724,529,49,193,938,362,510,593,416,566,514,538,719,41,661,32,248,179,419,175,257,573,485,840,678,769,592,890,114,989,177,51,127,93,236,97,473,645,159,336,878,922,505,653,623,42,228,620,486,747,224,689,176,92,327,331,690,365,803,795,644,468,958,465,121,929,576,647,737,718,75,307,817,634,726,685,898,264,99,778,925,233,641,390,216,743,531,629,868,638,10,222,263,700,940,639,271,588,932,2,654,548,694,463,560,564,43,976,571,460,396,995,334,441,389,375,12,399,258,905,132,111,296,235,609,913,420,124,431,980,610,126,895,986,714,285,990,417,824,628,172,164,971,950,434,642,461,227,430,115,483,201,338,343,480,50,443,945,935,311,825,914,64,601,37,245,48,728,214,151,348,437,256,951,539,91,947,598,378,25,73,646,452,904,612,816,902,899,299,155,555,341,275,225,707,662,882,518,793,79,458,239,412,27,828,312,210,527,874,998,36,502,541,764,72,11,339,589,241,499,58,408,866,671,418,813,834,640,568,310,157,204,985,597,766,917,229,40,95,494,426,180,963]","arrowright","true","0","8","200","1000","[""0100_N1000_K0200_NOCLIQUE"",""0020_N1000_K0200_CLIQUE""]"
"","","","","","","","","","","","audio-keyboard-response","70","222871","0.0-60.0-0.0-1.0","","","","","","","","null","audio_feedback/right/coin01.mp3","null","","","","0","8","200","1000","[""0100_N1000_K0200_NOCLIQUE"",""0020_N1000_K0200_CLIQUE""]"
"","","","","","","","","","","","canvas-keyboard-response","71","223880","0.0-61.0-0.0-0.0","","","","","","","","641","","arrowleft","[44,779,221,533,984,937,408,715,180,801,290,663,990,245,757,398,214,13,608,844,198,271,486,61,787,46,748,281,147,142,954,163,129,412,449,832,143,160,611,973,863,722,598,190,487,564,63,293,994,671,235,760,494,680,492,152,116,936,73,86,336,433,341,83,95,894,505,987,471,153,534,870,252,860,67,40,115,131,814,59,540,769,362,907,733,767,786,662,261,403,896,35,265,477,776,778,109,901,68,687,939,183,686,845,374,55,151,943,958,667,545,325,66,512,394,402,764,513,846,422,899,321,924,606,790,135,480,202,363,809,19,822,37,2,523,87,114,229,792,71,659,941,426,259,243,770,489,521,280,314,993,911,91,188,355,622,172,461,249,773,25,854,58,130,361,581,750,539,727,145,541,716,531,877,427,592,330,762,547,731,372,967,980,794,386,380,876,866,178,497,503,964,181,150,9,339,406,286,616,561,578,696,260,617,443,614,708,50,689,351,599,16,574,807,922,89,800,388,267,700,610,745,141,14,725,644,651,305,225,555,903,194,53,736,902,535,761,915,580,781,57,516,823,463,171,187,910,455,335,397,450,18,609,70,220,720,360,996,452,886,285,604,536,179,138,298,434,324,938,45,223,96,695,634,867,357,75,488,256,458,815,929,861,862,165,277,900,646,816,572,478,137,730,140,213,508,413,270,182,168,499,701,368,970,975,217,436,248,228,602,121,718,239,287,42,65,337,549,713,12,969,981,819,530,80,635,798,460,108,177,246,639,120,591,542,169,702,766,959,669,550,566,409,829,216,382,49,584,698,192,777,110,338,968,189,909,869,99,600,955,77,753,852,589,502,269,932,991,953,557,15,117,470,275,515,712,878,376,201,126,474,857,345,111,747,732,640,485,69,282,72,393,247,103,439,493,97,333,268,543,326,88,490,649,615,935,558,871,356,537,582,868,986,84,175,974,173,691,292,931,346,423,232,400,10,771,124,571,441,197,960,864,699,538,233,414,754,923,92,751,835,445,90,309,48,224,38,741,734,104,366,783,636,358,148,238,5,195,563,215,54,440,447,525,926,590,401,30,890,473,837,945,579,204,79,162,808,879,985,627,805,430,127,620,274,294,625,113,898,914,41,347,218,7,998,573,101,291,532,906,94,155,692,655,947,459,200,765,855,418,39,859,618,320,652,467,831,484,569,100,273,344,676,279,395,956,29,112,511,905,933,456,4,647,496,407,619,479,353,840,824,917,343,594,875,222,174,295,675,678,241,645,146,26,559,961,872,379,793,219,737,812,684,556,797,378,825,313,3,789,60,524,132,560,562,307,419,276,303,166,526,509,472,780,64,312,354,504,944,52,437,679,583,78,728,24,208,144,424,672,425,454,836,85,690,317,976,133,390,788,848,76,913,683,650,709,203,742,643,519,895,999,880,799,415,567,193,404,881,749,491,752,828,381,601,161,442,209,237,884,739,946,300,27,136,746,47,575,568,723,873,577,904,185,587,328,139,912,522,554,510,586,416,565,795,82,850,322,703,743,156,20,475,697,370,706,726,327,323,714,842,656,296,768,23,717,207,457,28,251,264,685,916,755,949,466,775,668,957,654,585,22,429,308,756,893,464,551,1,806,629,597,772,329,234,965,658,517,387,603,481,31,242,446,157,170,785,605,707,468,661,167,21,392,501,411,874,821,365,940,851,977,283,527,154,385,724,657,32,399,6,278,613,576,710,838,988,711,306,482,184,51,483,682,369,891,350,231,410,74,123,948,638,164,952,631,951,514,226,340,384,820,210,288,98,211,847,158,883,258,632,694,544,301,593,107,373,942,802,735,595,263,759,36,128,934,833,758,607,506,588,841,641,979,33,817,921,897,989,331,693,885,704,255,660,596,665,729,892,272,966,791,642,186,804,983,552,628,830,359,673,253,134,688,626,927,444,889,375,834,257,507,495,102,925,352,553,930,670,920,637,391,978,342,882,236,839,318,623,62,570,528,633,621,529,719,125,784,908,435,227,332,624,950,310,796,740,81,972,782,500,858,315,827,34,465,498,284,677,653,630,666,919,262,364,43,17,997,420,93,299,191,334,865,887,371,405,856,56,548,811,417,431,453,176,297,159,995,963,149,122,212,428,11,774,0,763,206,818,106,199,918,438,240,681,476,348,826,105,546,992,118,810,316,962,304,612,674,383,319,119,469,230,518,377,982,705,813,250,843,928,664,396,302,448,8,971,721,888,744,389,266,244,289,421,738,432,367,311,849,205,853,803,451,196,648,520,254,462,349]","arrowleft","true","0","9","200","1000","[""0026_N1000_K0200_CLIQUE"",""0084_N1000_K0200_NOCLIQUE""]"
"","","","","","","","","","","","audio-keyboard-response","72","224897","0.0-61.0-0.0-1.0","","","","","","","","null","audio_feedback/right/coin01.mp3","null","","","","0","9","200","1000","[""0026_N1000_K0200_CLIQUE"",""0084_N1000_K0200_NOCLIQUE""]"
"","","","","","","","","","","","canvas-keyboard-response","73","225907","0.0-62.0-0.0-0.0","","","","","","","","657","","arrowright","[22,187,41,685,164,120,845,392,992,555,270,505,361,905,0,488,820,430,383,714,65,118,890,531,657,909,151,675,353,167,537,68,482,399,466,108,92,828,366,1,946,927,597,751,222,173,132,604,282,815,513,610,458,115,28,156,178,696,694,590,796,761,36,408,548,591,578,625,659,117,457,128,575,991,851,854,442,201,296,57,912,780,623,155,695,473,288,971,712,127,214,758,663,683,463,493,508,921,602,658,141,672,317,884,146,166,333,365,152,801,335,143,272,142,864,941,722,729,730,547,562,497,850,208,31,293,684,99,651,47,313,989,688,789,566,217,652,352,281,39,515,516,474,339,467,247,375,477,269,698,196,411,951,997,571,153,968,60,428,447,952,422,832,974,409,446,977,123,869,405,542,273,574,338,607,686,812,331,936,369,786,863,903,535,107,424,225,27,700,364,861,406,277,673,7,517,435,734,278,298,425,48,462,16,74,775,73,83,738,308,9,885,940,726,400,349,140,826,563,545,595,307,553,77,538,810,42,379,634,30,326,192,733,135,655,938,859,227,503,343,511,325,704,975,692,61,908,870,719,252,464,131,476,703,559,648,699,209,340,737,363,475,814,382,250,716,906,355,972,599,782,10,380,233,20,813,970,509,251,487,283,840,981,918,334,372,514,577,13,677,404,993,456,735,934,284,501,403,843,650,999,345,15,228,879,202,929,587,213,705,280,224,740,319,522,419,444,181,892,609,134,943,76,928,436,253,886,797,611,239,847,654,881,105,919,124,459,80,129,354,420,440,877,485,489,979,661,4,628,318,455,130,568,484,690,528,923,895,71,565,766,998,177,667,985,276,907,723,204,271,618,871,942,452,764,413,549,203,390,793,378,329,973,302,639,823,295,550,163,641,868,145,265,888,229,498,45,391,681,243,122,996,385,415,441,454,84,184,880,635,50,32,170,367,212,244,190,35,89,494,617,798,258,183,64,416,990,805,357,614,806,297,279,125,351,561,724,824,619,876,526,891,523,702,260,524,754,221,746,816,437,95,846,205,963,994,432,310,368,414,598,242,267,431,534,533,6,350,894,732,412,342,443,356,771,37,40,220,582,530,902,374,215,668,101,640,82,195,445,872,410,580,231,211,960,395,586,495,46,312,519,603,169,760,69,579,898,289,664,848,922,12,763,418,407,808,249,588,306,14,670,959,433,584,615,777,621,371,112,81,347,887,103,646,480,616,86,479,137,256,612,91,189,121,753,116,822,745,370,642,59,691,924,643,955,558,434,779,56,551,589,245,490,481,689,995,55,255,44,755,512,937,883,554,947,144,795,838,776,348,468,266,52,389,97,110,377,207,576,500,829,827,341,5,669,620,314,301,987,171,336,743,344,784,817,954,200,653,837,920,275,157,299,262,236,731,254,147,835,106,935,841,136,518,626,191,915,451,899,216,962,656,552,742,499,718,346,525,794,51,261,396,96,725,102,460,573,583,478,564,197,235,100,632,384,38,693,520,360,711,799,770,791,636,728,932,483,889,638,358,860,2,674,807,931,803,708,853,768,765,54,933,240,471,631,788,337,248,913,3,637,109,185,182,710,606,741,965,292,126,858,257,969,930,290,198,660,709,359,90,756,839,320,34,706,397,676,831,804,11,645,294,104,773,450,800,748,925,303,926,309,194,911,238,119,376,893,168,866,223,736,560,624,697,43,230,572,453,315,175,323,649,491,874,980,111,834,900,507,421,536,596,268,63,285,72,842,162,98,58,958,138,373,819,953,19,767,402,682,291,529,234,721,717,896,833,75,605,984,567,246,910,556,585,836,818,687,161,825,506,630,79,219,774,750,855,324,914,394,844,133,94,199,401,633,665,328,426,510,502,862,701,882,679,66,148,569,720,33,944,715,961,113,139,492,613,781,18,8,557,154,875,439,778,287,532,150,857,939,950,811,210,87,398,594,193,449,759,159,986,263,744,160,438,417,149,241,186,264,982,486,172,792,67,957,757,544,978,802,916,388,727,983,49,897,386,539,330,429,945,427,787,237,504,274,470,322,629,174,85,93,867,472,762,830,593,29,967,570,707,849,772,666,180,865,53,496,21,70,976,176,678,311,627,461,783,747,904,739,917,988,423,158,543,206,24,966,381,644,622,964,873,581,647,286,527,469,948,26,769,790,300,608,592,259,393,304,546,179,25,521,671,188,165,601,785,62,17,856,305,362,78,114,332,662,448,540,680,218,752,852,387,901,327,749,321,23,713,465,316,878,821,956,600,226,949,232,809,541,88]","arrowright","true","0","10","183","1000","[""0048_N1000_K0183_NOCLIQUE"",""0093_N1000_K0183_CLIQUE""]"
"","","","","","","","","","","","audio-keyboard-response","74","226923","0.0-62.0-0.0-1.0","","","","","","","","null","audio_feedback/right/coin01.mp3","null","","","","0","10","183","1000","[""0048_N1000_K0183_NOCLIQUE"",""0093_N1000_K0183_CLIQUE""]"
"","","","","","","","","","","","canvas-keyboard-response","75","228035","0.0-63.0-0.0-0.0","","","","","","","","816","","arrowright","[592,614,25,830,931,587,173,623,329,188,174,771,511,994,200,454,245,273,404,883,159,63,434,171,81,520,108,782,572,939,155,971,452,731,215,109,228,887,494,660,797,529,493,670,827,33,268,949,524,422,30,947,933,581,123,665,578,459,902,441,240,194,55,37,950,45,468,156,866,217,800,483,583,568,345,114,927,323,408,21,409,972,510,294,646,357,69,176,624,395,339,367,78,13,845,14,207,639,161,843,940,35,813,765,793,908,491,733,650,451,481,521,671,876,944,255,612,666,858,126,893,391,83,341,427,232,485,694,795,788,984,656,963,817,695,841,102,728,271,829,96,34,878,482,953,50,351,363,974,397,962,999,259,86,248,39,230,52,144,598,107,721,560,318,792,574,191,727,0,348,306,371,295,553,748,236,64,867,966,718,915,709,512,862,183,929,474,42,641,594,147,416,179,486,388,12,600,72,59,996,593,492,590,145,352,385,304,928,515,175,82,686,870,559,937,575,219,475,190,683,879,274,628,73,582,398,297,602,757,334,946,62,340,487,570,920,198,324,700,696,502,907,536,761,680,364,720,423,754,237,698,816,508,868,170,178,415,899,742,501,685,702,289,122,869,393,7,871,707,729,556,959,837,226,438,370,610,811,196,699,490,413,212,753,537,498,91,836,115,973,551,897,752,664,794,380,857,828,360,386,20,146,436,755,833,291,23,186,986,111,53,346,209,531,549,839,462,672,562,285,387,736,224,296,798,903,779,941,405,985,645,185,67,437,381,2,221,403,151,895,154,292,460,66,390,315,383,445,473,470,136,1,354,119,704,619,710,535,544,321,926,44,919,526,911,11,18,992,77,807,608,85,428,622,997,29,38,922,711,74,272,579,616,877,532,958,856,216,675,249,533,503,523,726,815,552,461,983,882,98,484,379,697,892,809,777,131,805,242,222,9,87,499,518,875,881,282,10,150,327,713,785,747,823,333,734,420,376,609,938,247,576,625,679,402,201,300,934,262,504,276,455,356,642,180,27,406,783,467,399,566,314,303,640,595,802,149,513,374,120,373,99,888,425,635,124,148,936,506,784,796,469,769,205,32,254,812,79,745,210,781,846,233,26,981,369,918,968,906,448,342,320,880,311,599,824,864,676,854,773,603,443,637,270,110,71,308,621,584,555,651,716,251,913,712,359,117,128,382,471,51,497,564,90,960,450,723,943,70,392,350,95,850,691,558,767,430,258,851,97,898,865,8,480,113,905,629,557,464,597,954,88,456,799,588,181,43,701,569,924,969,703,975,540,325,530,184,894,764,951,489,714,819,164,770,57,732,347,157,563,106,804,89,139,790,278,16,554,690,806,213,142,244,930,281,264,567,550,182,338,874,580,525,60,439,633,885,267,677,211,904,316,263,896,378,56,667,571,202,31,909,917,234,925,54,638,241,596,414,611,389,199,643,825,993,834,976,516,820,801,250,942,446,636,132,826,68,632,135,848,835,140,514,763,305,861,197,814,988,349,410,229,3,853,577,36,141,546,886,630,65,133,284,116,891,472,177,932,884,22,105,803,900,418,859,957,220,561,659,312,687,265,225,648,453,463,421,204,534,505,223,890,955,840,313,787,655,40,429,778,678,256,335,509,243,15,192,965,328,4,517,92,457,61,372,970,138,100,24,169,539,661,130,952,617,500,287,49,302,288,620,759,722,780,821,705,964,832,750,663,717,762,298,214,401,317,810,935,689,447,343,143,495,719,860,76,361,47,522,916,831,818,310,945,998,266,417,849,231,912,172,744,644,589,208,465,586,682,604,692,337,772,657,283,168,442,344,855,674,756,277,479,293,252,631,786,978,684,844,496,989,366,842,838,444,547,507,652,165,19,688,166,5,368,527,739,776,585,160,735,613,227,424,995,75,791,488,730,743,543,873,94,626,435,627,746,766,607,104,112,758,299,411,980,605,649,129,330,789,923,163,336,738,118,355,358,606,384,331,152,914,466,751,432,412,203,84,948,218,478,101,979,162,377,396,195,615,307,822,280,187,519,433,477,724,715,167,260,693,706,673,440,990,127,46,768,538,669,17,634,658,189,601,708,662,309,449,93,921,431,889,125,365,275,542,153,257,322,48,737,545,901,239,741,775,987,193,668,80,253,982,353,290,863,407,261,961,137,654,749,206,238,269,121,362,528,28,58,286,653,681,808,246,301,158,332,847,375,394,476,103,134,967,956,872,852,41,647,326,426,991,279,458,573,419,400,618,591,235,565,740,548,725,760,910,977,541,774,319,6]","arrowright","true","0","11","183","1000","[""0061_N1000_K0183_NOCLIQUE"",""0021_N1000_K0183_CLIQUE""]"
"","","","","","","","","","","","audio-keyboard-response","76","229057","0.0-63.0-0.0-1.0","","","","","","","","null","audio_feedback/right/coin01.mp3","null","","","","0","11","183","1000","[""0061_N1000_K0183_NOCLIQUE"",""0021_N1000_K0183_CLIQUE""]"
"","","","","","","","","","","","canvas-keyboard-response","77","230251","0.0-64.0-0.0-0.0","","","","","","","","826","","arrowright","[245,919,885,467,726,863,511,785,564,63,641,725,54,302,329,59,773,556,636,762,626,52,819,275,75,711,768,707,723,968,398,758,243,498,974,487,338,8,861,153,62,964,614,898,743,9,521,72,203,441,409,710,18,933,189,399,127,57,899,794,488,287,828,876,60,720,859,471,97,970,36,924,890,625,801,507,197,986,114,334,320,76,815,497,481,71,7,369,763,466,220,649,838,194,137,470,499,997,911,361,953,154,574,622,321,417,225,381,704,183,848,219,700,795,173,452,634,323,920,646,167,533,271,33,608,462,112,984,730,965,831,869,534,46,404,776,87,660,666,551,740,146,292,438,777,558,390,209,98,221,165,229,882,163,126,505,342,599,832,133,103,485,600,736,716,992,412,679,580,620,73,797,428,844,751,207,357,11,25,47,770,613,771,139,701,374,715,309,664,998,454,74,737,196,142,447,258,234,676,294,686,937,418,546,569,909,228,963,573,174,402,152,61,946,246,691,526,161,760,587,386,932,572,595,325,58,65,492,494,553,877,830,102,26,303,809,230,513,314,147,557,834,947,236,377,491,698,91,796,176,493,375,950,827,184,769,464,48,435,879,867,996,563,661,43,199,883,907,502,980,206,473,728,639,969,611,16,440,212,542,902,977,439,594,469,180,612,265,136,741,562,313,787,444,244,952,802,468,981,306,116,389,938,766,253,680,401,396,311,645,978,289,261,310,864,35,975,285,518,96,358,24,384,270,416,70,512,330,480,217,79,872,353,862,586,961,340,665,346,881,781,20,865,411,455,545,857,746,247,895,845,486,889,148,78,193,603,915,198,695,539,328,362,703,159,735,426,273,960,286,891,967,64,414,788,503,431,822,519,692,41,955,85,160,201,280,517,550,596,727,99,983,366,552,866,593,884,17,515,778,538,284,790,335,958,524,129,926,450,653,810,68,395,610,959,944,689,624,1,66,987,678,748,39,656,780,130,376,973,800,820,185,434,317,477,34,896,825,607,276,479,597,437,578,948,617,566,729,705,905,451,405,241,917,282,655,181,135,887,122,156,297,732,379,250,120,855,793,293,460,956,29,903,531,119,140,351,547,132,240,803,106,544,589,307,910,690,990,84,858,296,162,850,182,82,812,298,606,712,263,949,886,274,179,581,331,108,88,733,635,590,988,427,582,892,322,543,288,248,349,478,257,900,260,934,496,324,14,537,356,528,772,348,385,474,226,27,535,44,465,415,921,315,337,602,200,110,214,424,527,30,0,530,155,976,266,940,299,549,893,124,995,177,422,643,675,15,633,145,536,749,982,687,308,618,598,365,923,345,115,175,761,458,238,541,251,215,993,647,805,943,914,178,999,817,585,158,448,835,223,107,218,681,443,425,31,339,149,364,446,118,804,651,706,281,186,484,249,256,601,459,5,290,360,216,80,3,683,799,570,942,936,433,870,301,719,134,382,786,83,432,631,713,605,897,930,813,525,846,560,663,922,105,28,935,756,818,807,501,49,144,510,868,151,592,529,131,347,826,232,423,638,721,908,12,166,352,237,359,752,791,674,873,211,836,456,971,792,430,765,576,954,344,104,475,654,69,931,350,628,368,138,843,702,171,259,939,520,53,829,584,429,782,457,268,355,6,504,406,117,51,327,668,904,852,814,235,333,833,669,878,888,32,89,682,648,13,387,718,555,516,657,10,86,508,38,767,50,627,143,128,991,408,673,125,318,630,798,860,717,394,19,806,213,164,378,522,463,269,380,755,677,575,332,913,472,696,621,816,202,623,532,93,927,945,874,985,619,121,482,966,632,841,388,150,642,957,316,254,453,277,693,170,190,393,233,672,272,157,972,670,652,928,239,750,283,101,588,894,22,744,109,742,615,637,210,208,994,403,81,871,856,111,500,941,169,205,697,489,567,391,419,509,495,172,367,579,699,141,757,554,775,747,67,880,23,559,291,568,591,851,420,300,644,2,912,901,461,21,514,540,754,731,506,341,397,231,523,476,204,854,708,694,685,571,319,363,123,842,94,4,783,421,640,279,45,753,840,684,372,853,295,392,839,811,962,738,40,383,449,722,370,709,187,824,56,400,354,979,255,445,305,847,951,823,442,304,90,222,37,267,192,609,410,929,724,714,55,343,77,252,734,548,667,100,745,278,371,784,113,688,336,436,739,808,565,789,483,662,42,671,407,906,849,774,168,925,759,658,262,837,916,326,264,650,821,188,95,583,224,561,312,764,242,577,413,989,659,490,779,373,616,918,227,92,629,195,604,191,875]","arrowright","true","0","12","167","1000","[""0041_N1000_K0167_NOCLIQUE"",""0043_N1000_K0167_CLIQUE""]"
"","","","","","","","","","","","audio-keyboard-response","78","231275","0.0-64.0-0.0-1.0","","","","","","","","null","audio_feedback/right/coin01.mp3","null","","","","0","12","167","1000","[""0041_N1000_K0167_NOCLIQUE"",""0043_N1000_K0167_CLIQUE""]"
"","","","","","","","","","","","canvas-keyboard-response","79","234725","0.0-65.0-0.0-0.0","","","","","","","","3070","","arrowright","[318,24,801,856,729,654,937,942,342,207,972,297,542,814,112,983,757,821,492,214,430,91,191,538,483,148,369,277,829,182,472,416,303,861,883,240,770,677,836,389,99,194,520,880,669,666,630,268,892,971,110,2,711,164,359,262,876,804,486,107,874,98,894,930,871,741,26,526,177,970,985,249,796,714,965,775,326,42,341,727,668,276,583,606,78,818,573,459,691,274,525,558,817,264,707,356,664,659,740,184,14,85,832,289,790,908,248,608,228,642,980,716,587,66,848,925,514,406,831,760,651,440,974,805,658,546,704,402,254,734,982,211,619,153,934,660,271,824,314,555,626,333,631,533,835,616,25,935,324,726,904,672,527,187,304,860,125,0,719,515,378,484,442,448,780,581,208,122,955,962,205,251,196,847,596,195,48,738,170,446,245,709,579,269,286,529,117,647,385,896,823,857,278,973,913,58,907,788,944,102,159,72,355,568,485,661,524,226,635,687,774,755,728,783,678,367,843,183,905,812,768,998,867,146,591,204,293,969,519,506,141,275,331,822,575,390,901,690,54,392,879,926,312,881,586,51,145,537,458,588,782,580,421,35,988,352,699,864,424,354,652,746,242,280,554,15,853,250,86,212,745,870,951,903,270,797,827,218,747,281,644,609,203,201,673,769,975,441,44,397,131,60,149,977,219,858,793,737,590,6,126,45,185,731,636,615,505,70,373,23,772,192,957,598,93,698,539,914,230,701,960,138,676,403,938,545,528,104,507,717,803,382,544,167,199,640,639,759,952,491,902,396,945,786,370,582,763,241,808,621,618,655,46,20,106,700,350,317,994,113,73,50,504,825,966,931,736,920,939,911,449,936,181,368,657,299,744,890,247,866,443,224,941,802,292,841,462,830,95,959,282,872,364,885,898,559,296,743,641,178,128,209,56,445,543,685,461,409,730,494,206,465,346,625,482,643,57,887,143,855,151,670,377,645,499,785,437,628,875,216,961,174,454,311,290,118,917,521,116,891,28,612,688,387,365,413,756,946,710,862,978,444,682,466,418,697,679,552,179,62,265,284,950,7,638,599,932,882,155,572,776,795,327,193,383,222,188,252,510,602,530,777,490,87,94,320,353,551,915,157,724,614,263,954,310,992,563,771,473,752,257,732,253,585,535,470,739,522,428,4,349,845,863,671,156,294,953,334,344,548,712,601,361,474,806,374,330,453,517,604,220,850,37,921,878,900,9,96,142,305,948,132,844,345,340,594,302,64,279,200,987,929,393,272,541,285,834,595,315,947,918,480,423,160,996,487,92,103,29,531,869,611,798,859,593,749,589,956,3,553,325,508,238,607,69,433,83,540,809,405,31,408,873,256,748,613,452,129,569,895,851,922,144,71,347,564,702,561,261,674,39,101,629,713,100,239,897,130,429,59,198,158,49,154,680,363,649,381,789,495,503,84,792,840,415,909,648,927,715,162,411,791,549,512,68,675,65,189,451,949,319,111,984,190,916,819,412,348,477,213,838,976,725,309,30,475,227,781,720,139,605,233,532,217,597,811,562,617,689,632,127,990,332,943,18,633,509,481,733,828,893,335,288,34,306,76,384,592,758,498,706,456,301,401,933,316,321,963,600,1,646,74,778,523,336,742,854,173,476,53,313,912,479,404,502,273,295,991,653,784,380,386,5,391,457,410,665,493,36,135,556,820,67,47,82,8,766,906,210,460,372,574,52,88,172,13,38,147,22,225,237,43,773,999,165,877,513,620,163,419,468,258,246,981,417,291,958,623,40,420,518,722,986,328,852,718,567,735,813,964,816,400,750,924,919,799,868,807,215,63,762,33,570,186,810,694,436,467,993,19,826,432,399,414,360,577,865,576,114,300,61,967,627,351,307,395,166,362,478,849,686,928,815,77,434,236,308,10,357,603,171,75,469,105,534,202,705,232,560,120,889,516,322,109,842,243,41,11,133,197,637,140,550,150,298,886,121,388,234,329,464,888,497,765,343,800,81,995,681,439,684,968,16,622,511,255,721,259,425,97,407,708,899,244,338,55,422,366,463,32,89,663,787,267,751,427,435,376,119,695,229,426,358,438,754,571,923,471,323,997,693,624,656,447,566,910,115,231,667,650,703,846,235,375,634,662,180,794,489,536,260,761,12,223,779,79,833,584,979,161,221,753,134,108,124,169,266,123,578,287,455,450,27,90,175,683,940,17,767,80,339,884,500,696,168,379,371,394,398,723,839,501,136,431,21,692,565,176,837,989,557,137,610,547,283,152,337,496,488,764]","arrowright","true","0","13","167","1000","[""0073_N1000_K0167_NOCLIQUE"",""0077_N1000_K0167_CLIQUE""]"
"","","","","","","","","","","","audio-keyboard-response","80","235733","0.0-65.0-0.0-1.0","","","","","","","","null","audio_feedback/right/coin01.mp3","null","","","","0","13","167","1000","[""0073_N1000_K0167_NOCLIQUE"",""0077_N1000_K0167_CLIQUE""]"
"","","","","","","","","","","","canvas-keyboard-response","81","237018","0.0-66.0-0.0-0.0","","","","","","","","974","","arrowright","[255,488,153,318,931,649,730,971,142,743,574,980,470,548,826,573,224,590,558,249,899,553,817,515,596,795,605,187,676,352,332,301,137,316,74,514,797,783,675,203,505,653,571,674,873,871,589,102,704,176,23,422,396,406,824,405,540,681,114,248,269,375,186,345,963,447,545,384,440,651,569,83,751,286,107,165,744,410,616,646,996,600,952,421,335,927,351,905,244,218,63,54,430,68,761,831,13,231,970,594,820,278,163,466,433,897,979,462,986,10,472,477,680,921,211,206,127,450,238,769,815,201,699,287,155,564,889,747,640,373,25,665,307,229,326,212,749,563,701,599,465,112,385,443,731,199,686,696,846,342,754,620,72,562,420,509,368,524,162,625,837,198,391,348,902,911,767,663,922,642,644,476,551,281,79,656,864,87,734,920,659,487,398,609,591,583,217,109,976,764,849,714,449,125,104,313,584,98,549,796,122,133,720,619,628,829,530,695,145,762,169,317,554,359,799,896,798,36,521,302,816,17,166,785,177,901,958,880,618,533,582,946,728,685,247,527,936,626,957,340,882,567,542,721,264,969,843,536,310,792,35,803,202,506,197,637,741,47,226,52,272,693,900,37,220,435,890,604,949,172,718,78,60,951,149,598,869,733,528,426,667,12,363,225,811,412,668,441,809,593,742,759,303,454,139,214,392,906,235,419,666,760,673,804,360,711,393,289,942,812,407,782,836,438,473,404,552,917,33,428,624,643,34,356,886,298,402,965,44,395,825,740,144,254,757,295,117,53,904,484,89,694,932,151,70,209,7,451,578,93,273,576,479,415,813,453,343,750,459,526,460,358,388,401,190,154,403,791,647,830,854,195,458,878,49,988,763,790,490,173,867,535,256,629,364,495,357,710,61,290,525,875,529,24,457,376,4,633,478,690,850,606,355,482,502,677,445,418,381,538,953,131,282,344,84,586,170,147,842,378,844,40,943,688,389,857,948,984,222,858,333,121,141,321,208,174,519,408,386,42,471,442,511,284,379,541,494,194,188,496,851,679,397,499,895,390,835,967,671,577,380,940,439,354,481,992,774,337,877,955,239,752,350,339,266,452,480,241,588,233,585,276,207,787,219,268,467,705,658,621,838,587,692,19,617,230,196,975,779,320,660,204,559,215,684,366,852,95,146,855,894,111,85,523,270,81,981,330,328,807,223,819,474,414,634,926,632,687,101,738,716,648,138,82,884,349,814,250,185,919,708,841,417,96,347,258,28,240,413,411,745,150,550,168,893,847,717,416,539,5,319,765,827,608,158,6,805,106,669,365,113,184,611,706,977,865,504,810,387,377,839,486,784,700,164,15,297,678,275,475,934,959,292,8,288,367,277,991,129,555,135,987,156,910,909,260,308,11,67,636,115,544,726,950,312,990,483,38,520,51,793,261,119,861,968,62,758,682,885,1,709,935,978,923,513,341,777,775,657,468,722,325,55,580,245,353,221,338,58,128,103,664,140,638,167,14,641,175,859,3,0,972,296,26,304,46,915,306,507,456,985,120,132,501,556,650,374,189,213,372,818,88,309,960,434,251,43,974,30,713,725,227,879,18,91,76,130,216,73,961,382,736,822,446,888,157,868,912,66,305,753,237,517,662,691,41,143,983,425,432,31,383,755,228,930,108,602,612,99,729,881,86,537,607,171,997,568,485,866,431,123,938,39,234,448,64,469,557,2,280,748,947,570,136,998,806,370,182,92,891,801,126,832,756,346,518,200,737,500,232,252,32,455,941,183,860,134,623,771,945,727,259,661,534,994,497,925,314,267,77,689,436,29,560,510,334,546,315,786,908,928,654,993,50,178,274,464,918,437,592,778,424,862,770,97,242,944,179,956,161,210,575,834,595,324,821,670,999,631,409,20,65,916,639,579,937,597,522,329,876,16,180,933,939,907,964,630,840,603,59,914,263,45,924,773,191,872,285,257,989,516,698,48,369,75,565,683,205,503,322,614,394,702,463,788,735,427,371,823,491,547,652,703,566,243,863,780,776,253,193,739,400,283,781,707,982,995,327,508,9,712,724,56,444,299,723,265,423,27,331,962,898,152,719,512,715,105,80,148,892,181,94,848,845,856,672,336,311,954,361,110,531,635,236,572,802,159,808,543,262,57,613,794,461,903,21,772,71,532,645,100,489,874,118,581,279,300,929,498,853,973,90,124,192,655,293,492,610,615,828,870,160,291,271,766,116,246,69,561,429,362,493,22,768,887,732,966,294,323,833,622,746,697,913,800,601,627,789,883,399]","arrowleft","false","0","14","150","1000","[""0071_N1000_K0150_CLIQUE"",""0084_N1000_K0150_NOCLIQUE""]"
"","","","","","","","","","","","audio-keyboard-response","82","238037","0.0-66.0-0.0-1.0","","","","","","","","null","audio_feedback/wrong/error01.mp3","null","","","","0","14","150","1000","[""0071_N1000_K0150_CLIQUE"",""0084_N1000_K0150_NOCLIQUE""]"
"","","","","","","","","","","","canvas-keyboard-response","83","239171","0.0-67.0-0.0-0.0","","","","","","","","766","","arrowleft","[726,422,44,457,121,428,768,888,758,975,943,411,149,395,494,629,297,577,856,589,750,288,694,377,583,385,898,949,286,57,287,961,962,164,956,730,963,673,625,767,61,240,817,148,169,279,219,778,779,873,622,921,631,447,863,709,49,356,868,823,328,676,56,901,732,800,312,254,266,170,784,9,106,464,621,215,713,431,550,500,413,466,588,738,342,986,952,819,109,643,222,665,993,846,810,418,482,253,965,870,957,719,562,539,419,680,531,401,292,518,394,101,176,243,29,335,824,330,990,605,850,34,839,861,160,327,806,602,249,940,761,937,791,283,628,660,306,434,217,556,80,311,372,885,766,304,501,597,696,462,938,63,959,560,499,147,415,313,739,229,134,785,634,218,95,884,594,438,405,242,357,994,684,964,558,84,364,78,458,547,595,314,616,529,124,315,5,85,475,99,142,397,892,237,734,408,248,671,987,309,439,955,935,41,882,231,16,630,162,683,667,649,905,295,966,417,276,707,698,598,864,911,316,20,549,865,336,381,33,691,477,409,152,0,715,323,826,346,265,532,423,120,794,284,376,801,3,232,115,278,156,928,467,812,855,742,746,386,554,808,852,338,281,227,230,623,273,204,171,202,366,203,814,705,974,976,780,712,92,490,858,60,277,776,926,379,113,190,35,942,179,899,21,498,903,690,268,363,716,637,433,939,201,197,915,320,42,228,251,27,887,263,745,137,307,470,282,693,138,842,760,514,657,756,521,262,116,24,71,568,150,31,90,526,216,184,128,486,632,997,527,576,135,929,679,979,246,213,792,661,55,271,650,827,504,854,989,299,548,783,960,296,412,443,569,54,123,579,65,708,644,614,512,534,593,702,555,600,648,189,848,977,587,893,765,953,117,40,567,503,72,238,155,916,317,607,74,233,695,636,860,111,736,907,524,620,656,130,214,927,302,112,570,796,198,452,811,692,980,208,195,782,495,869,474,226,264,294,582,324,310,968,339,332,666,822,883,1,936,344,38,329,361,626,797,143,519,389,832,39,440,874,505,725,919,118,4,777,223,191,954,906,658,167,479,584,662,318,759,533,168,480,737,714,596,349,722,805,454,102,896,211,187,573,45,851,28,398,879,158,731,889,181,599,175,331,876,804,931,250,25,932,188,258,513,432,773,491,672,289,897,489,969,151,740,140,64,752,450,58,285,50,536,566,841,711,902,47,374,252,522,815,220,459,913,871,247,430,646,484,125,301,675,781,983,362,396,461,210,241,132,762,270,789,543,68,269,538,325,982,908,687,290,511,886,729,553,517,948,572,922,51,371,107,867,998,818,293,6,96,77,682,727,239,914,590,182,91,435,686,615,774,245,322,920,416,970,918,235,984,700,909,703,17,400,951,52,359,606,81,706,469,209,585,610,941,741,516,996,515,165,912,674,326,542,343,972,973,442,10,664,803,399,862,94,988,308,552,207,451,877,110,844,540,944,392,244,820,802,747,403,133,352,13,574,836,393,647,76,763,772,43,206,991,410,478,114,748,743,146,141,950,677,971,30,18,436,757,910,7,441,472,853,88,448,795,564,930,15,807,866,414,689,46,196,530,770,66,2,718,380,89,212,337,103,917,751,404,601,681,473,406,407,82,565,981,234,831,507,387,388,728,353,303,652,14,787,633,586,476,355,59,225,523,591,298,360,391,449,221,563,895,351,139,821,163,685,710,354,358,900,668,881,424,67,947,368,580,544,829,653,654,177,946,834,460,384,733,8,199,857,257,581,619,321,205,923,880,75,561,651,958,847,528,859,86,445,136,793,193,291,340,541,510,275,663,224,872,933,813,717,613,280,259,485,641,420,891,537,300,723,720,992,144,62,925,421,749,535,557,272,546,497,437,19,348,154,603,904,37,365,22,878,894,487,755,127,890,180,173,627,571,161,166,496,261,753,456,12,255,429,333,378,345,426,771,174,592,260,468,754,575,612,659,23,655,200,735,559,465,670,845,100,798,488,483,924,520,427,347,744,697,701,48,108,525,367,825,635,849,639,453,506,809,545,444,833,611,967,70,126,645,617,145,509,721,642,375,274,508,194,370,978,724,402,985,790,98,551,837,153,53,604,945,999,105,838,129,26,104,183,455,843,236,267,471,79,383,256,775,640,185,369,341,93,786,122,492,97,934,788,178,319,502,638,699,157,669,704,119,87,481,131,835,875,36,678,799,425,493,769,350,446,764,608,624,69,373,830,390,186,83,609,334,11,172,688,382,618,995,463,73,828,192,305,159,840,578,816,32]","arrowleft","true","0","15","150","1000","[""0084_N1000_K0150_CLIQUE"",""0080_N1000_K0150_NOCLIQUE""]"
"","","","","","","","","","","","audio-keyboard-response","84","240192","0.0-67.0-0.0-1.0","","","","","","","","null","audio_feedback/right/coin01.mp3","null","","","","0","15","150","1000","[""0084_N1000_K0150_CLIQUE"",""0080_N1000_K0150_NOCLIQUE""]"
"","","","","","","","","","","","canvas-keyboard-response","85","241273","0.0-68.0-0.0-0.0","","","","","","","","712","","arrowright","[570,658,31,22,635,883,899,618,673,503,994,512,859,545,550,495,500,619,517,759,955,197,180,395,857,830,321,318,388,532,55,697,140,884,231,811,481,803,137,309,471,282,359,453,85,785,538,98,146,911,507,266,102,565,793,845,223,556,378,152,349,863,422,342,351,382,161,385,745,798,885,112,646,340,932,918,339,821,237,971,634,166,675,191,373,362,93,118,153,244,103,800,25,46,871,555,30,597,945,64,128,652,258,174,250,425,16,205,236,960,49,386,643,209,748,457,411,159,63,769,269,774,750,397,445,274,29,589,485,778,776,801,828,909,156,348,574,833,51,338,539,208,110,777,346,740,677,516,243,742,641,227,81,715,238,758,755,889,802,529,579,190,511,170,131,157,978,353,264,278,823,416,924,301,927,848,518,105,458,455,844,489,324,702,991,256,534,270,970,912,323,433,820,47,990,948,760,718,623,837,312,630,310,611,158,995,263,454,345,615,764,40,639,968,203,721,4,429,653,633,717,814,175,95,228,307,229,704,853,903,905,726,492,415,504,843,754,271,840,708,851,640,285,683,713,204,965,551,604,705,280,735,43,891,418,888,737,907,572,417,116,141,74,451,151,956,531,400,434,62,463,277,56,530,44,459,381,54,466,977,82,622,11,860,612,97,559,602,561,448,230,419,121,66,520,782,591,910,940,917,297,594,829,354,404,749,363,603,852,224,765,59,291,952,669,696,890,394,36,14,198,714,809,109,609,134,813,211,919,766,343,519,114,202,94,80,435,659,691,332,261,35,444,225,182,688,460,784,951,694,48,583,967,125,150,866,406,923,805,547,699,275,882,925,436,564,986,509,959,949,896,302,872,900,212,788,850,522,322,926,548,145,327,682,439,37,298,438,147,527,50,614,431,752,997,816,865,350,716,537,26,528,315,939,452,154,8,827,560,499,122,482,449,861,108,127,736,392,333,632,729,441,189,464,772,107,12,192,456,430,414,893,478,983,526,409,894,644,679,99,501,730,257,383,91,862,931,937,681,746,869,587,996,6,410,767,226,543,172,620,41,590,546,117,245,374,341,502,73,87,508,176,935,645,133,676,553,576,998,521,213,795,461,710,15,21,69,794,138,703,625,295,447,281,807,751,628,580,18,819,668,670,427,5,132,401,186,480,575,421,838,187,184,817,408,908,358,947,360,973,443,693,45,839,629,169,791,743,334,627,808,933,510,393,366,796,934,465,420,768,690,473,319,761,902,738,178,240,254,686,173,954,13,542,680,279,599,432,806,200,369,584,135,296,101,89,642,544,826,650,391,873,732,268,493,272,722,412,847,233,804,506,149,655,864,928,631,426,90,818,974,475,88,836,222,596,398,571,326,384,253,689,19,792,335,957,588,262,881,554,283,533,167,921,467,969,879,387,160,849,897,728,505,779,71,981,616,637,922,855,0,403,221,593,898,162,780,582,685,234,496,815,842,762,783,77,636,621,399,674,733,267,880,115,535,255,251,33,916,308,563,786,177,304,523,100,989,913,958,513,987,486,83,724,962,999,781,961,27,647,915,53,32,887,437,698,92,67,361,287,331,469,218,601,494,9,164,651,300,892,944,540,130,273,288,355,868,96,193,148,938,372,479,194,246,832,446,656,648,569,195,265,810,183,552,586,196,60,756,678,666,181,824,242,201,825,606,741,375,846,886,624,52,787,770,276,878,598,638,525,901,124,185,664,972,289,757,858,649,856,206,402,376,727,734,585,797,70,389,941,136,963,566,946,42,442,57,39,720,660,834,143,657,1,428,247,440,286,413,771,964,249,497,985,744,709,165,299,216,379,723,239,988,168,34,701,711,687,966,352,799,979,235,468,163,831,252,76,700,17,822,407,483,123,524,514,993,581,920,484,558,490,950,450,306,325,220,139,663,719,126,747,104,371,577,573,214,65,365,462,895,874,142,20,119,498,344,936,106,113,470,155,662,835,692,305,38,405,7,424,368,661,215,610,210,600,876,672,317,904,557,336,942,357,515,773,712,380,84,370,613,654,491,607,731,867,347,775,982,120,665,24,356,79,474,61,488,914,217,578,789,929,367,790,595,906,739,684,337,78,707,3,219,976,171,980,313,396,320,68,75,248,364,549,487,605,377,617,28,536,608,294,328,930,667,329,877,476,943,753,567,984,812,72,992,330,86,671,314,292,975,188,259,111,763,841,423,562,953,293,477,179,241,23,854,284,626,2,207,58,568,129,472,260,290,706,303,144,199,695,725,232,390,10,592,541,311,875,870,316]","arrowright","true","0","16","133","1000","[""0059_N1000_K0133_NOCLIQUE"",""0047_N1000_K0133_CLIQUE""]"
"","","","","","","","","","","","audio-keyboard-response","86","242283","0.0-68.0-0.0-1.0","","","","","","","","null","audio_feedback/right/coin01.mp3","null","","","","0","16","133","1000","[""0059_N1000_K0133_NOCLIQUE"",""0047_N1000_K0133_CLIQUE""]"
"","","","","","","","","","","","canvas-keyboard-response","87","243306","0.0-69.0-0.0-0.0","","","","","","","","685","","arrowright","[271,681,945,997,176,874,315,800,126,367,91,572,721,405,201,430,376,505,399,453,577,703,504,857,501,888,288,252,772,775,163,569,168,953,792,340,691,153,82,204,566,337,841,581,908,445,431,50,59,391,290,80,845,951,666,585,292,188,240,275,28,862,815,664,972,921,524,249,470,846,138,616,302,960,398,248,612,358,220,965,480,274,737,938,338,71,15,34,41,434,773,540,73,547,688,962,821,200,861,481,762,186,352,309,939,81,780,291,736,660,975,187,259,378,160,701,216,415,237,754,213,863,928,206,167,18,21,328,141,661,245,689,490,620,182,926,523,537,149,420,225,593,465,582,708,277,935,767,670,228,947,878,301,24,726,511,270,635,280,94,339,276,230,787,591,749,519,388,937,26,594,755,336,231,473,693,568,742,692,711,696,416,645,393,903,677,244,983,758,243,652,226,192,305,520,705,685,502,444,474,820,891,313,961,671,385,596,822,327,235,836,971,695,191,760,875,626,847,142,144,365,33,988,719,623,914,394,553,538,601,619,546,783,368,372,321,638,704,314,381,532,979,463,725,643,484,909,363,53,995,239,341,747,941,396,241,258,466,183,679,487,583,954,55,753,576,603,116,38,170,797,927,448,118,799,117,899,151,838,7,224,881,639,66,486,809,973,860,42,360,120,451,115,622,676,143,196,984,217,539,784,295,51,39,254,649,746,74,798,819,729,232,44,419,402,876,741,530,964,242,567,458,185,180,12,68,323,353,450,178,316,108,974,438,795,467,293,871,62,602,493,407,525,247,54,310,856,650,654,107,683,790,77,69,885,942,557,551,592,801,868,789,929,554,40,627,279,6,549,739,157,628,631,917,76,782,806,548,96,613,234,558,273,850,496,600,986,673,373,678,284,318,64,869,58,414,769,425,515,932,49,202,608,870,573,776,261,412,498,479,14,750,114,544,127,460,912,700,382,647,362,925,36,697,680,348,345,955,443,897,672,559,634,617,125,950,756,343,312,728,632,748,83,595,439,491,355,555,732,418,896,195,23,575,840,802,65,124,229,304,930,311,765,966,752,674,364,879,811,778,409,779,294,332,675,181,319,883,716,193,571,512,810,919,395,16,3,253,730,89,940,98,219,298,173,401,826,835,534,380,387,67,761,158,915,406,659,506,837,140,150,300,529,155,162,246,441,331,872,446,100,510,598,266,759,618,462,452,933,609,934,848,31,375,905,816,389,198,366,307,359,99,898,145,408,494,422,607,17,461,423,209,946,884,174,32,156,45,281,447,508,262,992,111,507,743,535,785,646,426,233,867,738,812,488,880,948,35,658,417,29,916,745,435,931,212,715,710,817,330,227,123,189,513,287,354,625,740,669,472,584,93,560,684,57,978,47,104,533,985,329,615,996,282,588,255,889,998,814,976,267,449,334,70,586,834,774,475,283,865,436,839,764,727,101,526,205,61,890,918,308,808,949,556,906,989,194,893,709,580,356,289,587,317,172,892,413,894,665,383,210,694,963,320,286,818,968,384,895,720,171,306,686,75,164,824,361,522,969,357,260,516,442,886,495,497,923,87,256,717,528,956,731,770,370,56,987,211,297,400,122,667,109,476,651,371,952,977,853,698,781,777,265,129,482,152,849,128,611,597,48,858,990,864,139,369,734,351,9,113,564,79,169,90,545,735,440,296,589,52,374,106,397,827,723,565,146,642,22,84,132,37,636,531,804,541,133,648,179,499,823,110,712,517,410,887,489,641,10,197,621,429,190,859,831,492,464,88,913,936,907,131,20,30,238,866,478,574,411,791,102,873,991,590,335,456,579,982,655,347,999,148,980,264,25,832,855,630,207,184,263,842,377,427,177,702,390,825,303,159,63,236,135,60,644,350,78,570,454,43,268,958,500,424,543,829,459,656,920,223,766,768,605,46,830,130,468,687,208,95,668,147,578,788,214,203,682,657,718,957,771,637,166,1,165,105,794,278,911,882,342,483,604,828,503,690,640,803,707,437,386,285,793,269,851,175,733,833,813,910,471,807,428,455,379,624,993,121,900,161,457,724,509,103,943,959,967,137,843,514,552,563,299,901,199,257,154,349,904,527,744,610,485,706,404,97,86,477,251,550,221,112,714,92,392,432,518,944,0,403,633,521,421,663,4,852,844,222,218,786,19,922,11,713,699,606,994,333,13,722,763,134,433,5,561,344,562,796,8,629,902,322,2,119,877,970,981,326,85,324,662,599,536,272,542,325,72,757,614,805,215,27,136,250,653,854,469,346,924,751]","arrowright","true","0","17","133","1000","[""0019_N1000_K0133_NOCLIQUE"",""0034_N1000_K0133_CLIQUE""]"
"","","","","","","","","","","","audio-keyboard-response","88","244330","0.0-69.0-0.0-1.0","","","","","","","","null","audio_feedback/right/coin01.mp3","null","","","","0","17","133","1000","[""0019_N1000_K0133_NOCLIQUE"",""0034_N1000_K0133_CLIQUE""]"
"","","","","","","","","","","","canvas-keyboard-response","89","245882","0.0-70.0-0.0-0.0","","","","","","","","1223","","arrowright","[942,807,937,193,927,339,569,462,966,708,695,254,703,864,412,326,355,628,889,10,504,637,873,712,830,17,277,397,562,369,92,738,540,78,656,532,421,952,447,556,484,839,18,787,567,935,984,902,524,519,999,4,75,732,626,239,370,215,255,23,989,871,865,185,546,880,946,176,88,208,437,821,171,300,115,996,217,844,129,923,630,693,96,430,477,293,197,940,67,450,518,804,305,998,456,892,775,618,236,225,669,35,629,918,887,593,659,819,270,773,802,182,579,565,753,686,242,144,45,901,132,373,317,761,985,53,101,267,648,888,727,205,309,863,170,100,879,295,818,273,765,19,959,389,384,572,57,919,751,307,706,150,248,362,963,483,832,489,481,726,717,938,216,173,459,259,672,266,845,287,597,476,685,298,36,537,553,232,640,924,684,664,811,622,304,134,131,265,516,310,847,680,194,207,341,559,890,683,158,742,921,315,653,119,360,688,351,15,696,167,285,105,37,356,764,127,460,631,27,898,244,303,950,743,276,499,1,564,434,605,589,854,634,229,947,74,960,237,59,457,411,666,724,378,58,511,118,190,782,772,286,279,415,578,813,66,288,657,670,808,165,591,423,529,682,951,420,517,501,458,798,806,271,523,754,650,547,954,406,671,601,249,620,581,829,142,114,472,736,925,230,841,256,930,962,26,973,431,725,541,455,85,263,97,733,827,613,933,108,107,596,348,895,917,592,453,786,398,936,16,929,595,231,538,780,534,463,912,663,746,125,135,54,956,624,598,969,449,886,175,314,906,308,658,445,391,258,172,473,425,643,891,642,576,467,153,429,342,126,454,828,982,262,769,872,945,51,139,8,694,34,794,785,451,390,318,202,488,399,602,896,636,396,876,394,539,645,440,652,700,505,846,838,133,130,502,71,810,997,788,758,163,212,189,268,823,79,323,729,377,702,486,299,32,649,571,364,416,689,899,359,155,607,513,869,619,149,322,104,779,979,777,261,981,968,910,884,403,181,164,433,526,140,64,452,675,83,30,857,535,49,228,223,574,337,388,568,335,47,72,234,774,392,840,987,970,718,747,448,931,260,614,56,213,284,965,166,604,678,69,878,345,241,214,435,381,395,283,33,50,28,380,992,993,41,294,192,25,400,296,507,633,833,739,121,715,93,469,38,778,932,161,948,797,527,676,803,432,734,14,124,5,328,313,550,246,791,858,563,506,405,603,441,949,731,159,333,24,907,375,850,554,352,492,978,379,974,157,68,468,944,644,346,438,720,692,756,894,913,983,667,632,461,465,584,243,3,674,354,781,336,510,311,771,665,76,497,893,926,843,768,102,183,332,20,820,494,608,87,955,46,137,21,612,536,485,343,386,958,533,372,941,200,252,211,885,735,515,588,86,582,988,275,897,368,922,971,627,480,490,816,77,799,661,920,282,555,2,762,793,590,679,224,543,280,740,247,257,835,760,410,759,770,136,834,426,560,122,177,479,478,154,655,301,851,407,82,99,184,943,365,306,710,817,928,741,111,424,31,796,824,909,347,994,292,349,29,867,520,199,651,338,623,500,668,995,89,610,70,699,109,859,162,413,545,110,723,849,147,482,552,402,558,789,250,585,514,302,113,95,222,145,138,615,203,418,714,549,635,752,722,466,55,344,905,728,525,210,611,911,493,776,641,566,245,128,12,196,94,198,160,253,548,156,187,531,169,522,866,13,542,443,934,358,673,904,939,269,436,707,842,42,730,331,654,875,826,221,417,495,439,870,521,151,174,646,319,226,716,427,227,860,790,44,7,861,327,587,470,240,980,235,877,855,757,721,60,745,65,677,281,617,698,446,557,0,621,856,836,763,705,496,43,551,801,800,366,573,408,353,112,749,491,350,600,509,387,711,367,180,986,561,961,209,508,290,577,444,744,853,422,80,503,662,39,91,915,990,117,329,977,609,862,647,81,428,401,586,201,815,690,795,146,691,334,464,530,251,272,528,11,340,570,409,233,822,881,442,238,755,976,575,152,814,784,393,103,123,73,274,9,264,179,908,116,638,178,964,767,750,168,594,701,825,84,498,967,188,660,882,709,61,805,383,903,900,616,748,914,852,681,972,719,916,544,868,320,321,382,991,606,204,812,487,90,414,625,206,687,580,704,697,316,52,385,883,837,474,219,792,98,186,848,62,713,143,63,639,371,297,512,220,330,419,783,278,106,40,325,475,289,376,291,583,191,874,957,471,766,120,809,599,22,312,6,975,361,953,195,363,737,324,148,404,374,48,141,831,357,218]","arrowright","true","0","18","117","1000","[""0033_N1000_K0117_NOCLIQUE"",""0025_N1000_K0117_CLIQUE""]"
