"trial_type","trial_index","time_elapsed","internal_node_id","subject_id","study_id","session_id","width","height","webaudio","browser","browser_version","mobile","os","fullscreen","vsync_rate","webcam","microphone","value","screenWidth","screenHeight","stimuliVerticalProportion","success","timeout","failed_images","failed_audio","failed_video","view_history","rt","stimulus","response","nodes_order","correct_response","correct","block_index","presentation_index","clique_size","graph_size","graphs_names"
"pavlovia","0","473","0.0-0.0","","","","","","","","","","","","","","","","","","","","","","","","","","","","","","","","","","",""
"browser-check","1","1482","0.0-1.0","","","","1920","911","true","chrome","134.0.0","false","Windows 10","true","60.06","true","true","","","","","","","","","","","","","","","","","","","","",""
"call-function","2","1558","0.0-2.0","","","","","","","","","","","","","","","","1920","1080","0.93","","","","","","","","","","","","","","","","",""
"preload","3","1587","0.0-3.0","","","","","","","","","","","","","","","","","","","true","false","[]","[]","[]","","","","","","","","","","","",""
"instructions","4","3875","0.0-4.0","","","","","","","","","","","","","","","","","","","","","","","","[{""page_index"":0,""viewing_time"":2130},{""page_index"":1,""viewing_time"":156}]","2286","","","","","","","","","",""
"html-keyboard-response","5","5796","0.0-5.0-0.0","","","","","","","","","","","","","","","","","","","","","","","","","1921","By accepting to participate in this study, you confirm:
                <p style='text-align:left'>
                    - That I have carefully read the explanations regarding this study and the entire experimental procedure;<br>
                    - That I have been informed about the aims and objectives of this research;<br>
                    - That I am aware of the inconveniences, if any, caused by the experiment;<br>
                    - That I have received satisfactory assurances regarding the confidentiality of the information obtained from the examination of my own person; <br>
                    - That I am aware that I can withdraw at any stage of the study.
                <p>
                <span style=""color: #808080"">
                    Press [Y] to <strong>accept</strong>.
                </span> <br>
                <span style=""color: #808080"">
                    Press [N] to <strong>refuse</strong>.
                </span>","n","","","","","","","",""
"html-keyboard-response","6","29973","0.0-5.0-1.0-0.0","","","","","","","","","","","","","","","","","","","","","","","","","24176","Do you confirm you refuse to go on?
            <p> 
                By pressing [Y], you will end the experiment <strong>without reward</strong> and will be redirected to Prolific.<br>
                By pressing [N] you will be redirected to the <strong>informed consent</strong> to read again the informations and accept the conditions.
            <p>
                <span style=""color: #808080"">Press [Y] to <strong>end the experiment</strong>.</span> <br>
                <span style=""color: #808080"">Press [N] to <strong>go back to the informed consent page</strong>.</span>","y","","","","","","","",""
"survey-html-form","7","35725","0.0-6.0","","","","","","","","","","","","","","","","","","","","","","","","","3863","","{""gender"":""male"",""age"":""23""}","","","","","","","",""
"preload","8","35773","0.0-7.0","","","","","","","","","","","","","","","","","","","true","false","[]","[]","[]","","","","","","","","","","","",""
"instructions","9","46052","0.0-8.0","","","","","","","","","","","","","","","","","","","","","","","","[{""page_index"":0,""viewing_time"":1959},{""page_index"":1,""viewing_time"":160},{""page_index"":2,""viewing_time"":145},{""page_index"":3,""viewing_time"":160},{""page_index"":4,""viewing_time"":144},{""page_index"":5,""viewing_time"":144},{""page_index"":6,""viewing_time"":160},{""page_index"":7,""viewing_time"":160},{""page_index"":8,""viewing_time"":143},{""page_index"":9,""viewing_time"":177},{""page_index"":10,""viewing_time"":144},{""page_index"":11,""viewing_time"":160},{""page_index"":12,""viewing_time"":144},{""page_index"":13,""viewing_time"":160},{""page_index"":14,""viewing_time"":160},{""page_index"":15,""viewing_time"":160},{""page_index"":16,""viewing_time"":160},{""page_index"":17,""viewing_time"":160},{""page_index"":18,""viewing_time"":160},{""page_index"":19,""viewing_time"":144},{""page_index"":20,""viewing_time"":160},{""page_index"":21,""viewing_time"":144},{""page_index"":22,""viewing_time"":160},{""page_index"":23,""viewing_time"":161},{""page_index"":24,""viewing_time"":159},{""page_index"":25,""viewing_time"":161},{""page_index"":26,""viewing_time"":144},{""page_index"":27,""viewing_time"":160},{""page_index"":28,""viewing_time"":160},{""page_index"":29,""viewing_time"":127},{""page_index"":30,""viewing_time"":166},{""page_index"":31,""viewing_time"":140},{""page_index"":32,""viewing_time"":144},{""page_index"":33,""viewing_time"":160},{""page_index"":34,""viewing_time"":160},{""page_index"":35,""viewing_time"":160},{""page_index"":36,""viewing_time"":207},{""page_index"":37,""viewing_time"":161},{""page_index"":38,""viewing_time"":160},{""page_index"":39,""viewing_time"":143},{""page_index"":40,""viewing_time"":352},{""page_index"":41,""viewing_time"":160},{""page_index"":42,""viewing_time"":160},{""page_index"":43,""viewing_time"":192},{""page_index"":44,""viewing_time"":160},{""page_index"":45,""viewing_time"":176},{""page_index"":46,""viewing_time"":160},{""page_index"":47,""viewing_time"":192},{""page_index"":48,""viewing_time"":160},{""page_index"":49,""viewing_time"":177},{""page_index"":50,""viewing_time"":192},{""page_index"":51,""viewing_time"":160}]","10279","","","","","","","","","",""
"instructions","10","46741","0.0-9.0","","","","","","","","","","","","","","","","","","","","","","","","[{""page_index"":0,""viewing_time"":688}]","688","","","","","","","","","",""
"preload","11","46770","0.0-10.0","","","","","","","","","","","","","","","","","","","true","false","[]","[]","[]","","","","","","","","","","","",""
"image-keyboard-response","12","47140","0.0-11.0","","","","","","","","","","","","","","","","","","","","","","","","","369","tutorial/p_reduce/task_familiarization_images/part 1/01_N160_K90_cliqueRight_question1.PNG"," ","","","","","","","",""
"image-keyboard-response","13","47525","0.0-12.0","","","","","","","","","","","","","","","","","","","","","","","","","383","tutorial/p_reduce/task_familiarization_images/part 1/02_N160_K90_cliqueRight_question2.PNG"," ","","","","","","","",""
"image-keyboard-response","14","47893","0.0-13.0","","","","","","","","","","","","","","","","","","","","","","","","","367","tutorial/p_reduce/task_familiarization_images/part 1/03_N160_K90_cliqueRight_question3.PNG","arrowleft","","","","","","","",""
"image-keyboard-response","15","48117","0.0-14.0","","","","","","","","","","","","","","","","","","","","","","","","","223","tutorial/p_reduce/task_familiarization_images/part 1/04_N160_K90_cliqueRight_solution.PNG"," ","","","","","","","",""
"image-keyboard-response","16","48501","0.0-15.0","","","","","","","","","","","","","","","","","","","","","","","","","383","tutorial/p_reduce/task_familiarization_images/part 1/05_N160_K65_cliqueRight_question1.PNG"," ","","","","","","","",""
"image-keyboard-response","17","48724","0.0-16.0","","","","","","","","","","","","","","","","","","","","","","","","","223","tutorial/p_reduce/task_familiarization_images/part 1/06_N160_K65_cliqueRight_question2.PNG"," ","","","","","","","",""
"image-keyboard-response","18","48916","0.0-17.0","","","","","","","","","","","","","","","","","","","","","","","","","192","tutorial/p_reduce/task_familiarization_images/part 1/07_N160_K65_cliqueRight_question3.PNG","arrowleft","","","","","","","",""
"image-keyboard-response","19","49157","0.0-18.0","","","","","","","","","","","","","","","","","","","","","","","","","240","tutorial/p_reduce/task_familiarization_images/part 1/08_N160_K65_cliqueRight_solution.PNG"," ","","","","","","","",""
"image-keyboard-response","20","49412","0.0-19.0","","","","","","","","","","","","","","","","","","","","","","","","","255","tutorial/p_reduce/task_familiarization_images/part 1/09_N160_K50_cliqueLeft_question1.PNG"," ","","","","","","","",""
"image-keyboard-response","21","49557","0.0-20.0","","","","","","","","","","","","","","","","","","","","","","","","","144","tutorial/p_reduce/task_familiarization_images/part 1/10_N160_K50_cliqueLeft_question2.PNG"," ","","","","","","","",""
"image-keyboard-response","22","49893","0.0-21.0","","","","","","","","","","","","","","","","","","","","","","","","","336","tutorial/p_reduce/task_familiarization_images/part 1/11_N160_K50_cliqueLeft_question3.PNG","arrowleft","","","","","","","",""
"image-keyboard-response","23","50036","0.0-22.0","","","","","","","","","","","","","","","","","","","","","","","","","142","tutorial/p_reduce/task_familiarization_images/part 1/12_N160_K50_cliqueLeft_solution.PNG"," ","","","","","","","",""
"image-keyboard-response","24","50229","0.0-23.0","","","","","","","","","","","","","","","","","","","","","","","","","192","tutorial/p_reduce/task_familiarization_images/part 1/13_N160_K80_cliqueLeft_question1.PNG"," ","","","","","","","",""
"image-keyboard-response","25","50405","0.0-24.0","","","","","","","","","","","","","","","","","","","","","","","","","175","tutorial/p_reduce/task_familiarization_images/part 1/14_N160_K80_cliqueLeft_question2.PNG"," ","","","","","","","",""
"image-keyboard-response","26","51125","0.0-25.0","","","","","","","","","","","","","","","","","","","","","","","","","717","tutorial/p_reduce/task_familiarization_images/part 1/15_N160_K80_cliqueLeft_question3.PNG","arrowleft","","","","","","","",""
"image-keyboard-response","27","51348","0.0-26.0","","","","","","","","","","","","","","","","","","","","","","","","","223","tutorial/p_reduce/task_familiarization_images/part 1/16_N160_K80_cliqueLeft_solution.PNG"," ","","","","","","","",""
"image-keyboard-response","28","51573","0.0-27.0","","","","","","","","","","","","","","","","","","","","","","","","","224","tutorial/p_reduce/task_familiarization_images/part 1/17_N160_K40_cliqueRight_question1.PNG"," ","","","","","","","",""
"image-keyboard-response","29","51844","0.0-28.0","","","","","","","","","","","","","","","","","","","","","","","","","271","tutorial/p_reduce/task_familiarization_images/part 1/18_N160_K40_cliqueRight_question2.PNG"," ","","","","","","","",""
"image-keyboard-response","30","52005","0.0-29.0","","","","","","","","","","","","","","","","","","","","","","","","","160","tutorial/p_reduce/task_familiarization_images/part 1/19_N160_K40_cliqueRight_question3.PNG","arrowleft","","","","","","","",""
"image-keyboard-response","31","52117","0.0-30.0","","","","","","","","","","","","","","","","","","","","","","","","","111","tutorial/p_reduce/task_familiarization_images/part 1/20_N160_K40_cliqueRight_solution.PNG"," ","","","","","","","",""
"image-keyboard-response","32","52324","0.0-31.0","","","","","","","","","","","","","","","","","","","","","","","","","207","tutorial/p_reduce/task_familiarization_images/part 1/21_N160_K70_cliqueLeft_question1.PNG"," ","","","","","","","",""
"image-keyboard-response","33","52485","0.0-32.0","","","","","","","","","","","","","","","","","","","","","","","","","160","tutorial/p_reduce/task_familiarization_images/part 1/22_N160_K70_cliqueLeft_question2.PNG"," ","","","","","","","",""
"image-keyboard-response","34","52725","0.0-33.0","","","","","","","","","","","","","","","","","","","","","","","","","239","tutorial/p_reduce/task_familiarization_images/part 1/23_N160_K70_cliqueLeft_question3.PNG","arrowleft","","","","","","","",""
"image-keyboard-response","35","52837","0.0-34.0","","","","","","","","","","","","","","","","","","","","","","","","","111","tutorial/p_reduce/task_familiarization_images/part 1/24_N160_K70_cliqueLeft_solution.PNG"," ","","","","","","","",""
"preload","36","53242","0.0-35.0","","","","","","","","","","","","","","","","","","","true","false","[]","[]","[]","","","","","","","","","","","",""
"image-keyboard-response","37","53444","0.0-36.0","","","","","","","","","","","","","","","","","","","","","","","","","201","tutorial/p_reduce/task_familiarization_images/part 2/01_N160_K80_cliqueLeft_withFeedback_1.PNG"," ","","","","","","","",""
"image-keyboard-response","38","53605","0.0-37.0","","","","","","","","","","","","","","","","","","","","","","","","","160","tutorial/p_reduce/task_familiarization_images/part 2/02_N160_K80_cliqueLeft_withFeedback_2.PNG"," ","","","","","","","",""
"image-keyboard-response","39","53845","0.0-38.0","","","","","","","","","","","","","","","","","","","","","","","","","239","tutorial/p_reduce/task_familiarization_images/part 2/03_N160_K80_cliqueLeft_withFeedback_3.PNG","arrowright","","","","","","","",""
"image-keyboard-response","40","53989","0.0-39.0","","","","","","","","","","","","","","","","","","","","","","","","","142","tutorial/p_reduce/task_familiarization_images/part 2/04_N160_K80_cliqueLeft_withFeedback_wrong.PNG"," ","","","","","","","",""
"image-keyboard-response","41","54212","0.0-40.0","","","","","","","","","","","","","","","","","","","","","","","","","223","tutorial/p_reduce/task_familiarization_images/part 2/05_N160_K55_cliqueRight_withFeedback_1.PNG"," ","","","","","","","",""
"image-keyboard-response","42","54357","0.0-41.0","","","","","","","","","","","","","","","","","","","","","","","","","144","tutorial/p_reduce/task_familiarization_images/part 2/06_N160_K55_cliqueRight_withFeedback_2.PNG"," ","","","","","","","",""
"image-keyboard-response","43","54660","0.0-42.0","","","","","","","","","","","","","","","","","","","","","","","","","303","tutorial/p_reduce/task_familiarization_images/part 2/07_N160_K55_cliqueRight_withFeedback_3.PNG","arrowleft","","","","","","","",""
"image-keyboard-response","44","54773","0.0-43.0","","","","","","","","","","","","","","","","","","","","","","","","","111","tutorial/p_reduce/task_familiarization_images/part 2/08_N160_K55_cliqueRight_withFeedback_wrong.PNG"," ","","","","","","","",""
"image-keyboard-response","45","55012","0.0-44.0","","","","","","","","","","","","","","","","","","","","","","","","","239","tutorial/p_reduce/task_familiarization_images/part 2/09_N160_K70_cliqueLeft_withFeedback_1.PNG"," ","","","","","","","",""
"image-keyboard-response","46","55173","0.0-45.0","","","","","","","","","","","","","","","","","","","","","","","","","160","tutorial/p_reduce/task_familiarization_images/part 2/10_N160_K70_cliqueLeft_withFeedback_2.PNG"," ","","","","","","","",""
"image-keyboard-response","47","55445","0.0-46.0","","","","","","","","","","","","","","","","","","","","","","","","","272","tutorial/p_reduce/task_familiarization_images/part 2/11_N160_K70_cliqueLeft_withFeedback_3.PNG","arrowright","","","","","","","",""
"image-keyboard-response","48","55556","0.0-47.0","","","","","","","","","","","","","","","","","","","","","","","","","111","tutorial/p_reduce/task_familiarization_images/part 2/12_N160_K70_cliqueLeft_withFeedback_wrong.PNG"," ","","","","","","","",""
"preload","49","55724","0.0-48.0","","","","","","","","","","","","","","","","","","","true","false","[]","[]","[]","","","","","","","","","","","",""
"instructions","50","56517","0.0-49.0","","","","","","","","","","","","","","","","","","","","","","","","[{""page_index"":0,""viewing_time"":793}]","793","","","","","","","","","",""
"fullscreen","51","59545","0.0-51.0","","","","","","","","","","","","","","","","","","","true","","","","","","","","","","","","","","","",""
"canvas-keyboard-response","52","61877","0.0-52.0-0.0-0.0","","","","","","","","","","","","","","","","","","","","","","","","","1324","","arrowright","[560,871,256,883,921,402,760,187,666,544,949,540,367,917,444,47,376,439,747,413,452,781,972,787,541,963,62,69,433,606,27,801,375,483,392,851,956,32,16,328,907,99,120,397,486,702,527,808,897,141,425,638,166,539,722,551,17,996,18,124,514,552,604,176,665,354,79,796,745,332,155,797,285,430,23,511,547,43,260,470,799,36,128,859,6,887,662,870,634,901,617,385,440,597,923,918,953,142,302,776,970,334,143,997,909,251,242,895,365,75,301,404,822,107,984,526,363,878,380,114,764,644,707,401,471,758,730,492,21,720,632,45,126,727,461,364,82,881,417,325,7,123,351,218,191,933,261,945,672,803,857,603,840,14,567,403,29,122,993,134,233,600,72,529,648,577,118,308,90,574,170,12,320,652,436,51,579,121,860,927,355,980,954,344,690,613,512,331,683,849,225,728,828,693,466,537,669,885,299,349,181,446,419,340,468,684,528,546,113,583,714,362,306,578,160,746,879,676,342,474,270,290,100,818,103,765,509,89,689,852,571,437,56,704,783,612,782,60,903,394,475,231,473,254,554,257,102,304,975,836,10,459,379,932,214,373,101,964,372,691,565,321,892,211,239,186,978,523,19,258,44,68,855,266,874,837,682,653,766,388,87,515,522,804,708,31,694,359,712,493,48,576,654,427,725,755,625,741,961,205,95,636,658,587,338,333,882,904,159,664,657,839,61,162,938,670,992,667,622,164,550,196,431,929,890,825,366,586,948,769,503,566,607,630,767,939,934,316,731,80,743,798,974,697,570,85,161,224,626,752,582,66,428,510,873,740,556,911,24,318,298,536,207,201,785,303,733,687,230,175,532,838,227,628,793,611,277,484,562,561,642,58,105,30,792,893,505,389,443,22,238,609,496,485,424,137,812,234,193,456,139,276,93,777,219,46,487,581,70,131,405,319,850,305,423,172,518,360,156,749,809,200,42,813,441,506,168,936,773,724,235,37,575,194,899,460,221,384,501,504,761,910,25,220,453,542,674,386,598,713,844,830,573,659,272,407,329,237,108,686,310,391,538,396,558,834,387,802,94,779,817,174,524,605,348,888,297,941,358,182,717,15,264,422,450,213,59,188,88,41,54,635,78,259,204,863,790,845,184,701,198,267,140,819,563,67,545,772,588,771,866,374,678,868,915,751,167,502,711,451,477,482,952,516,442,77,998,864,249,786,406,49,309,382,649,50,169,490,553,109,959,715,930,361,729,884,827,337,820,791,463,629,944,345,627,91,906,243,555,479,905,507,8,858,165,292,409,222,294,202,86,994,784,368,631,400,296,494,317,896,991,757,735,393,999,543,983,985,9,942,671,273,862,383,65,190,723,610,947,596,816,842,112,832,180,408,568,987,263,843,623,271,810,902,40,418,157,324,736,946,814,861,950,216,179,223,455,245,154,478,414,806,291,965,287,416,995,580,854,824,867,241,163,34,315,229,853,177,641,127,594,146,744,11,151,592,255,472,381,322,591,668,981,178,967,973,84,13,517,497,240,535,886,104,960,940,876,615,508,83,894,197,620,692,481,584,212,111,880,246,650,846,982,248,415,3,521,4,250,557,210,872,138,153,826,185,476,28,228,770,136,63,898,268,655,513,398,341,313,284,149,639,52,525,353,699,145,833,968,312,147,990,754,922,350,889,585,314,742,564,569,519,726,150,203,117,559,189,688,637,343,378,480,663,633,195,589,698,1,335,38,709,269,789,775,20,734,421,281,275,520,768,71,445,81,599,778,488,931,750,774,73,356,435,865,677,847,209,295,352,955,327,110,595,891,805,590,55,199,129,115,370,469,215,438,347,737,429,661,821,449,640,759,937,719,98,962,548,943,133,695,158,282,971,106,848,748,330,217,549,411,279,457,912,753,357,500,307,618,458,262,265,928,841,795,679,226,705,489,208,432,763,647,420,97,499,966,823,732,135,919,192,116,531,988,130,288,920,815,454,346,171,57,247,645,614,935,624,426,700,807,718,788,986,811,829,274,183,794,467,119,913,681,35,125,969,703,336,977,780,280,800,253,856,339,311,132,300,92,908,399,76,680,371,643,646,533,673,465,252,33,721,26,236,900,244,283,148,278,608,926,447,601,957,593,877,660,924,74,621,412,739,377,869,410,716,706,602,462,989,675,656,958,951,616,572,696,491,323,152,206,96,710,651,835,434,464,685,925,390,64,448,530,875,286,762,976,498,534,619,914,756,173,369,5,831,232,289,144,326,916,39,0,293,979,395,738,495,53,2]","arrowright","true","0","0","300","1000","[""0078_N1000_K0300_NOCLIQUE"",""0036_N1000_K0300_CLIQUE""]"
"audio-keyboard-response","53","63183","0.0-52.0-0.0-1.0","","","","","","","","","","","","","","","","","","","","","","","","","null","audio_feedback/right/coin01.mp3","null","","","","0","0","300","1000","[""0078_N1000_K0300_NOCLIQUE"",""0036_N1000_K0300_CLIQUE""]"
"canvas-keyboard-response","54","64853","0.0-53.0-0.0-0.0","","","","","","","","","","","","","","","","","","","","","","","","","597","","arrowleft","[261,25,8,879,180,966,874,440,769,859,102,167,579,347,854,337,147,114,669,842,339,562,812,280,187,736,504,370,367,498,884,954,951,152,499,731,985,85,801,459,165,422,295,925,611,947,248,621,15,252,723,335,155,850,578,648,329,232,3,419,254,606,707,770,41,471,506,285,460,676,446,193,655,977,308,26,585,140,519,241,415,689,45,313,868,317,470,350,98,870,164,810,334,817,820,807,301,83,29,949,607,18,941,832,777,233,872,273,122,823,886,953,13,87,298,413,523,395,338,481,236,162,630,811,376,690,934,860,695,633,642,525,201,818,760,938,858,734,396,464,572,566,800,617,641,234,964,437,401,673,888,712,255,200,277,502,749,754,918,809,143,405,767,491,166,431,571,426,256,94,857,28,312,567,784,475,869,570,2,179,984,700,599,387,744,485,204,614,44,444,425,816,332,397,115,299,862,362,881,210,615,796,629,511,174,919,47,931,445,910,778,759,880,922,929,747,398,192,829,685,542,540,379,728,223,691,526,71,522,619,535,365,600,238,110,392,262,940,257,730,357,297,793,289,640,323,67,939,636,900,787,36,701,321,682,692,626,704,333,658,84,37,56,159,996,831,927,683,968,536,675,138,452,483,427,990,772,893,101,583,527,296,472,815,662,456,740,14,182,81,971,699,215,137,307,433,945,980,106,789,656,686,97,950,239,944,762,533,923,453,349,373,438,126,391,999,679,361,354,915,737,55,404,819,638,24,790,133,841,112,111,902,213,987,568,22,948,982,887,549,188,103,965,49,77,853,986,912,657,590,168,994,582,797,687,565,359,209,243,828,732,865,898,416,281,917,596,185,909,457,492,50,203,451,958,218,714,291,967,454,113,803,598,727,768,588,908,541,774,875,597,228,848,488,512,647,534,482,244,129,219,622,757,250,119,411,153,10,667,331,878,206,783,674,390,327,758,33,474,340,883,32,963,735,516,95,258,495,434,479,366,186,386,287,595,117,677,839,163,849,169,795,267,344,443,644,46,833,937,794,733,766,368,286,738,30,462,552,521,635,146,304,124,981,151,70,952,195,305,125,212,6,369,602,136,128,318,946,856,891,181,569,93,584,645,300,592,363,406,356,517,660,603,410,637,639,441,293,157,895,423,259,741,130,560,906,593,184,670,230,503,414,221,156,371,589,135,500,959,38,920,905,306,716,448,726,827,118,319,863,520,487,546,372,896,264,876,708,20,665,394,961,717,27,653,719,924,889,709,190,473,242,813,224,211,710,514,268,742,274,545,217,995,4,643,550,374,178,383,960,846,364,251,247,144,508,389,108,693,424,355,486,288,997,283,808,916,99,12,381,403,555,594,739,864,480,484,814,326,604,518,43,199,928,835,901,991,720,469,838,116,866,89,601,531,497,104,385,461,375,477,763,302,5,563,532,806,11,998,969,439,554,449,269,830,345,393,145,844,353,154,513,782,276,715,956,279,972,172,432,208,587,804,649,553,837,121,158,92,775,324,214,78,465,836,229,634,48,993,42,671,855,493,705,943,575,31,573,781,703,149,142,360,207,623,246,576,743,412,131,684,290,805,515,75,822,53,316,39,171,330,303,343,109,442,581,496,724,59,890,21,957,907,650,430,524,73,160,202,970,802,490,983,942,66,962,90,322,292,52,150,664,867,698,668,328,478,216,661,418,226,57,82,659,336,237,76,351,34,54,141,501,528,776,183,672,450,17,120,105,388,74,64,892,826,294,696,270,63,320,702,9,161,894,882,885,378,222,722,955,123,873,342,529,824,447,580,544,666,750,127,196,652,271,926,780,235,420,220,627,681,973,537,574,260,610,467,548,721,407,265,23,834,429,628,913,380,799,88,586,591,194,840,16,225,861,309,505,745,845,175,564,341,530,556,646,382,352,417,632,978,974,177,904,79,19,51,975,173,756,458,510,897,843,605,992,80,688,558,616,284,825,933,0,325,310,914,753,792,1,100,680,399,428,618,678,249,785,706,266,7,851,752,377,798,932,68,654,494,311,408,663,61,921,786,979,559,989,455,609,463,275,746,60,91,191,877,253,400,935,227,509,409,976,198,507,852,314,765,176,694,764,751,197,577,773,713,613,725,489,421,557,435,936,402,205,711,358,272,608,718,231,476,547,911,903,65,466,468,543,72,139,148,189,771,871,134,788,612,35,761,729,847,96,620,755,779,69,561,278,58,86,348,282,538,625,62,240,315,697,40,988,551,631,539,748,821,107,170,791,624,346,436,245,384,899,132,930,651,263]","arrowleft","true","0","1","300","1000","[""0086_N1000_K0300_CLIQUE"",""0035_N1000_K0300_NOCLIQUE""]"
"audio-keyboard-response","55","65843","0.0-53.0-0.0-1.0","","","","","","","","","","","","","","","","","","","","","","","","","null","audio_feedback/right/coin01.mp3","null","","","","0","1","300","1000","[""0086_N1000_K0300_CLIQUE"",""0035_N1000_K0300_NOCLIQUE""]"
"canvas-keyboard-response","56","67332","0.0-54.0-0.0-0.0","","","","","","","","","","","","","","","","","","","","","","","","","461","","arrowright","[620,112,244,925,139,643,413,699,178,120,428,99,837,199,974,842,479,691,921,569,562,527,480,637,975,803,27,321,862,55,312,289,742,629,235,200,236,325,221,528,151,396,352,265,805,371,949,269,397,201,40,75,158,757,633,286,553,987,876,886,568,761,100,509,44,225,369,746,277,900,512,21,940,219,567,37,984,152,603,441,859,363,720,852,287,430,673,260,58,724,594,323,141,698,767,533,994,552,880,932,421,723,500,12,161,501,877,203,451,833,43,233,454,672,356,91,306,659,572,530,360,626,744,666,598,494,961,344,284,638,939,920,670,268,965,640,861,945,207,180,361,29,667,309,811,52,902,183,976,458,860,22,118,440,324,864,256,532,391,845,522,239,267,304,926,915,756,851,686,841,515,305,80,771,840,220,228,148,258,129,749,86,681,872,705,600,680,213,701,736,727,18,300,534,473,420,828,929,800,410,95,574,990,365,863,896,632,735,622,718,463,857,787,796,958,878,708,716,617,388,737,689,971,468,969,616,820,380,870,431,280,231,191,580,455,34,50,986,443,261,725,938,642,713,314,188,979,590,109,272,881,605,706,103,254,330,127,999,571,774,895,593,335,70,7,412,772,270,389,404,909,185,933,414,229,411,227,612,259,319,448,854,798,783,685,125,997,674,888,113,993,381,415,89,202,613,630,467,240,71,464,162,856,506,359,927,977,329,996,196,919,296,683,869,206,780,475,471,142,588,399,973,81,894,730,5,107,484,456,74,758,535,510,224,392,436,121,149,531,195,703,223,355,347,728,604,782,401,818,39,923,502,140,554,844,652,426,257,362,907,953,367,67,405,794,951,247,829,826,911,910,584,76,326,551,377,143,82,944,785,24,544,331,409,838,992,487,328,839,511,516,320,614,799,655,117,498,285,732,835,457,373,557,168,586,135,303,4,676,922,266,128,813,311,752,486,211,101,601,634,519,376,205,764,564,537,904,816,375,332,8,290,545,983,547,354,513,704,579,957,433,419,145,137,538,417,946,293,597,119,435,171,560,711,639,93,709,539,179,10,173,337,481,243,843,671,654,848,87,738,302,710,776,918,916,675,90,452,49,194,668,608,804,333,299,65,250,190,846,85,425,908,561,784,72,981,133,115,69,108,406,434,606,935,466,308,283,747,345,658,610,812,106,336,645,669,865,802,954,374,508,42,982,583,866,966,556,130,520,3,555,485,678,470,208,346,797,875,387,36,79,769,68,836,237,403,664,11,416,806,395,64,301,762,688,525,897,768,177,770,181,9,821,465,778,543,595,585,978,492,765,15,482,46,16,631,278,432,819,31,447,884,210,144,175,611,523,625,795,980,734,439,793,353,868,936,242,334,991,786,123,83,696,777,427,687,592,972,444,338,45,948,719,570,350,733,234,615,357,469,383,209,77,649,6,248,495,193,748,901,679,477,462,755,232,253,1,589,998,731,754,316,132,960,599,665,566,57,587,318,461,788,372,322,745,13,59,255,30,442,327,291,476,186,546,230,245,217,164,577,111,398,198,763,871,438,61,453,483,288,122,0,66,653,251,558,104,885,964,899,578,648,263,903,493,153,279,847,817,499,540,700,445,943,889,914,858,898,928,809,271,526,822,850,349,930,641,883,995,358,174,694,892,893,573,913,882,197,692,138,88,740,825,382,38,644,663,167,714,424,47,690,781,53,695,297,276,491,147,313,282,294,677,386,582,226,647,238,216,274,249,134,651,963,51,385,947,950,446,627,163,609,317,63,542,20,952,722,682,751,136,815,98,252,262,541,222,182,827,489,94,967,315,48,156,702,697,618,693,879,73,548,874,565,591,407,418,814,146,429,348,366,169,490,23,102,890,596,160,934,423,790,170,187,739,192,955,743,488,726,970,310,931,292,712,549,628,887,962,563,801,26,853,450,517,514,460,281,750,831,264,773,521,25,849,32,166,753,176,834,602,624,656,789,968,496,273,116,246,131,343,159,368,623,54,241,956,150,105,184,351,35,339,212,204,422,830,56,364,408,60,650,97,96,646,341,19,497,504,575,157,92,295,110,518,298,214,378,741,307,810,394,832,474,759,342,165,550,529,478,607,807,215,636,721,662,559,924,114,124,867,635,715,472,905,390,14,507,78,941,84,340,988,661,576,189,126,400,62,779,581,536,393,275,808,172,155,985,619,657,891,917,684,505,760,503,912,660,2,379,823,989,437,959,449,717,792,766,524,855,17,218,942,906,154,370,791,33,621,775,28,459,824,41,707,873,937,402,729,384]","arrowright","true","0","2","267","1000","[""0091_N1000_K0267_NOCLIQUE"",""0076_N1000_K0267_CLIQUE""]"
"audio-keyboard-response","57","68323","0.0-54.0-0.0-1.0","","","","","","","","","","","","","","","","","","","","","","","","","null","audio_feedback/right/coin01.mp3","null","","","","0","2","267","1000","[""0091_N1000_K0267_NOCLIQUE"",""0076_N1000_K0267_CLIQUE""]"
"canvas-keyboard-response","58","70021","0.0-55.0-0.0-0.0","","","","","","","","","","","","","","","","","","","","","","","","","648","","arrowright","[33,550,633,438,488,326,522,565,183,128,987,617,467,409,204,355,750,460,420,775,237,404,164,669,635,945,39,556,598,444,718,249,545,956,976,379,239,309,612,12,888,66,100,417,188,174,168,944,16,626,704,416,876,200,496,238,666,78,721,813,296,69,606,381,810,668,368,495,343,853,793,320,487,674,697,998,983,217,498,115,724,396,941,122,97,56,257,907,288,385,94,350,214,77,325,670,85,903,127,371,774,289,589,98,898,219,559,463,878,439,521,584,73,112,569,190,336,319,738,503,964,361,189,768,295,600,613,743,294,592,637,393,689,392,879,992,499,755,927,184,663,111,473,110,197,423,255,375,546,240,226,971,390,479,210,611,330,957,37,5,139,823,700,843,639,949,279,572,973,950,176,970,861,807,146,921,576,353,489,901,328,603,560,899,900,605,434,354,436,54,339,654,602,988,13,692,937,748,49,80,912,967,839,15,914,504,515,29,608,604,711,430,468,270,625,923,819,406,302,213,863,491,699,105,144,464,951,725,102,985,684,535,952,705,536,425,609,497,678,42,475,829,893,399,119,233,520,120,513,117,171,114,148,65,193,796,229,662,272,360,362,459,449,134,518,930,795,243,182,703,981,46,767,741,991,429,130,636,452,143,287,859,99,873,650,642,833,484,857,380,959,634,566,530,3,157,166,366,405,784,632,442,253,958,885,683,389,312,915,865,241,595,870,891,506,745,618,165,275,540,159,346,40,610,154,490,235,421,716,723,707,344,994,855,582,871,208,627,561,579,681,942,454,38,428,0,644,507,4,586,175,758,50,706,142,323,680,476,331,628,708,910,9,868,591,800,408,896,659,224,198,643,920,155,424,597,509,816,72,62,440,199,426,647,547,722,58,181,418,856,191,961,71,329,118,332,658,526,187,577,939,842,838,466,554,517,14,437,45,508,131,453,924,770,963,57,772,866,7,313,30,286,762,935,948,977,137,881,960,113,156,250,90,152,925,88,968,804,797,548,534,492,209,59,123,809,544,435,756,415,149,993,483,162,834,820,218,365,322,471,277,989,96,995,563,32,740,932,764,714,1,89,407,736,749,895,308,64,363,441,52,196,377,877,6,502,629,902,886,384,835,8,95,826,555,831,246,620,472,884,316,739,147,790,221,641,619,334,195,458,511,474,564,828,75,801,107,975,505,17,67,525,523,909,129,624,141,478,954,538,24,374,138,836,735,599,702,83,516,733,874,104,448,761,763,919,947,82,792,746,719,782,676,28,493,25,116,849,386,86,862,931,734,290,280,917,799,814,709,215,687,533,997,661,803,87,494,532,847,76,307,351,578,186,729,673,259,962,486,411,394,905,727,35,347,23,751,869,256,21,679,68,880,787,581,514,848,413,263,773,698,553,232,27,894,273,776,652,574,267,840,922,245,825,70,832,303,293,568,695,310,283,648,271,44,192,43,677,904,946,512,665,531,372,369,580,837,911,860,897,929,223,383,827,236,482,519,19,752,481,688,570,349,872,969,940,292,477,432,248,81,667,730,908,593,264,846,913,212,48,231,400,844,788,614,178,607,783,455,938,972,573,462,177,651,737,324,646,996,529,301,978,851,500,161,173,485,22,567,791,781,348,108,274,728,640,672,887,882,126,63,805,830,982,337,906,794,766,685,285,300,254,690,169,167,757,244,180,201,779,227,179,61,26,53,465,136,979,889,298,403,234,51,431,858,278,132,694,41,649,31,821,447,785,623,594,373,980,370,359,551,203,228,433,601,304,388,732,185,206,367,527,588,812,747,943,251,398,391,311,306,693,135,318,822,282,170,742,2,808,926,543,558,92,596,305,446,352,528,335,103,125,158,789,269,682,91,265,675,753,537,539,575,892,918,266,151,84,726,281,124,811,315,850,216,205,710,778,74,207,786,656,340,260,145,771,671,549,20,841,713,314,715,276,638,631,422,955,824,18,222,470,469,252,653,541,986,194,258,524,802,356,720,510,106,121,854,220,557,150,419,933,587,338,621,163,815,984,571,247,461,562,410,387,798,321,480,622,317,953,780,427,382,11,542,172,357,297,79,268,456,364,414,140,696,10,211,731,655,818,769,342,395,242,701,664,760,109,101,401,630,36,759,875,262,657,376,261,133,765,299,358,890,451,34,457,225,974,397,686,691,744,965,754,230,55,552,345,160,934,93,327,284,443,615,867,712,852,883,153,60,202,616,966,928,450,341,583,47,585,333,660,445,501,378,806,999,916,777,291,817,590,990,402,845,936,412,717,645,864]","arrowright","true","0","3","267","1000","[""0090_N1000_K0267_NOCLIQUE"",""0050_N1000_K0267_CLIQUE""]"
"audio-keyboard-response","59","71003","0.0-55.0-0.0-1.0","","","","","","","","","","","","","","","","","","","","","","","","","null","audio_feedback/right/coin01.mp3","null","","","","0","3","267","1000","[""0090_N1000_K0267_NOCLIQUE"",""0050_N1000_K0267_CLIQUE""]"
"canvas-keyboard-response","60","72581","0.0-56.0-0.0-0.0","","","","","","","","","","","","","","","","","","","","","","","","","706","","arrowleft","[516,298,850,201,481,480,742,263,730,749,503,467,725,262,246,912,69,232,165,2,866,8,929,261,769,288,800,740,176,330,60,441,855,655,547,284,93,37,758,527,127,916,934,894,720,902,374,354,482,614,403,666,568,370,406,22,470,665,384,584,483,798,575,616,869,627,953,714,102,609,499,530,255,671,768,807,792,630,538,979,859,661,129,311,649,507,110,684,388,128,94,805,955,716,753,688,788,286,633,754,125,411,237,982,44,429,954,521,236,599,517,412,465,281,699,776,13,329,697,109,319,361,81,178,190,356,146,921,395,797,826,882,600,779,140,200,785,796,489,99,147,217,342,220,637,430,453,664,672,27,274,612,297,531,157,258,100,306,995,867,587,154,264,331,28,170,391,368,295,560,546,464,486,343,727,211,620,690,315,32,160,657,148,84,561,698,21,829,379,884,272,639,95,376,248,646,323,96,839,817,737,239,974,653,821,987,624,270,820,340,393,677,137,830,252,944,249,34,709,928,994,808,865,881,301,134,405,573,525,831,58,891,931,778,54,724,523,448,622,814,484,972,889,373,447,904,957,432,755,832,762,456,638,334,559,735,613,601,183,977,74,63,852,569,452,308,244,283,390,446,849,765,694,635,595,868,98,942,185,632,328,963,803,722,689,496,610,214,557,508,864,427,251,923,243,676,181,564,459,492,597,230,229,344,61,132,462,761,969,774,485,381,420,64,468,759,172,144,721,718,840,895,739,77,383,520,541,728,133,757,513,795,682,335,267,23,966,212,945,90,985,289,3,193,623,745,645,174,394,641,357,469,579,686,615,362,586,424,939,105,314,280,542,31,526,204,519,971,265,948,978,940,158,877,39,304,777,233,723,433,404,654,618,410,643,893,294,313,935,593,119,936,40,89,438,488,872,365,426,35,621,857,33,407,848,348,153,602,930,12,285,490,908,495,580,853,770,680,771,355,213,988,619,854,475,670,197,223,320,973,962,435,674,207,473,240,161,705,224,572,571,266,629,325,964,577,10,68,338,203,210,6,555,543,382,815,408,667,658,417,920,498,574,118,927,364,479,339,743,588,442,514,413,238,506,279,75,78,729,385,19,704,387,781,24,199,647,915,15,425,746,992,607,876,918,959,870,766,440,858,222,62,941,175,38,377,375,947,824,871,901,444,926,505,775,159,838,910,986,65,275,734,713,681,42,136,231,581,611,984,351,675,439,195,636,696,273,809,589,188,956,886,14,135,960,685,392,337,504,715,322,215,86,186,651,998,583,660,53,401,431,535,554,16,209,296,789,767,976,487,491,582,41,333,828,863,302,312,123,835,606,112,26,515,634,88,825,909,827,924,271,861,819,386,790,522,887,4,321,82,907,104,458,269,787,843,862,873,702,121,683,846,981,305,163,235,898,810,399,751,155,113,980,625,711,346,277,812,115,171,46,192,596,710,540,594,529,943,55,449,965,510,556,56,416,242,450,347,287,418,380,687,398,975,282,73,793,131,70,989,750,126,476,316,578,553,9,59,350,245,101,533,744,152,443,67,544,189,914,5,166,782,91,97,585,903,291,318,253,116,656,567,707,29,353,85,25,358,919,463,71,173,748,497,66,598,631,225,991,103,352,208,92,278,844,951,260,548,922,917,43,780,628,336,822,662,860,79,958,400,700,549,784,845,360,823,437,695,205,327,783,818,454,303,880,309,545,899,669,983,151,493,937,591,300,703,590,875,946,145,608,773,409,913,708,663,970,652,642,216,221,436,138,50,247,421,518,566,226,752,842,234,414,466,626,30,933,419,534,471,187,299,206,938,811,461,717,509,241,324,52,83,310,372,257,256,227,537,741,659,184,565,692,791,712,772,478,888,801,307,130,528,732,397,48,168,7,747,228,107,570,218,500,202,472,156,11,139,833,179,764,18,326,164,802,196,878,691,45,731,268,76,341,108,562,967,345,997,733,194,259,367,47,719,369,72,124,378,51,290,182,706,122,648,961,0,502,177,879,883,501,678,332,363,932,993,120,532,80,874,49,558,371,794,906,451,650,950,524,756,592,106,693,415,539,36,856,250,169,763,276,885,551,149,423,813,111,57,804,841,576,603,605,114,428,806,445,117,644,1,455,17,816,162,738,349,925,422,191,366,668,999,511,968,150,292,892,799,905,673,679,396,911,457,460,143,198,617,512,552,900,317,293,20,836,402,952,477,726,736,837,786,474,536,563,701,760,167,847,434,851,141,604,550,359,890,897,87,254,180,990,389,996,949,896,219,640,142,494,834]","arrowleft","true","0","4","233","1000","[""0089_N1000_K0233_CLIQUE"",""0054_N1000_K0233_NOCLIQUE""]"
"audio-keyboard-response","61","73563","0.0-56.0-0.0-1.0","","","","","","","","","","","","","","","","","","","","","","","","","null","audio_feedback/right/coin01.mp3","null","","","","0","4","233","1000","[""0089_N1000_K0233_CLIQUE"",""0054_N1000_K0233_NOCLIQUE""]"
"canvas-keyboard-response","62","75173","0.0-57.0-0.0-0.0","","","","","","","","","","","","","","","","","","","","","","","","","599","","arrowright","[922,884,993,845,285,21,834,916,840,97,235,863,336,129,917,388,70,842,35,741,283,264,613,296,813,989,402,944,541,522,908,69,601,215,380,837,898,750,703,222,118,159,169,633,391,773,558,108,459,253,663,345,679,832,478,393,368,216,73,225,415,675,802,267,969,350,464,981,234,417,294,113,900,645,491,16,714,783,241,812,951,552,37,151,178,889,165,134,943,360,992,831,356,978,909,427,709,583,205,433,430,954,47,699,578,463,155,872,748,602,718,575,874,539,329,452,429,509,568,109,921,972,334,126,243,43,781,987,405,369,448,963,423,11,897,506,745,59,504,255,915,792,268,604,62,341,212,691,375,147,707,96,238,56,206,822,515,310,487,177,87,314,261,914,537,929,755,717,680,511,82,607,488,183,529,207,449,300,634,689,190,335,861,52,635,725,18,858,274,756,791,352,693,399,507,237,125,953,489,141,476,565,669,92,304,581,102,270,397,903,622,671,3,428,628,468,114,570,184,79,698,770,135,743,754,171,904,975,825,403,317,105,409,597,777,545,533,445,442,843,875,182,549,821,381,667,247,705,572,859,322,771,157,526,469,803,287,465,71,166,769,260,242,422,501,389,976,890,642,142,219,595,779,26,596,710,223,815,881,990,316,325,734,735,446,955,4,196,120,338,910,167,124,980,306,930,793,307,966,63,455,424,809,475,362,649,732,494,100,668,646,379,61,80,938,742,928,883,138,443,559,309,901,799,588,471,6,940,949,436,453,333,78,456,302,394,964,378,774,438,804,610,819,119,906,542,624,918,697,798,364,407,665,548,677,280,5,643,865,749,824,995,893,376,337,95,204,172,753,240,412,343,931,175,331,577,0,326,217,945,968,414,392,327,359,849,609,273,411,209,986,852,988,611,616,259,846,631,246,620,122,823,435,632,582,662,22,173,554,249,508,486,681,536,472,106,143,454,829,547,98,305,281,851,794,311,795,800,618,958,555,28,587,586,398,603,806,573,93,24,99,149,40,715,224,920,139,340,712,974,500,594,816,534,236,385,579,867,696,382,936,410,758,685,213,886,123,730,957,146,638,811,65,421,451,111,72,367,77,991,265,856,67,924,447,321,984,927,256,140,530,8,117,767,540,970,905,862,128,728,684,479,839,112,926,457,937,913,480,218,784,801,320,524,907,567,763,551,933,961,158,520,60,757,971,556,576,437,416,286,231,346,497,55,744,94,996,49,759,599,731,400,505,666,877,625,694,110,136,701,683,658,543,673,502,873,186,251,254,244,482,776,229,810,787,532,600,672,187,275,179,84,762,932,817,214,27,91,45,250,656,569,519,83,132,458,291,896,347,591,495,14,434,75,292,891,313,276,371,208,163,144,899,233,557,426,202,780,606,516,277,390,923,885,38,647,644,808,39,220,724,657,664,687,13,952,592,473,853,374,580,585,911,148,462,796,553,211,737,361,408,546,788,564,661,994,764,180,925,888,344,686,174,752,156,164,383,608,420,615,807,176,470,733,295,768,882,894,431,195,328,711,289,617,228,719,31,708,605,104,761,258,199,221,870,189,651,418,127,726,627,912,358,432,960,919,514,571,226,15,517,116,440,387,738,137,941,308,269,496,101,637,510,713,871,962,312,847,660,404,81,484,716,88,535,170,797,790,939,200,895,395,467,318,301,450,674,413,598,690,271,32,365,499,377,232,461,869,879,525,363,527,372,942,68,115,263,876,85,593,152,827,7,670,760,145,654,2,785,425,857,746,766,103,772,299,747,23,319,353,850,477,290,998,720,439,150,181,826,131,245,460,262,523,162,947,58,503,86,279,252,342,406,293,848,349,54,64,441,695,303,130,946,841,722,48,227,653,682,154,490,612,864,985,324,935,401,950,153,574,133,512,626,550,288,814,160,348,266,370,973,74,257,706,284,90,396,373,188,538,868,805,444,17,29,639,12,775,528,641,278,366,838,168,892,765,866,655,630,736,51,498,1,563,619,192,636,485,844,53,161,700,562,41,704,902,983,729,676,191,19,272,830,740,9,880,513,786,25,544,727,702,782,590,589,688,833,623,466,721,887,855,282,42,483,50,561,76,934,650,89,46,10,818,982,332,474,518,621,652,828,493,566,967,836,194,878,354,44,948,386,977,648,339,751,297,298,999,357,323,640,203,521,355,739,860,210,30,248,965,678,723,107,201,185,956,419,629,854,33,614,789,230,492,330,692,351,531,36,34,997,384,315,778,121,198,659,20,66,57,959,239,835,560,584,481,820,193,197,979]","arrowright","true","0","5","233","1000","[""0007_N1000_K0233_NOCLIQUE"",""0031_N1000_K0233_CLIQUE""]"
"audio-keyboard-response","63","76163","0.0-57.0-0.0-1.0","","","","","","","","","","","","","","","","","","","","","","","","","null","audio_feedback/right/coin01.mp3","null","","","","0","5","233","1000","[""0007_N1000_K0233_NOCLIQUE"",""0031_N1000_K0233_CLIQUE""]"
"canvas-keyboard-response","64","77940","0.0-58.0-0.0-0.0","","","","","","","","","","","","","","","","","","","","","","","","","642","","arrowleft","[211,701,545,752,160,304,616,17,286,69,768,629,563,332,409,178,183,305,444,370,988,365,734,725,664,591,959,62,851,441,740,922,723,793,659,848,506,483,576,55,621,53,329,5,712,362,372,903,562,643,710,834,937,523,462,689,791,208,228,257,447,771,161,251,492,439,130,822,609,815,216,132,696,929,867,359,618,281,950,11,728,951,84,577,166,729,830,73,808,663,974,323,468,309,755,303,226,476,213,378,519,789,353,747,419,698,853,557,249,52,811,856,313,168,433,177,27,306,839,680,133,241,714,191,969,270,911,585,719,32,741,590,814,465,81,674,413,87,345,449,89,904,99,531,58,754,471,981,685,656,765,381,645,892,114,414,234,816,792,905,148,730,163,833,315,774,194,491,1,574,260,756,666,214,635,758,605,272,800,920,827,210,682,427,108,727,932,154,98,256,660,595,0,881,158,715,263,587,192,803,702,857,339,176,93,962,28,75,630,966,334,527,239,245,368,455,542,832,379,19,549,452,919,537,963,156,502,8,691,68,386,137,797,355,170,865,913,509,572,207,284,278,60,653,268,812,844,267,942,405,956,169,82,823,602,469,327,748,644,703,805,312,201,631,344,517,875,520,135,446,571,690,500,550,63,767,360,861,47,626,70,307,385,351,153,243,662,971,478,389,459,382,418,638,292,705,202,467,412,877,291,976,273,991,989,48,790,456,394,274,408,279,886,110,958,16,760,926,546,678,592,227,628,828,442,354,813,908,30,152,164,888,820,845,374,113,397,957,244,159,994,679,311,423,961,505,165,927,39,141,117,7,540,525,200,580,229,242,383,422,878,494,541,21,750,548,751,417,594,864,700,155,825,275,428,219,223,842,349,463,528,783,593,499,849,324,247,933,77,136,508,343,217,533,973,724,901,686,671,650,264,184,600,799,781,544,949,95,722,804,125,421,785,131,708,373,231,341,634,45,466,941,622,142,402,220,711,598,677,147,876,675,111,925,144,539,326,458,707,555,670,900,837,784,931,331,283,443,221,357,40,885,615,692,623,809,237,420,377,732,619,611,695,398,150,916,498,720,97,503,457,411,79,742,470,350,612,188,392,198,599,887,175,652,416,145,235,118,162,779,38,299,655,796,648,868,83,706,347,57,824,6,982,261,661,328,718,914,248,250,831,979,535,314,518,496,34,488,780,404,271,889,140,899,115,759,490,846,735,173,376,872,733,953,993,761,109,297,259,561,639,438,938,955,294,122,461,947,451,996,743,852,174,620,31,222,704,396,437,917,88,59,573,424,410,193,225,215,203,435,978,883,181,486,432,54,209,10,930,854,596,806,71,935,401,481,310,673,302,558,940,266,91,41,325,972,554,608,624,74,375,923,667,66,794,945,716,232,693,986,726,843,86,146,426,556,840,103,606,369,321,731,627,171,464,15,855,126,287,300,44,753,936,387,64,129,564,568,143,909,391,289,632,76,371,589,570,112,407,514,897,3,20,778,880,610,798,975,910,107,96,636,358,597,246,254,380,998,918,902,134,684,683,906,26,552,406,346,676,403,582,657,101,915,946,430,860,367,992,709,480,497,694,984,265,179,189,318,970,642,167,697,924,995,874,501,330,772,80,29,836,205,646,641,835,879,869,769,928,121,534,522,116,613,277,218,512,530,482,24,850,102,739,42,736,429,224,529,316,338,317,746,182,873,78,37,943,583,575,199,67,157,361,285,431,964,356,477,516,777,104,990,35,658,515,543,255,280,335,425,233,36,475,187,25,770,762,547,954,46,717,22,238,124,493,23,489,579,581,584,240,18,738,687,50,782,786,895,764,479,72,320,847,647,841,342,290,826,637,415,977,352,366,553,980,288,526,204,296,614,485,810,236,197,337,588,185,921,968,258,90,448,127,487,186,866,862,870,749,907,388,967,672,745,939,578,333,511,882,322,744,12,49,308,819,61,538,230,9,195,649,395,607,960,149,773,340,838,890,633,721,559,763,983,566,871,997,484,898,319,617,651,4,985,565,795,436,737,253,510,665,190,560,775,460,699,384,603,601,393,51,434,293,348,295,802,33,14,893,119,298,172,252,13,817,212,965,269,513,450,473,65,2,859,399,787,495,139,138,43,504,390,364,987,454,128,521,625,196,92,262,952,524,858,180,551,301,912,934,829,681,85,668,654,56,586,507,151,282,94,445,640,100,999,567,863,948,807,440,336,400,757,766,106,276,536,363,788,604,776,120,896,472,801,569,891,123,532,713,884,818,688,894,944,105,453,474,669,206,821]","arrowleft","true","0","6","217","1000","[""0001_N1000_K0217_CLIQUE"",""0068_N1000_K0217_NOCLIQUE""]"
"audio-keyboard-response","65","78923","0.0-58.0-0.0-1.0","","","","","","","","","","","","","","","","","","","","","","","","","null","audio_feedback/right/coin01.mp3","null","","","","0","6","217","1000","[""0001_N1000_K0217_CLIQUE"",""0068_N1000_K0217_NOCLIQUE""]"
"canvas-keyboard-response","66","80645","0.0-59.0-0.0-0.0","","","","","","","","","","","","","","","","","","","","","","","","","717","","arrowright","[543,998,933,670,949,550,65,98,522,708,785,61,193,928,337,569,285,201,60,397,737,655,491,938,873,361,977,738,104,400,487,677,49,729,48,638,572,67,724,929,477,622,124,112,654,371,197,883,876,861,362,468,900,138,858,562,691,994,742,773,280,624,129,25,936,601,11,125,727,921,598,553,380,999,62,717,716,920,134,943,644,70,941,12,202,476,466,839,303,431,575,218,684,616,378,205,461,935,523,194,846,603,599,952,174,537,411,893,122,827,642,700,176,115,37,26,333,38,636,373,356,826,982,604,945,215,159,806,757,532,732,815,255,299,695,529,753,996,46,284,463,257,963,489,648,884,50,527,666,68,867,209,418,185,316,571,958,818,856,891,664,534,265,367,721,429,237,53,182,539,331,731,324,4,279,363,166,9,808,292,434,226,352,704,44,548,927,709,844,513,851,573,270,772,521,320,462,495,789,895,248,971,441,278,942,137,493,85,99,272,763,965,656,693,471,223,354,630,106,140,608,658,203,351,34,777,707,467,454,821,245,420,465,950,143,761,828,681,379,748,922,890,533,841,135,335,565,282,469,563,510,59,347,690,899,428,674,247,409,880,168,812,163,760,500,241,15,497,28,528,206,435,355,663,191,956,200,370,80,288,416,77,313,696,448,375,559,869,290,339,747,243,914,66,723,133,482,328,825,770,882,306,991,456,535,787,408,175,909,586,480,506,286,576,386,414,225,131,903,706,653,871,260,439,502,438,766,156,498,596,450,283,481,127,317,564,860,173,269,116,986,171,588,117,18,155,774,720,130,820,236,444,609,978,376,970,641,809,483,901,885,719,525,531,877,896,144,154,412,485,560,659,549,459,688,661,554,786,585,452,671,368,762,132,41,294,755,556,995,399,211,440,934,924,254,330,765,51,342,906,221,229,196,745,750,959,234,637,594,301,989,813,93,634,505,147,486,415,814,925,538,800,842,944,261,231,997,973,387,628,910,561,915,804,912,274,406,788,84,673,647,169,119,341,266,419,726,405,992,611,22,697,833,109,472,199,957,258,879,547,595,102,823,568,613,396,42,587,746,401,101,357,326,740,353,504,54,92,816,518,305,359,300,722,228,293,198,526,74,974,953,30,739,865,366,619,741,180,309,220,886,759,919,913,852,433,204,384,0,854,148,256,446,625,947,281,360,81,872,686,540,875,212,803,911,232,600,817,843,224,253,733,712,850,775,21,557,264,811,296,834,810,892,685,629,304,797,311,960,160,71,235,14,423,905,590,315,646,574,240,951,64,650,917,669,607,940,217,514,447,94,566,805,302,184,250,752,645,72,427,793,56,170,227,177,551,268,105,612,918,507,768,57,214,172,310,142,711,512,474,32,123,322,703,189,29,592,391,626,728,478,939,340,436,113,878,97,781,192,849,210,657,114,332,178,365,308,725,372,121,555,980,7,277,651,795,453,581,894,515,3,314,421,488,606,593,238,20,756,385,319,307,338,897,983,442,473,295,262,758,27,683,69,954,735,382,146,275,503,837,325,422,632,552,776,855,312,479,458,675,343,10,749,730,289,388,425,390,976,251,149,780,426,605,208,152,870,857,128,424,88,579,273,968,859,639,100,932,350,195,96,520,492,831,190,407,610,623,219,457,524,329,222,769,536,832,672,410,413,103,822,75,904,33,508,17,36,394,120,652,186,437,63,484,136,923,682,597,207,567,76,86,1,374,393,455,87,516,668,246,862,162,161,111,713,790,40,702,344,845,318,73,796,517,542,291,110,665,31,602,83,578,640,694,981,183,798,430,617,887,836,47,819,993,404,835,187,6,79,926,179,676,967,972,263,460,643,582,866,145,58,545,931,744,377,90,91,276,39,801,139,530,799,678,242,807,830,327,577,621,824,252,511,714,519,736,181,898,979,153,627,937,89,558,383,345,157,496,698,323,346,239,432,267,43,591,687,259,692,699,230,403,55,470,782,509,475,868,794,649,946,964,583,589,364,633,751,19,244,783,969,662,743,962,216,336,141,358,853,966,2,840,754,715,82,451,767,930,35,848,771,955,443,889,984,584,838,321,494,705,680,164,541,679,5,864,24,348,701,660,667,334,618,233,52,150,874,902,718,985,151,580,45,213,464,298,402,847,389,297,369,449,779,987,107,689,165,271,108,501,392,961,398,544,784,988,802,907,417,908,287,349,990,445,95,881,8,158,631,188,395,118,764,863,78,614,381,546,888,16,126,23,778,710,635,167,249,916,948,620,615,792,975,791,499,829,570,13,734,490]","arrowright","true","0","7","217","1000","[""0029_N1000_K0217_NOCLIQUE"",""0074_N1000_K0217_CLIQUE""]"
"audio-keyboard-response","67","81643","0.0-59.0-0.0-1.0","","","","","","","","","","","","","","","","","","","","","","","","","null","audio_feedback/right/coin01.mp3","null","","","","0","7","217","1000","[""0029_N1000_K0217_NOCLIQUE"",""0074_N1000_K0217_CLIQUE""]"
"canvas-keyboard-response","68","83380","0.0-60.0-0.0-0.0","","","","","","","","","","","","","","","","","","","","","","","","","837","","arrowright","[123,26,406,108,969,439,374,317,684,16,554,686,555,808,511,522,768,754,516,865,116,755,532,118,697,94,364,135,431,994,919,958,39,290,846,659,545,265,870,295,500,739,893,252,727,908,247,971,28,194,504,401,972,393,692,164,877,612,806,852,660,183,713,744,804,749,354,661,186,872,757,916,83,360,332,163,536,929,11,258,74,46,427,23,807,717,641,689,243,99,983,485,216,261,925,980,926,843,933,491,379,523,815,185,743,402,961,85,32,391,471,128,468,38,773,506,655,378,796,276,420,299,375,1,214,517,371,81,257,890,767,232,469,167,15,756,668,347,204,143,966,263,22,231,455,409,71,788,312,113,681,318,751,574,198,253,783,264,548,366,746,712,811,868,838,802,896,636,733,288,776,296,878,215,720,635,212,652,149,716,964,95,335,750,148,822,403,987,842,557,699,810,582,795,320,244,103,745,294,889,590,985,61,242,537,17,761,518,860,145,50,622,281,494,814,370,790,975,604,385,315,700,965,367,55,527,181,358,213,20,327,594,707,939,914,615,984,798,737,949,610,0,381,400,89,886,373,8,259,330,326,218,770,624,827,246,853,230,805,905,380,19,414,693,328,530,126,993,365,934,696,122,35,658,478,512,710,449,583,72,673,405,687,79,284,785,224,871,153,41,894,800,883,424,799,855,854,867,999,488,223,63,238,235,618,433,322,333,962,349,591,723,97,904,412,764,498,117,801,561,844,487,662,601,346,241,356,786,752,924,36,77,698,352,840,165,283,131,821,828,98,849,833,505,621,457,735,950,453,331,542,501,345,715,482,177,550,12,308,630,970,711,255,556,91,456,552,221,691,311,100,917,111,461,566,18,267,292,84,981,56,892,653,996,847,534,547,278,497,372,228,563,937,422,256,829,489,866,674,325,383,240,105,376,979,627,736,102,442,570,901,669,298,793,936,237,520,342,539,859,140,927,286,997,782,80,544,724,170,741,138,27,581,440,836,399,53,915,67,225,119,66,437,857,906,665,200,595,222,6,75,688,515,418,762,382,740,417,120,649,432,47,169,69,416,907,197,353,977,323,44,685,600,858,560,549,394,670,29,982,850,704,747,179,817,205,410,672,268,690,918,9,837,428,978,426,78,275,398,130,481,76,37,3,708,567,644,465,680,862,51,96,460,616,486,459,617,818,538,397,14,464,514,942,404,337,647,157,623,629,220,314,654,175,938,40,519,781,62,156,86,147,990,643,953,139,155,640,676,73,529,336,446,106,728,657,646,419,832,166,196,369,571,578,509,603,141,869,413,541,132,361,435,451,909,388,34,273,932,602,605,998,193,772,454,339,173,88,226,988,963,508,448,58,45,725,452,613,172,947,340,270,291,634,642,913,466,384,136,129,701,48,201,227,199,507,598,236,269,182,568,597,923,112,816,565,819,150,421,171,784,510,341,287,968,350,438,127,920,496,475,891,158,187,525,992,133,638,152,262,217,351,362,493,207,110,307,599,881,535,577,274,472,606,480,900,703,960,940,474,300,306,823,775,176,137,104,607,671,995,787,450,441,848,726,986,168,948,619,250,584,203,33,943,765,824,65,206,803,694,211,121,310,873,21,249,573,59,229,637,301,42,875,956,957,663,609,835,845,251,677,463,57,154,359,444,650,408,484,387,734,580,90,912,254,633,434,348,396,941,305,763,395,628,553,683,483,316,479,533,524,714,880,954,596,146,632,260,334,101,338,191,30,611,825,742,879,898,839,559,667,748,180,87,189,664,830,344,162,329,303,343,289,731,576,279,540,967,797,5,355,389,386,575,564,738,368,109,526,467,280,503,521,974,411,543,423,25,188,780,470,620,551,502,82,208,794,945,706,769,931,679,195,285,115,579,31,492,302,445,910,809,60,293,52,702,826,885,729,558,447,841,976,321,277,585,884,458,989,266,4,202,174,309,813,429,973,586,178,7,831,357,68,219,134,144,443,774,705,903,64,882,777,991,363,955,921,851,210,820,190,160,407,390,10,944,70,462,887,477,760,834,766,161,719,436,626,392,861,589,721,587,930,792,946,928,49,490,614,863,425,107,13,562,722,234,282,588,656,476,789,952,888,675,778,876,499,192,304,209,125,2,248,651,935,666,856,779,864,897,272,631,233,473,639,874,678,791,546,239,682,732,528,922,151,245,43,911,430,569,608,718,415,951,592,695,759,812,758,24,593,513,297,142,572,709,771,184,730,625,645,93,959,377,899,319,895,648,92,902,124,271,324,531,159,313,114,495,753,54]","arrowright","true","0","8","200","1000","[""0062_N1000_K0200_NOCLIQUE"",""0039_N1000_K0200_CLIQUE""]"
"audio-keyboard-response","69","84363","0.0-60.0-0.0-1.0","","","","","","","","","","","","","","","","","","","","","","","","","null","audio_feedback/right/coin01.mp3","null","","","","0","8","200","1000","[""0062_N1000_K0200_NOCLIQUE"",""0039_N1000_K0200_CLIQUE""]"
"canvas-keyboard-response","70","86085","0.0-61.0-0.0-0.0","","","","","","","","","","","","","","","","","","","","","","","","","684","","arrowleft","[409,748,63,497,940,841,943,487,872,772,367,383,509,8,549,533,130,770,285,691,162,335,523,546,685,34,694,784,134,55,166,999,440,209,484,639,53,310,117,250,364,291,125,559,838,800,567,688,220,267,144,759,2,677,635,311,513,776,555,947,541,702,895,876,981,836,478,786,992,161,896,82,218,765,412,97,569,489,461,356,777,634,386,888,553,430,245,951,747,735,591,337,204,259,116,434,619,238,976,135,123,230,181,548,865,833,983,139,198,732,164,730,270,596,667,75,51,536,464,857,504,905,236,944,949,24,111,273,143,633,58,399,738,681,660,897,916,727,879,470,374,396,627,124,843,589,256,39,979,196,927,651,416,987,972,133,62,299,18,493,607,132,265,962,88,646,503,271,29,360,638,512,389,794,45,814,707,160,113,388,580,594,411,343,629,547,967,74,47,535,465,924,576,103,340,716,710,410,221,878,795,309,588,942,631,665,908,419,480,433,492,520,315,755,690,26,692,393,617,472,296,100,881,711,914,613,996,937,558,326,733,854,518,150,543,819,23,606,445,48,241,61,902,280,263,556,889,190,864,862,81,450,931,965,508,554,258,436,808,877,206,574,154,321,839,261,874,672,754,945,499,791,227,696,641,719,80,21,115,17,212,494,110,958,384,932,414,998,65,787,804,515,453,242,402,170,431,519,610,783,561,400,234,921,801,119,539,197,620,163,275,970,201,274,581,158,348,511,926,616,734,871,929,345,145,177,70,647,104,657,626,866,941,565,844,917,89,632,294,11,391,867,215,282,817,255,990,287,891,663,501,295,244,213,54,428,687,557,293,171,522,149,963,726,715,534,622,922,225,205,442,680,827,852,773,305,408,693,417,483,304,644,298,875,387,288,363,172,984,935,649,260,779,180,112,517,551,466,756,526,200,208,925,233,279,884,585,330,106,301,188,429,381,496,231,14,281,552,758,91,796,807,721,457,93,994,743,373,136,211,832,778,863,899,485,824,9,623,495,793,861,653,762,736,392,601,578,961,286,444,821,712,592,760,129,502,147,272,674,521,482,253,560,57,141,323,986,232,993,156,602,904,500,802,855,705,20,210,312,668,413,934,828,5,573,240,659,806,654,42,893,252,403,152,525,845,750,678,342,78,365,575,612,426,455,540,829,12,818,7,809,728,372,207,264,349,4,562,790,146,880,529,851,151,460,432,246,85,737,375,952,0,753,425,614,333,527,16,542,985,894,66,314,418,475,853,222,191,308,339,658,153,599,71,524,451,723,982,474,257,223,441,933,868,182,277,40,563,785,742,834,357,731,797,537,354,138,568,966,187,684,720,268,697,774,313,452,217,19,338,507,856,362,628,189,890,729,86,700,909,789,43,810,900,830,652,704,98,331,94,669,67,107,199,353,725,699,579,766,64,369,718,913,813,782,995,988,907,10,775,69,226,661,102,471,666,923,68,347,698,682,679,530,427,394,203,329,303,991,811,873,6,859,137,950,701,382,831,957,439,670,584,361,870,254,350,642,443,763,643,608,92,121,741,379,371,95,820,128,214,420,717,481,35,327,228,570,769,155,689,603,31,109,744,328,869,41,954,706,848,390,456,358,955,184,140,22,90,969,77,531,317,27,816,686,142,195,722,708,473,648,960,46,799,44,235,505,989,938,438,582,346,38,964,883,749,332,545,636,746,713,283,656,740,595,956,174,825,920,611,262,498,322,823,598,131,405,577,792,486,476,105,36,572,454,625,752,183,385,60,780,316,114,564,971,919,761,764,352,159,745,334,448,297,676,973,974,939,847,378,407,33,812,587,662,975,366,514,703,850,84,224,467,488,99,757,173,167,468,52,915,169,860,615,946,928,276,101,127,605,586,341,901,600,650,590,325,604,96,377,506,249,968,948,739,278,251,422,463,193,72,885,930,709,376,284,849,477,56,898,359,912,397,290,977,675,618,903,671,122,401,219,289,424,49,528,229,168,846,768,351,435,714,307,798,239,538,108,148,673,997,724,404,186,683,118,936,178,406,398,550,266,319,216,248,79,192,300,37,479,423,76,237,837,609,771,842,421,886,803,469,157,767,459,822,247,185,840,910,655,959,490,532,176,437,544,306,447,120,165,583,911,637,695,906,978,566,415,269,805,446,395,25,887,13,835,1,355,32,953,815,324,788,175,751,491,292,318,621,59,370,30,918,73,597,645,640,458,302,126,449,344,858,624,50,630,15,462,664,3,83,179,194,336,516,243,320,380,781,510,892,571,882,28,826,87,593,368,980,202]","arrowleft","true","0","9","200","1000","[""0043_N1000_K0200_CLIQUE"",""0088_N1000_K0200_NOCLIQUE""]"
"audio-keyboard-response","71","87083","0.0-61.0-0.0-1.0","","","","","","","","","","","","","","","","","","","","","","","","","null","audio_feedback/right/coin01.mp3","null","","","","0","9","200","1000","[""0043_N1000_K0200_CLIQUE"",""0088_N1000_K0200_NOCLIQUE""]"
"canvas-keyboard-response","72","88661","0.0-62.0-0.0-0.0","","","","","","","","","","","","","","","","","","","","","","","","","749","","arrowright","[534,102,35,497,198,688,874,890,417,780,704,918,675,219,875,287,108,624,952,225,3,21,856,525,788,495,873,553,369,454,280,91,809,600,622,377,228,349,154,226,461,667,365,581,360,179,396,341,52,408,648,117,842,4,301,157,326,201,617,177,59,43,130,665,374,275,424,485,357,761,930,984,269,897,535,818,825,943,766,304,193,133,500,637,552,978,422,499,605,517,518,250,653,951,867,415,833,489,985,187,837,2,687,884,774,262,776,560,197,510,972,910,57,295,807,399,294,297,298,87,204,203,370,689,582,748,740,80,276,465,51,310,205,882,150,176,484,339,431,965,314,208,472,797,362,628,562,751,760,214,345,364,746,922,543,26,27,229,129,24,266,210,569,420,209,550,34,435,669,376,744,680,521,643,821,949,75,863,241,127,14,715,122,782,238,921,858,421,868,296,810,920,385,881,12,898,308,231,907,41,566,533,749,378,306,941,721,661,508,481,903,49,700,962,607,259,79,143,725,602,773,271,871,256,368,254,852,844,827,74,186,610,436,340,584,808,953,346,567,9,547,401,113,709,15,741,829,912,195,594,350,100,135,395,604,734,935,796,149,66,548,668,212,644,372,854,981,720,253,20,126,160,812,977,258,571,905,549,50,278,975,391,745,315,750,61,593,224,976,563,646,888,860,83,443,40,480,124,423,338,793,121,993,426,81,963,609,574,28,148,252,599,64,735,528,146,44,265,411,923,190,23,333,994,568,475,578,785,989,570,803,277,542,904,682,946,379,172,787,638,425,992,690,790,631,676,240,30,270,799,93,375,322,123,869,589,73,46,917,798,657,440,355,647,223,490,236,291,886,756,739,221,95,861,155,380,945,255,387,449,870,509,996,817,879,626,56,273,299,558,804,410,850,283,403,540,988,284,11,580,506,587,736,967,119,765,371,755,635,678,406,522,13,437,491,759,325,232,909,438,872,156,862,383,938,937,99,823,694,263,531,446,971,983,260,386,279,877,931,519,447,334,244,433,67,964,671,527,141,331,673,934,131,990,632,351,633,318,285,824,418,92,405,45,853,460,913,591,995,199,466,956,846,916,47,213,556,896,450,37,998,313,292,183,134,641,445,590,178,524,634,16,738,151,619,583,309,902,585,462,714,451,471,708,169,654,107,840,786,841,305,753,695,597,429,767,814,729,707,698,512,801,86,498,944,217,167,515,170,924,832,936,419,469,514,10,592,758,894,235,69,658,885,106,300,237,789,432,800,656,96,504,60,352,101,805,103,848,830,159,620,71,111,851,629,479,737,806,575,82,90,895,359,769,274,397,474,347,329,336,330,711,354,39,728,317,513,697,899,501,342,470,713,389,444,655,62,459,502,427,636,681,859,576,136,381,892,770,664,319,174,640,249,757,402,180,639,324,724,394,248,958,933,691,826,22,486,0,453,887,901,955,311,784,672,855,927,261,448,754,31,392,538,979,727,957,361,239,889,866,677,651,932,363,966,25,19,717,630,145,120,33,969,763,182,742,692,227,316,164,781,323,139,114,452,999,168,332,404,288,849,116,5,991,161,836,839,125,413,55,492,926,144,526,88,382,516,699,929,264,98,663,344,603,185,723,393,476,794,545,36,747,215,128,343,906,685,627,455,683,666,7,165,731,706,987,328,140,430,194,442,414,551,173,564,105,608,367,693,659,398,142,110,802,243,407,373,494,541,876,649,166,18,384,701,473,815,312,762,865,662,523,822,286,77,163,200,293,488,900,230,54,878,439,29,84,17,388,864,68,674,138,327,457,645,65,611,245,153,820,53,487,97,772,642,792,302,925,838,353,409,702,356,482,493,908,843,38,595,914,982,686,207,974,771,532,660,358,272,679,191,586,32,752,158,816,791,267,76,959,85,614,400,577,845,290,184,997,539,764,320,828,880,696,722,115,973,947,716,612,434,390,477,768,463,783,222,705,835,813,598,192,960,615,468,48,573,202,777,112,78,507,834,366,919,948,546,795,986,478,307,530,565,970,520,6,939,684,206,162,911,616,456,726,779,137,961,572,950,282,537,171,467,147,175,555,536,181,621,954,70,559,234,458,613,618,529,544,321,732,247,1,246,188,118,718,63,303,719,218,242,606,940,72,8,511,811,441,196,268,623,819,601,557,220,596,703,281,109,211,464,503,928,588,942,132,775,289,89,579,216,710,712,337,670,831,335,251,94,730,625,42,857,348,412,554,104,980,152,416,257,233,58,505,891,893,733,650,561,743,778,847,496,483,189,915,968,428,883,652]","arrowright","true","0","10","183","1000","[""0009_N1000_K0183_NOCLIQUE"",""0095_N1000_K0183_CLIQUE""]"
"audio-keyboard-response","73","89643","0.0-62.0-0.0-1.0","","","","","","","","","","","","","","","","","","","","","","","","","null","audio_feedback/right/coin01.mp3","null","","","","0","10","183","1000","[""0009_N1000_K0183_NOCLIQUE"",""0095_N1000_K0183_CLIQUE""]"
"canvas-keyboard-response","74","91700","0.0-63.0-0.0-0.0","","","","","","","","","","","","","","","","","","","","","","","","","1018","","arrowright","[577,850,651,739,999,750,531,398,240,806,121,224,306,829,74,847,976,447,376,41,57,582,597,448,133,346,994,663,455,134,6,518,988,471,783,377,297,761,467,120,769,780,624,797,410,15,997,172,946,96,808,303,328,128,902,365,544,38,289,906,922,545,832,349,320,910,916,885,507,154,119,307,379,247,294,630,191,400,453,900,820,712,316,337,801,706,385,576,196,799,211,62,937,968,877,749,575,304,55,317,609,436,862,290,388,165,959,694,262,736,395,99,257,763,844,22,73,116,598,312,733,754,895,355,26,132,738,804,127,284,52,859,40,476,490,845,669,12,526,484,302,190,692,380,229,323,218,282,613,840,684,243,86,108,350,391,256,590,667,995,251,683,805,151,904,438,665,230,539,84,197,402,952,673,309,689,45,973,50,639,156,958,855,553,560,794,61,981,273,814,505,335,589,135,13,625,996,281,698,266,474,522,255,186,605,107,399,737,615,868,18,618,957,216,647,80,275,786,971,863,19,286,860,972,105,621,277,274,695,333,693,401,917,143,940,195,244,325,601,268,756,652,729,170,220,992,32,427,935,853,796,160,666,445,207,231,386,644,635,60,314,563,638,842,237,443,510,800,500,384,437,347,826,408,525,848,200,232,104,356,980,570,785,481,846,475,253,548,791,460,301,123,767,887,629,97,745,373,674,495,205,705,65,322,359,838,91,566,14,339,368,411,293,604,893,390,319,56,85,175,593,362,20,432,641,162,146,956,340,25,524,101,704,716,610,171,27,252,898,206,82,931,675,415,452,707,313,680,329,993,210,755,352,336,778,89,775,512,375,640,702,603,7,955,873,1,687,110,382,326,124,540,217,770,541,810,457,768,179,226,760,623,106,72,626,311,462,425,2,341,998,923,183,219,676,677,142,463,948,841,431,95,592,777,681,880,236,178,245,58,498,963,883,774,235,748,979,633,223,334,63,849,456,324,464,759,561,502,711,891,551,520,357,212,823,239,974,269,943,348,945,33,31,571,394,208,299,824,318,882,371,480,209,468,493,827,915,369,607,497,657,423,643,122,39,650,168,23,616,511,81,690,64,723,174,573,872,288,660,192,409,793,506,977,227,691,90,267,813,965,815,839,812,581,470,29,568,743,193,892,967,602,444,430,145,504,795,982,276,881,419,92,554,911,378,381,465,3,161,109,537,634,292,834,166,34,861,5,579,889,344,489,308,387,454,565,929,263,642,608,930,927,501,866,622,556,392,482,83,176,975,722,458,187,139,479,397,670,8,731,879,466,870,710,772,789,42,896,331,569,114,699,543,485,225,645,586,831,393,741,914,248,686,59,803,222,503,953,742,129,327,412,538,367,732,69,668,144,238,567,298,790,984,361,583,189,753,550,851,654,198,611,113,407,530,951,802,366,574,513,141,649,152,969,173,536,422,261,496,546,98,424,587,588,287,614,594,389,181,278,766,150,9,418,954,250,534,49,809,451,928,147,888,305,728,878,627,562,798,439,547,487,912,836,184,757,580,653,925,619,213,417,527,420,720,483,960,441,867,477,517,310,138,944,709,964,659,354,469,130,724,765,821,126,986,494,117,499,36,869,784,272,149,136,726,79,658,66,932,11,697,473,628,715,822,970,612,617,926,620,182,682,403,4,434,405,279,351,338,747,383,21,646,446,363,678,781,435,163,360,703,578,203,421,442,478,735,557,950,54,843,708,221,936,947,194,167,901,721,661,559,779,67,153,938,242,44,24,254,246,764,406,374,28,725,345,137,776,37,941,440,523,746,260,414,264,734,758,280,632,782,919,169,918,740,51,332,713,87,300,835,701,115,215,343,989,962,876,202,47,899,631,30,819,76,488,662,585,370,233,875,103,180,555,606,894,521,259,792,688,811,330,315,533,549,93,909,271,949,111,228,396,542,188,364,450,131,854,978,727,696,100,671,78,472,17,71,508,491,112,934,655,0,933,429,833,903,857,10,908,773,730,897,270,816,636,102,516,265,865,291,920,433,864,564,53,744,177,637,595,48,509,771,552,426,718,788,762,285,913,258,486,528,837,685,991,985,214,890,514,751,672,94,600,283,249,852,296,459,199,648,856,939,515,77,787,874,88,535,966,201,164,679,558,75,353,35,519,714,961,656,584,817,825,532,125,921,43,828,717,46,204,404,185,342,596,148,157,321,413,16,449,907,68,295,241,884,818,664,416,591,905,700,118,529,983,871,428,70,140,599,942,830,155,572,159,461,807,372,858,886,234,158,752,719,492,987,990,924,358]","arrowright","true","0","11","183","1000","[""0032_N1000_K0183_NOCLIQUE"",""0032_N1000_K0183_CLIQUE""]"
"audio-keyboard-response","75","92683","0.0-63.0-0.0-1.0","","","","","","","","","","","","","","","","","","","","","","","","","null","audio_feedback/right/coin01.mp3","null","","","","0","11","183","1000","[""0032_N1000_K0183_NOCLIQUE"",""0032_N1000_K0183_CLIQUE""]"
"canvas-keyboard-response","76","94421","0.0-64.0-0.0-0.0","","","","","","","","","","","","","","","","","","","","","","","","","844","","arrowright","[807,885,332,796,447,793,714,212,985,451,311,45,919,298,70,712,811,749,159,254,914,981,106,960,350,655,455,94,306,591,163,678,994,979,233,330,44,588,995,769,25,741,145,405,716,445,53,996,880,798,300,129,344,204,326,706,567,261,30,76,699,140,598,282,936,824,603,612,136,819,460,157,312,472,717,983,415,862,476,323,463,942,789,389,871,8,783,4,827,624,897,122,934,356,226,210,40,847,956,95,358,616,436,636,119,395,821,559,555,241,907,406,732,701,55,47,505,143,207,363,633,590,708,88,818,208,218,679,393,849,450,235,384,517,978,857,400,923,721,593,71,747,66,359,672,521,49,592,304,809,858,601,499,370,970,403,666,27,583,269,46,279,901,167,191,565,917,357,26,686,394,242,773,482,684,275,941,561,277,324,121,427,947,475,291,262,719,62,874,768,911,80,594,774,151,278,756,735,957,718,441,364,531,284,410,671,810,416,764,112,240,767,92,273,487,228,976,539,797,852,653,596,803,586,369,980,589,971,581,609,772,771,421,13,580,153,327,895,806,247,412,800,765,268,58,946,775,376,932,933,132,89,481,438,434,52,649,272,474,879,251,761,536,345,927,266,201,926,18,3,120,920,999,495,887,337,663,723,842,831,886,865,222,939,133,61,469,948,781,720,322,19,511,528,452,641,621,1,497,900,371,36,91,563,84,473,158,777,724,660,335,540,375,560,993,280,906,651,526,696,471,169,903,123,547,814,841,199,318,835,50,224,661,899,156,614,437,869,670,150,388,916,178,791,220,673,576,264,731,628,315,96,829,606,362,752,301,245,9,193,480,148,489,804,943,938,493,296,462,687,443,484,263,339,662,346,141,569,924,986,170,790,527,398,459,10,117,128,190,93,754,283,293,252,883,303,209,214,751,54,881,229,545,845,302,65,180,286,665,757,334,669,703,352,884,570,557,864,578,417,137,538,97,171,830,37,802,778,407,139,360,341,165,965,635,502,331,184,529,179,975,748,378,863,638,69,786,861,338,908,950,99,48,542,162,430,544,840,991,870,838,974,217,211,637,725,945,67,587,617,736,20,746,448,374,206,537,702,753,846,548,645,124,196,743,658,513,866,295,439,727,289,867,784,231,85,929,383,728,111,972,955,954,780,181,693,372,172,186,23,762,694,135,250,963,310,221,317,532,878,695,698,24,319,14,652,386,408,856,664,200,973,613,308,396,22,243,149,444,385,770,256,834,966,105,876,239,260,39,722,530,6,815,525,634,225,785,913,894,535,125,962,677,32,205,615,958,564,483,414,87,988,101,426,910,855,843,623,918,639,860,118,755,232,68,844,246,630,468,292,889,937,987,646,17,173,2,305,100,21,418,333,213,553,620,977,365,197,294,63,877,429,314,575,433,692,640,465,74,288,738,467,935,700,982,328,83,113,697,130,989,107,276,72,446,115,307,202,896,820,512,98,813,194,494,546,921,599,704,504,404,726,909,912,579,488,509,657,116,533,853,12,486,763,411,174,392,788,595,236,78,873,654,882,103,185,574,733,893,650,442,0,435,922,347,321,549,108,709,668,742,534,60,868,387,56,959,571,851,28,110,984,992,390,249,102,496,491,35,997,832,253,90,77,808,573,34,681,485,11,524,425,454,905,104,745,758,187,964,558,675,944,373,837,227,479,355,285,629,715,632,605,155,41,248,647,215,127,287,782,267,309,890,607,440,925,144,478,759,238,420,503,822,31,297,711,515,281,270,683,510,470,5,584,705,737,325,168,164,198,29,177,457,109,431,43,391,424,377,146,38,409,166,644,64,500,622,518,75,676,805,740,610,520,875,59,189,522,659,585,320,219,744,464,554,257,710,259,81,175,138,631,57,799,872,51,685,951,779,990,428,931,402,154,188,626,258,833,625,131,401,825,826,674,461,176,787,33,79,329,348,368,968,556,423,550,381,366,582,792,458,7,342,730,854,680,729,161,466,998,397,961,82,930,182,42,643,516,340,600,648,656,336,776,904,848,543,928,602,216,271,237,354,795,562,604,688,949,817,566,888,490,399,255,892,142,816,16,152,619,506,577,419,734,449,413,351,508,15,316,618,86,952,572,230,689,891,299,192,195,707,794,313,828,898,379,382,690,739,492,477,969,453,514,265,823,940,290,380,432,850,551,73,361,967,839,608,523,750,766,507,552,713,915,836,114,812,691,859,183,541,682,667,519,147,501,597,367,902,627,203,349,126,953,353,642,611,422,343,134,244,456,498,234,160,568,760,274,801,223]","arrowright","true","0","12","167","1000","[""0065_N1000_K0167_NOCLIQUE"",""0054_N1000_K0167_CLIQUE""]"
"audio-keyboard-response","77","95403","0.0-64.0-0.0-1.0","","","","","","","","","","","","","","","","","","","","","","","","","null","audio_feedback/right/coin01.mp3","null","","","","0","12","167","1000","[""0065_N1000_K0167_NOCLIQUE"",""0054_N1000_K0167_CLIQUE""]"
"canvas-keyboard-response","78","97876","0.0-65.0-0.0-0.0","","","","","","","","","","","","","","","","","","","","","","","","","1555","","arrowright","[581,987,152,847,423,340,452,576,88,536,813,199,318,245,251,60,367,973,559,32,489,447,268,498,361,524,959,707,572,659,569,547,76,14,314,224,610,357,808,666,306,160,936,784,499,792,222,392,289,630,284,429,171,102,134,308,728,454,50,705,125,999,435,501,759,294,276,969,905,913,256,887,3,735,805,7,677,460,776,316,92,530,47,786,114,173,650,226,207,829,218,183,919,575,840,368,968,462,594,248,777,748,283,341,155,615,325,721,393,949,319,606,542,190,186,480,241,333,263,214,143,706,352,45,662,742,616,63,749,475,286,824,67,713,84,270,253,890,291,975,225,751,369,204,415,376,4,557,642,40,380,888,459,738,820,427,832,816,809,471,397,644,90,485,228,860,657,422,184,611,220,799,86,629,144,608,760,577,61,675,997,697,522,926,100,884,181,966,996,924,839,410,442,26,424,236,952,864,765,264,554,34,259,320,907,711,275,168,852,704,53,912,386,243,202,99,111,932,600,752,974,955,468,827,835,39,960,876,649,993,922,553,303,957,838,750,992,205,956,712,587,964,430,836,285,631,732,771,391,590,503,789,482,112,137,640,545,942,845,539,848,38,97,658,487,773,891,948,89,941,169,645,757,438,439,203,75,455,584,970,963,398,339,894,36,403,496,322,585,624,602,147,781,508,525,558,200,722,664,394,375,51,893,146,136,128,80,389,702,94,177,244,469,729,13,120,300,484,497,540,880,928,812,258,918,696,77,421,170,464,671,478,844,242,262,355,676,246,161,91,717,513,779,921,647,580,986,998,612,445,62,938,311,348,851,247,223,830,383,648,574,815,833,500,56,694,564,129,22,59,64,883,373,548,219,785,365,619,8,953,686,436,145,29,432,437,889,142,741,592,568,901,453,254,440,176,954,101,903,193,695,0,550,822,586,197,162,382,71,561,180,895,215,196,463,546,474,988,909,216,104,153,991,937,209,855,237,509,870,211,441,198,374,85,854,621,882,534,492,83,962,778,110,692,714,49,309,634,378,684,446,690,793,939,210,679,651,984,15,770,250,520,772,238,18,693,874,842,641,578,821,166,983,886,366,466,416,494,1,660,388,834,892,349,723,449,261,787,731,227,194,655,362,35,841,399,613,885,450,933,944,961,734,41,927,221,148,212,141,626,720,405,549,614,328,20,519,904,826,796,187,5,332,235,338,680,418,231,599,877,505,448,2,260,871,563,866,788,55,931,538,52,159,790,93,175,131,531,315,897,843,313,411,27,945,371,240,44,916,43,188,132,656,636,470,867,282,527,935,823,404,665,817,10,465,42,31,201,195,605,408,481,121,138,130,601,252,595,896,82,11,688,794,370,113,940,925,68,21,989,344,178,583,417,28,105,150,911,467,122,126,646,708,9,299,189,701,995,560,491,72,351,516,803,920,727,16,972,681,643,233,265,278,582,910,95,795,685,400,667,81,755,321,384,230,571,914,617,627,663,402,670,774,981,908,167,420,873,565,800,364,978,239,573,407,950,288,609,65,622,433,756,185,57,923,846,457,673,127,330,747,157,298,985,526,819,638,23,139,428,818,103,385,588,358,917,78,154,359,192,678,623,334,881,377,618,967,515,353,296,724,541,801,661,593,535,317,709,347,674,668,280,512,758,579,302,782,304,597,277,390,637,744,401,431,947,514,769,775,118,951,135,326,946,164,740,336,517,798,281,396,272,607,979,158,743,859,780,763,345,906,324,108,495,716,490,766,898,156,810,589,899,625,331,413,878,488,217,213,98,310,687,293,290,682,73,653,434,603,725,12,337,737,802,179,124,754,994,292,323,87,753,768,444,698,354,556,746,17,267,872,123,66,764,140,165,409,461,879,48,544,297,828,856,163,232,958,477,327,868,767,305,604,977,33,426,476,672,739,691,971,943,718,151,861,543,857,133,552,69,628,312,528,566,875,229,149,24,934,54,733,862,287,518,639,902,869,343,456,825,620,863,279,719,523,850,174,234,804,116,6,70,249,96,37,652,107,915,762,710,350,504,511,483,837,414,726,562,669,406,807,689,479,858,632,379,699,532,356,806,30,683,831,635,900,814,930,346,555,307,74,976,853,521,257,25,982,451,596,458,119,761,58,360,990,412,591,598,570,329,271,493,273,736,117,443,363,865,395,929,700,206,510,255,372,208,703,106,529,654,269,274,980,19,745,295,472,266,715,537,783,115,502,425,342,797,965,381,109,849,533,46,567,473,79,791,191,730,633,507,387,419,551,172,182,486,811,335,301,506]","arrowright","true","0","13","167","1000","[""0046_N1000_K0167_NOCLIQUE"",""0020_N1000_K0167_CLIQUE""]"
"audio-keyboard-response","79","98863","0.0-65.0-0.0-1.0","","","","","","","","","","","","","","","","","","","","","","","","","null","audio_feedback/right/coin01.mp3","null","","","","0","13","167","1000","[""0046_N1000_K0167_NOCLIQUE"",""0020_N1000_K0167_CLIQUE""]"
"canvas-keyboard-response","80","100901","0.0-66.0-0.0-0.0","","","","","","","","","","","","","","","","","","","","","","","","","1005","","arrowleft","[808,274,72,82,630,546,811,402,797,605,64,906,978,845,104,9,181,356,490,628,518,449,821,926,535,319,271,348,173,156,715,479,200,427,66,101,672,634,580,886,709,392,73,869,46,972,773,995,45,426,384,751,20,834,863,4,732,370,794,839,611,441,582,318,599,632,929,825,791,471,781,735,246,191,70,259,747,510,91,7,569,984,189,772,766,118,864,564,63,170,659,463,90,286,902,501,261,112,167,893,652,810,458,633,340,13,942,840,428,328,809,376,434,491,927,636,480,991,876,468,674,175,228,225,787,547,891,265,216,596,106,577,575,504,57,610,560,637,305,915,667,94,197,95,109,754,405,383,297,885,939,128,692,330,524,917,485,294,190,34,136,378,545,17,505,172,5,622,643,558,526,812,998,970,234,296,612,629,362,804,973,235,311,187,85,866,453,855,529,956,143,964,522,814,618,448,587,875,757,159,44,883,472,264,306,642,981,871,506,253,835,565,798,230,10,30,570,247,661,874,533,233,162,684,100,366,188,924,477,54,488,574,907,567,301,731,861,210,272,568,406,11,668,351,178,620,207,287,425,762,341,482,345,342,284,543,588,419,761,816,98,420,418,273,513,734,829,562,313,844,838,795,648,267,823,644,39,387,93,958,76,84,304,320,980,849,872,539,484,743,625,371,223,469,347,270,438,802,454,442,949,559,897,664,783,243,531,571,683,205,759,756,555,819,987,728,154,706,111,697,282,665,204,22,512,553,877,948,730,968,464,409,516,921,61,459,116,497,456,576,432,494,779,737,680,281,21,423,983,528,719,918,753,83,103,960,231,325,703,16,119,999,660,212,604,878,177,373,908,365,215,784,236,854,377,245,158,502,598,49,466,410,122,662,224,720,801,278,62,806,603,357,358,687,619,455,729,185,298,226,307,451,682,678,912,900,676,86,237,733,826,334,492,473,390,435,321,868,738,832,339,579,475,696,689,931,364,404,65,202,2,953,444,752,765,81,309,290,43,707,359,725,655,56,433,179,123,511,446,440,250,993,813,315,349,666,416,532,836,379,408,760,249,476,89,421,380,350,967,184,631,6,174,27,312,748,591,51,557,527,219,489,911,417,778,848,302,52,910,815,713,776,698,79,394,520,851,552,331,790,148,344,744,770,403,694,613,741,843,208,280,381,884,621,285,121,916,363,551,493,800,975,214,32,673,540,50,452,141,142,445,946,33,566,369,584,923,140,852,499,368,556,722,865,793,989,862,820,626,763,920,650,211,509,982,102,129,88,413,176,873,396,48,607,617,788,985,996,645,262,414,256,750,269,481,858,279,332,767,293,397,120,135,892,182,856,881,242,880,310,450,990,523,714,639,887,943,913,919,671,739,429,155,940,335,959,805,495,58,517,936,19,199,624,700,867,932,217,113,745,601,586,640,461,263,690,117,882,153,723,685,422,291,716,107,15,160,646,954,324,530,487,439,352,930,238,542,327,796,842,670,870,726,157,374,498,740,782,994,548,398,221,635,92,986,962,710,447,354,209,695,503,40,944,775,333,24,594,965,818,895,663,395,23,627,693,724,699,151,909,329,18,647,147,130,460,554,702,255,133,303,859,165,166,74,248,933,764,289,470,669,938,609,213,941,827,928,55,353,657,519,164,841,585,595,651,114,768,955,799,538,616,87,196,755,150,898,837,203,115,905,337,857,26,146,899,977,77,888,589,807,550,180,317,606,260,515,935,266,386,947,28,525,29,268,496,252,338,276,846,615,486,785,68,879,749,222,957,251,299,437,436,950,192,600,257,169,830,186,316,41,145,976,239,718,534,1,277,922,295,8,275,336,59,60,25,686,507,38,465,656,786,963,789,853,971,951,99,308,952,688,641,31,592,47,67,578,382,126,195,658,78,323,198,193,412,399,561,677,232,777,75,746,227,654,937,727,254,42,12,934,969,97,415,679,391,218,966,590,572,822,541,544,149,573,483,411,375,389,137,992,372,292,711,400,393,860,478,850,229,168,139,3,521,896,758,14,206,326,508,681,608,283,144,890,602,675,467,385,241,691,803,240,704,53,346,220,736,742,769,537,388,649,462,549,597,614,833,623,127,653,961,903,105,925,183,721,701,124,110,457,314,134,424,131,152,0,514,108,914,997,80,244,431,132,894,69,901,194,161,536,138,37,638,593,792,717,401,71,771,361,563,780,322,407,430,889,974,201,847,828,583,125,443,774,171,96,988,36,258,945,705,163,300,979,360,355,343,831,581,904,35,712,824,474,500,708,288,817,367]","arrowleft","true","0","14","150","1000","[""0049_N1000_K0150_CLIQUE"",""0058_N1000_K0150_NOCLIQUE""]"
"audio-keyboard-response","81","101903","0.0-66.0-0.0-1.0","","","","","","","","","","","","","","","","","","","","","","","","","null","audio_feedback/right/coin01.mp3","null","","","","0","14","150","1000","[""0049_N1000_K0150_CLIQUE"",""0058_N1000_K0150_NOCLIQUE""]"
"canvas-keyboard-response","82","103748","0.0-67.0-0.0-0.0","","","","","","","","","","","","","","","","","","","","","","","","","812","","arrowright","[949,341,940,115,621,610,973,31,488,332,994,861,99,67,833,285,476,184,429,604,639,933,553,696,854,667,813,72,555,387,886,361,295,294,576,136,713,13,309,419,196,436,805,455,945,94,179,584,114,575,571,302,810,330,632,157,393,30,795,186,456,189,461,668,369,342,238,869,395,306,311,709,289,862,590,66,384,964,194,957,291,325,612,104,239,517,913,796,950,298,736,995,195,585,382,718,22,87,735,25,396,240,821,943,641,205,613,562,506,968,176,578,10,235,838,468,756,694,98,398,522,715,414,55,665,163,248,333,954,119,743,747,712,635,108,321,583,222,318,118,510,619,422,252,478,457,545,156,442,513,446,449,364,731,144,779,688,466,924,719,922,772,921,788,887,85,91,68,726,929,160,97,908,885,508,34,102,552,800,504,815,985,554,811,774,188,879,677,293,241,187,432,685,706,937,547,946,607,477,373,614,185,453,944,551,486,202,433,33,525,415,269,216,340,501,226,388,786,315,651,490,62,217,459,482,271,952,536,261,305,358,370,896,682,231,938,140,166,181,492,850,678,670,495,368,615,434,867,499,608,496,889,441,535,760,868,35,218,751,448,234,662,591,793,481,859,740,509,987,37,703,965,848,212,705,808,61,720,839,353,776,592,125,377,479,308,871,532,399,947,383,617,967,647,890,763,232,734,290,262,831,503,754,142,208,568,915,266,572,135,351,51,139,920,900,402,154,42,891,452,299,939,691,124,260,624,12,52,909,638,129,435,594,819,343,101,74,314,219,560,852,256,516,844,925,168,334,902,473,564,882,380,410,618,313,404,78,103,494,105,39,979,515,165,892,519,733,534,804,423,339,511,597,424,605,169,230,533,930,899,864,834,755,437,969,574,577,329,204,317,69,288,229,693,392,286,1,254,539,860,70,579,830,447,710,897,881,802,58,631,192,714,970,425,147,416,884,48,816,666,100,64,249,469,497,791,616,876,679,960,727,656,603,411,5,386,721,823,770,847,822,622,976,307,537,645,878,758,628,164,17,148,725,690,360,550,324,95,907,661,643,505,489,287,75,717,475,375,111,567,600,988,121,828,237,653,247,49,582,224,906,927,673,611,233,981,283,371,430,467,132,732,133,832,96,89,268,23,520,942,161,625,911,707,919,780,379,974,236,768,895,999,742,138,15,845,79,323,540,319,83,663,542,56,904,146,837,152,460,806,586,417,738,36,972,50,820,962,0,223,284,984,412,637,636,322,227,45,650,658,60,28,753,174,559,40,337,570,931,350,792,250,789,799,543,596,646,664,626,485,80,526,426,213,450,787,558,548,917,320,711,428,203,120,463,134,391,20,359,215,752,956,959,544,674,177,381,127,472,507,686,518,910,530,331,655,438,427,421,259,253,113,948,803,493,675,464,557,523,986,365,451,990,955,870,563,580,198,54,773,745,708,566,593,627,767,926,301,277,514,934,877,454,739,19,588,199,599,983,4,316,345,762,842,11,390,338,866,273,893,484,989,512,389,335,471,556,781,406,65,790,687,304,197,43,244,659,474,649,357,346,680,76,130,980,126,992,354,149,775,531,846,527,827,814,112,642,698,702,825,300,737,750,418,206,549,849,444,818,178,27,264,374,349,77,7,385,741,609,274,151,57,880,348,918,407,683,44,122,961,400,824,209,581,701,744,769,529,695,587,409,997,21,312,723,858,971,431,32,191,660,700,644,812,272,326,106,724,598,86,671,258,190,875,38,257,265,652,292,355,439,699,137,281,93,692,16,372,784,280,502,853,778,153,620,757,629,180,443,88,81,24,589,408,953,728,941,175,221,141,975,623,716,397,888,367,483,376,963,117,465,916,521,480,601,836,145,270,978,676,883,279,777,211,807,82,171,684,123,2,766,458,3,158,528,310,761,207,29,840,462,977,797,801,110,183,901,759,210,8,327,672,182,958,633,857,798,524,26,344,865,170,914,785,405,228,634,155,746,538,107,561,872,966,498,276,214,912,363,46,491,982,92,394,362,225,923,704,681,748,843,749,873,201,167,220,569,863,420,14,809,606,771,689,41,640,9,935,730,128,352,296,998,829,546,200,500,826,116,278,835,90,996,159,932,783,903,347,63,84,595,487,413,53,470,297,722,928,541,109,356,657,336,18,6,263,648,403,765,764,242,243,445,729,173,936,894,47,782,71,255,73,401,267,193,851,162,874,172,991,602,654,131,143,282,669,856,303,328,855,905,565,993,440,951,573,251,366,378,245,630,275,59,794,697,898,246,841,150,817]","arrowright","true","0","15","150","1000","[""0020_N1000_K0150_NOCLIQUE"",""0038_N1000_K0150_CLIQUE""]"
"audio-keyboard-response","83","104743","0.0-67.0-0.0-1.0","","","","","","","","","","","","","","","","","","","","","","","","","null","audio_feedback/right/coin01.mp3","null","","","","0","15","150","1000","[""0020_N1000_K0150_NOCLIQUE"",""0038_N1000_K0150_CLIQUE""]"
"canvas-keyboard-response","84","107508","0.0-68.0-0.0-0.0","","","","","","","","","","","","","","","","","","","","","","","","","1758",""," ","[34,574,280,509,583,881,194,630,648,402,785,521,443,640,39,51,570,153,298,888,400,914,588,808,926,375,814,986,839,318,459,903,560,957,542,677,945,396,185,711,205,319,395,929,870,561,177,721,948,871,666,11,453,406,169,933,81,752,421,652,119,82,407,598,661,700,843,811,392,281,245,822,950,352,867,678,727,578,525,480,975,971,716,191,462,540,412,807,477,501,799,789,977,63,359,919,792,422,688,261,451,176,410,45,250,892,263,44,347,941,531,742,860,32,564,361,57,734,517,76,943,221,50,60,138,962,603,86,983,368,719,739,770,511,889,923,729,315,209,851,804,562,984,378,958,900,908,425,473,202,374,901,642,74,728,604,825,48,265,591,180,206,286,935,398,170,837,43,490,339,890,441,141,715,720,872,886,612,781,647,745,465,71,195,991,439,845,758,880,504,838,702,580,197,348,357,909,162,65,533,668,437,314,836,17,271,510,365,698,753,987,35,296,103,436,268,163,291,215,551,760,786,809,956,969,164,931,924,653,714,747,284,657,863,906,997,508,385,507,608,91,461,638,939,145,117,740,293,46,768,725,372,21,844,450,675,633,377,487,990,181,160,67,165,853,52,896,628,99,613,947,955,438,681,656,995,403,371,550,447,300,775,697,341,66,226,322,918,70,334,217,687,998,766,391,353,594,53,228,345,624,513,673,440,625,672,251,109,502,335,127,29,593,772,411,260,193,535,824,877,72,12,960,828,198,750,778,95,489,175,211,172,771,257,56,954,61,543,592,565,158,278,121,343,33,937,801,305,609,73,927,148,949,530,223,649,887,595,552,833,456,362,183,503,232,690,749,590,695,980,790,764,55,108,433,722,230,409,338,601,414,401,404,28,123,161,358,313,199,285,328,470,5,679,354,274,337,126,912,961,294,709,713,815,599,369,152,605,755,464,225,171,569,131,596,627,664,184,848,363,90,813,751,59,64,189,332,244,428,272,736,763,136,568,236,18,133,832,819,135,584,519,965,96,290,6,321,859,7,899,619,386,301,732,146,655,514,665,981,621,497,115,662,114,536,774,850,19,482,730,486,873,767,239,708,575,852,434,959,746,351,366,243,611,214,897,242,532,854,125,754,382,42,379,92,582,891,373,834,724,478,330,641,827,784,498,676,259,303,756,556,856,13,712,849,479,762,210,118,571,607,925,16,563,58,553,798,654,93,258,429,283,15,674,938,682,311,279,336,524,471,342,769,101,632,974,985,952,468,921,394,635,920,500,299,227,455,264,505,499,783,818,47,857,157,331,683,292,597,106,810,235,325,143,2,692,254,150,452,812,602,846,387,26,932,738,970,364,390,132,512,458,307,847,840,457,968,129,474,717,107,36,830,922,248,329,405,803,940,381,388,333,733,773,707,231,297,10,816,116,75,972,276,383,639,218,875,173,494,182,190,691,492,572,528,907,680,549,483,817,701,726,864,419,735,748,515,586,289,999,222,349,397,963,469,518,555,240,234,467,793,256,779,304,1,79,894,704,506,631,80,323,643,435,253,910,537,805,326,111,541,520,622,466,660,317,327,312,526,380,548,94,967,476,113,255,623,686,911,408,996,865,340,976,953,610,424,174,420,275,449,188,795,787,966,445,9,355,823,277,54,718,262,204,41,460,782,862,463,454,979,670,140,346,137,89,993,360,516,529,308,902,159,22,820,989,544,356,829,212,207,884,685,855,973,370,600,706,282,944,566,98,858,491,705,637,288,699,703,917,417,295,149,669,898,324,821,415,124,389,83,416,802,876,233,797,585,112,192,104,270,693,741,238,723,744,557,936,554,166,978,982,671,930,800,617,122,882,134,4,743,384,249,14,3,826,200,547,154,629,667,269,964,393,229,444,237,495,38,139,737,988,644,951,31,430,841,615,694,731,432,861,904,634,426,25,589,522,110,77,128,883,496,100,689,448,796,659,247,178,367,144,97,539,23,24,216,646,413,224,201,992,893,219,320,186,835,88,208,895,620,874,915,651,831,928,142,40,442,788,20,344,241,636,879,220,267,534,350,49,606,806,168,587,147,761,757,156,475,650,151,942,68,130,759,84,777,8,418,780,579,179,427,431,105,309,196,155,120,266,87,213,866,842,573,614,423,558,616,710,618,878,546,577,791,645,934,246,69,203,85,310,765,0,913,446,794,916,626,488,376,472,523,994,30,167,481,538,905,302,187,885,567,493,252,869,658,273,527,684,287,306,485,27,581,102,868,559,316,78,37,62,399,545,696,776,946,576,484,663]","arrowright","","0","16","133","1000","[""0006_N1000_K0133_NOCLIQUE"",""0067_N1000_K0133_CLIQUE""]"
"audio-keyboard-response","85","108603","0.0-68.0-0.0-1.0","","","","","","","","","","","","","","","","","","","","","","","","","null","audio_feedback/shuffles/shuffle01.mp3","null","","","","0","16","133","1000","[""0006_N1000_K0133_NOCLIQUE"",""0067_N1000_K0133_CLIQUE""]"
"canvas-keyboard-response","86","111444","0.0-68.1-0.1-0.1","","","","","","","","","","","","","","","","","","","","","","","","","1867",""," ","[733,233,182,271,232,537,149,370,70,873,199,390,100,856,224,505,109,804,809,342,83,650,889,872,564,24,236,133,7,482,56,951,695,891,134,308,312,690,781,214,349,356,704,588,921,789,859,320,175,987,659,608,845,90,782,642,551,314,153,66,257,833,45,744,229,368,351,799,592,268,635,656,273,477,629,775,151,686,296,391,582,583,340,377,135,764,640,991,87,246,166,380,624,251,59,323,697,18,535,862,807,150,458,653,366,570,389,30,230,803,539,641,787,288,89,981,105,919,881,211,335,143,298,736,654,713,413,129,620,481,3,284,811,329,374,850,309,625,784,379,36,51,204,162,531,48,802,675,226,263,710,259,882,800,304,434,23,547,818,476,69,344,402,817,385,834,430,196,324,546,201,839,239,393,154,101,580,241,115,664,576,604,688,221,194,983,158,558,2,953,605,478,793,988,615,317,906,215,77,548,409,404,517,37,431,460,671,720,515,797,414,684,183,128,507,99,345,319,188,350,947,878,373,692,586,930,826,177,843,122,975,285,4,858,768,220,568,721,140,5,171,395,184,20,369,279,102,159,923,909,913,626,113,490,602,106,73,601,708,827,594,737,141,325,468,971,662,814,757,998,958,193,396,146,766,652,348,596,600,216,81,854,691,861,347,358,729,542,522,813,227,238,209,534,10,384,289,823,853,126,120,979,990,486,796,773,941,651,302,267,8,394,245,647,730,392,499,735,139,591,297,761,897,585,718,357,612,44,616,999,132,543,523,60,743,388,709,550,770,412,740,563,47,727,667,400,992,630,589,364,142,433,282,545,622,754,944,995,86,613,343,202,985,130,753,783,614,200,315,124,74,265,703,638,497,283,464,884,698,745,984,456,739,137,307,670,707,405,39,179,91,857,213,313,945,427,321,741,835,748,262,554,934,955,621,114,673,15,450,632,518,110,420,645,865,607,286,633,264,892,900,212,354,301,192,993,250,978,821,832,722,986,668,864,95,242,426,844,994,58,407,410,510,207,599,465,399,996,628,970,280,683,715,875,336,92,416,915,790,470,914,672,956,444,780,41,249,352,78,474,138,824,842,363,305,750,197,187,560,107,571,168,178,121,792,360,904,97,946,863,415,462,234,365,116,786,549,927,383,514,306,524,948,771,326,530,526,693,696,573,618,454,225,529,562,441,939,559,504,938,68,860,40,254,876,491,243,648,278,156,445,732,205,931,14,387,777,29,776,755,928,440,72,16,974,290,79,446,293,112,338,627,287,123,136,495,623,9,639,341,422,682,810,942,372,769,64,295,657,145,677,911,75,538,997,480,676,386,895,849,969,967,144,779,71,838,901,17,960,28,908,989,266,825,303,38,443,949,437,408,82,401,572,950,841,34,367,483,449,888,700,893,429,912,965,494,62,584,734,837,966,269,487,331,907,903,521,922,772,346,555,896,819,649,32,879,31,603,890,334,84,502,52,65,466,33,276,926,619,717,165,936,381,258,189,432,53,461,666,877,472,885,260,104,210,255,186,511,765,337,198,973,54,353,489,362,403,869,157,929,954,108,467,310,26,498,541,738,680,270,952,503,292,980,1,574,519,943,762,222,932,67,512,870,846,96,417,575,726,148,191,181,916,694,752,851,678,552,371,528,840,398,457,687,13,778,798,488,376,699,886,231,822,493,527,918,593,937,508,316,565,294,76,291,256,760,751,567,272,19,425,424,173,237,805,463,167,252,725,636,702,525,442,747,852,333,21,451,513,597,339,746,80,533,972,820,855,536,98,103,587,880,848,763,49,617,185,917,705,203,920,131,977,724,590,976,419,610,501,520,459,452,609,728,248,455,553,50,0,579,924,118,899,866,867,961,406,117,22,25,723,711,887,88,561,217,674,830,910,311,453,681,509,172,871,577,55,759,643,235,774,540,665,982,767,43,12,375,299,206,815,756,240,218,378,968,228,170,516,327,484,397,219,195,868,127,428,788,125,247,423,479,794,208,933,411,330,962,925,831,812,719,93,164,742,485,506,160,447,11,147,332,253,119,318,963,163,712,731,660,274,701,544,685,57,806,689,322,637,361,706,644,469,438,894,749,382,500,898,421,176,492,801,655,883,669,435,439,63,261,328,578,180,679,606,300,847,46,155,281,658,598,448,964,169,496,631,473,957,959,359,828,808,816,85,35,27,646,905,836,714,223,244,935,595,174,661,152,532,6,471,277,634,61,791,111,795,785,436,556,418,758,569,566,42,275,663,611,716,829,874,902,355,190,161,94,940,475,581,557]","arrowright","","0","16","133","1000","[""0006_N1000_K0133_NOCLIQUE"",""0067_N1000_K0133_CLIQUE""]"
"audio-keyboard-response","87","112523","0.0-68.1-0.1-1.1","","","","","","","","","","","","","","","","","","","","","","","","","null","audio_feedback/shuffles/shuffle01.mp3","null","","","","0","16","133","1000","[""0006_N1000_K0133_NOCLIQUE"",""0067_N1000_K0133_CLIQUE""]"
"canvas-keyboard-response","88","114836","0.0-68.2-0.2-0.2","","","","","","","","","","","","","","","","","","","","","","","","","1221","","arrowright","[253,883,373,588,237,868,749,974,861,713,72,747,795,78,881,983,761,355,10,800,485,101,340,687,650,910,668,528,679,558,816,302,119,979,453,137,977,62,686,674,277,685,219,464,251,136,506,509,706,230,563,20,944,45,113,328,37,155,882,143,828,50,880,370,12,631,472,999,224,421,145,459,346,663,727,773,640,294,838,766,823,276,283,382,733,700,549,998,199,522,30,958,712,990,514,950,400,901,971,920,201,264,66,148,93,378,250,716,696,874,666,187,758,146,231,890,678,676,295,500,256,465,596,782,493,907,327,555,132,347,170,536,126,762,329,737,106,76,728,865,242,984,629,234,204,46,559,186,91,249,281,48,740,332,439,975,986,897,946,732,487,585,508,232,114,321,272,163,107,71,182,569,85,540,677,335,154,535,456,47,360,351,557,420,738,303,399,287,22,988,654,259,956,38,104,105,866,652,970,27,18,80,427,504,139,227,377,991,664,741,361,723,209,77,724,308,494,808,681,217,945,995,344,943,604,102,854,210,544,577,731,401,404,288,869,833,4,935,58,914,207,937,840,75,895,162,461,267,468,357,5,847,627,827,206,90,722,708,7,873,118,25,815,515,922,409,449,600,891,153,196,490,796,662,129,648,268,637,719,326,955,286,572,21,934,829,417,236,651,492,121,527,57,17,263,470,781,729,15,122,656,932,180,948,70,356,413,436,904,469,124,229,520,89,123,36,116,926,543,726,616,157,261,744,570,441,768,477,2,320,765,6,83,836,513,898,906,802,774,931,433,705,751,108,476,171,690,870,393,780,463,215,252,372,392,462,776,553,431,964,826,42,391,976,574,617,736,850,412,369,783,165,278,168,300,753,519,857,671,388,447,787,560,142,805,541,924,39,936,496,178,517,699,150,293,87,896,183,354,657,422,179,957,845,819,745,44,721,0,32,245,997,812,318,584,839,97,238,860,156,260,33,408,707,415,963,851,312,691,176,876,398,474,19,396,750,342,440,131,954,84,561,566,858,406,425,887,130,831,630,34,915,779,592,414,586,645,211,576,273,523,495,81,593,111,333,304,643,608,889,912,426,213,919,548,619,69,817,824,383,262,452,386,864,214,424,497,985,394,498,533,141,443,717,843,258,532,147,3,331,203,923,675,322,692,900,628,241,190,435,235,658,793,239,547,798,117,135,177,639,942,432,770,31,611,967,269,471,550,987,480,466,908,244,434,597,405,764,688,785,568,174,64,801,24,63,40,310,649,68,669,334,953,479,317,877,760,771,583,632,695,966,825,225,567,621,590,633,200,542,285,341,994,591,757,875,752,94,809,927,49,661,266,863,350,419,894,362,184,60,51,615,26,389,375,756,359,160,605,28,301,505,437,856,336,799,366,886,524,711,546,292,993,638,451,899,265,423,837,803,149,885,842,703,110,790,125,95,284,670,552,980,564,811,338,92,23,191,65,701,384,921,212,734,255,458,961,193,290,54,59,134,862,763,996,429,444,698,879,777,226,684,450,784,660,872,982,411,951,503,594,917,279,832,428,718,73,810,296,172,791,818,109,353,940,969,806,368,194,467,11,181,653,913,755,205,159,960,972,807,291,363,929,834,697,709,367,197,202,189,140,501,216,673,309,841,282,573,314,385,499,164,965,610,579,161,339,486,248,739,512,240,247,115,9,634,275,478,855,475,144,659,510,208,952,545,138,358,655,918,488,571,529,625,473,299,928,930,316,502,884,374,554,192,195,482,981,581,74,395,635,672,587,61,457,79,603,1,599,228,88,720,551,642,609,257,29,223,454,430,526,775,959,100,989,365,407,778,403,846,103,491,297,298,52,280,82,397,830,888,531,337,848,319,792,797,445,315,127,380,55,614,647,43,221,835,680,307,185,949,371,947,516,483,622,133,613,128,814,710,438,620,390,271,788,813,601,772,86,767,530,973,274,418,565,794,376,188,364,416,349,166,41,67,311,905,978,909,518,289,759,714,35,853,152,689,534,938,387,871,641,748,902,607,537,683,624,612,893,667,410,175,539,402,446,56,379,789,646,911,730,992,167,348,243,754,460,381,595,325,481,769,682,746,270,725,455,218,484,704,821,96,743,345,489,702,352,306,849,939,916,578,13,99,511,198,598,324,254,120,556,580,933,941,822,878,562,867,623,903,962,233,112,173,220,442,694,448,602,525,820,665,246,14,715,804,589,169,507,636,644,343,892,742,852,521,151,330,323,313,575,735,8,844,626,538,606,925,98,222,582,968,618,693,305,859,53,786,16,158]","arrowright","true","0","16","133","1000","[""0006_N1000_K0133_NOCLIQUE"",""0067_N1000_K0133_CLIQUE""]"
"audio-keyboard-response","89","115823","0.0-68.2-0.2-1.2","","","","","","","","","","","","","","","","","","","","","","","","","null","audio_feedback/right/coin01.mp3","null","","","","0","16","133","1000","[""0006_N1000_K0133_NOCLIQUE"",""0067_N1000_K0133_CLIQUE""]"
