"value","trial_type","trial_index","time_elapsed","internal_node_id","width","height","webaudio","browser","browser_version","mobile","os","fullscreen","vsync_rate","webcam","microphone","success","timeout","failed_images","failed_audio","failed_video","view_history","rt","stimulus","response","nodes_order","correct_response","block_index","presentation_index","clique_size","graph_size","graphs_names","correct"
"","call-function","0","5","0.0-0.0","","","","","","","","","","","","","","","","","","","","","","","","","","","",""
"","browser-check","1","10744","0.0-1.0","1536","730","true","chrome","132.0.0","false","Windows 10","true","145.07","true","true","","","","","","","","","","","","","","","","",""
"","preload","2","11396","0.0-2.0","","","","","","","","","","","","true","false","[]","[]","[]","","","","","","","","","","","",""
"","pavlovia","3","12225","0.0-3.0","","","","","","","","","","","","","","","","","","","","","","","","","","","",""
"","instructions","4","47092","0.0-4.0","","","","","","","","","","","","","","","","","[{""page_index"":0,""viewing_time"":5349},{""page_index"":1,""viewing_time"":29516}]","34864","","","","","","","","","",""
"","html-keyboard-response","5","54415","0.0-5.0-0.0","","","","","","","","","","","","","","","","","","7322","By accepting to participate in this study, you confirm:
                <p style='text-align:left'>
                    - That I have carefully read the explanations regarding this study and the entire experimental procedure;<br>
                    - That I have been informed about the aims and objectives of this research;<br>
                    - That I am aware of the inconveniences, if any, caused by the experiment;<br>
                    - That I have received satisfactory assurances regarding the confidentiality of the information obtained from the examination of my own person; <br>
                    - That I am aware that I can withdraw at any stage of the study.
                <p>
                <span style=""color: #808080"">
                    Press [Y] to <strong>accept</strong>.
                </span> <br>
                <span style=""color: #808080"">
                    Press [N] to <strong>refuse</strong>.
                </span>","y","","","","","","","",""
"","survey-html-form","6","65421","0.0-6.0","","","","","","","","","","","","","","","","","","11005","","{""gender"":""male"",""age"":""26""}","","","","","","","",""
"","preload","7","65954","0.0-7.0","","","","","","","","","","","","true","false","[]","[]","[]","","","","","","","","","","","",""
"","instructions","8","373148","0.0-8.0","","","","","","","","","","","","","","","","","[{""page_index"":0,""viewing_time"":4036},{""page_index"":1,""viewing_time"":2266},{""page_index"":2,""viewing_time"":1660},{""page_index"":3,""viewing_time"":3258},{""page_index"":4,""viewing_time"":1787},{""page_index"":3,""viewing_time"":6116},{""page_index"":4,""viewing_time"":4892},{""page_index"":3,""viewing_time"":214},{""page_index"":4,""viewing_time"":1820},{""page_index"":5,""viewing_time"":4205},{""page_index"":6,""viewing_time"":1287},{""page_index"":7,""viewing_time"":3110},{""page_index"":8,""viewing_time"":2452},{""page_index"":9,""viewing_time"":1748},{""page_index"":10,""viewing_time"":1709},{""page_index"":11,""viewing_time"":1486},{""page_index"":12,""viewing_time"":3545},{""page_index"":13,""viewing_time"":1681},{""page_index"":14,""viewing_time"":2180},{""page_index"":15,""viewing_time"":1590},{""page_index"":16,""viewing_time"":1183},{""page_index"":17,""viewing_time"":2048},{""page_index"":18,""viewing_time"":1349},{""page_index"":19,""viewing_time"":2015},{""page_index"":18,""viewing_time"":225},{""page_index"":19,""viewing_time"":524},{""page_index"":18,""viewing_time"":278},{""page_index"":19,""viewing_time"":345},{""page_index"":20,""viewing_time"":465},{""page_index"":21,""viewing_time"":1737},{""page_index"":22,""viewing_time"":2319},{""page_index"":23,""viewing_time"":785},{""page_index"":24,""viewing_time"":495},{""page_index"":25,""viewing_time"":3584},{""page_index"":24,""viewing_time"":274},{""page_index"":25,""viewing_time"":273},{""page_index"":24,""viewing_time"":236},{""page_index"":25,""viewing_time"":377},{""page_index"":24,""viewing_time"":306},{""page_index"":25,""viewing_time"":961},{""page_index"":26,""viewing_time"":4214},{""page_index"":27,""viewing_time"":3080},{""page_index"":28,""viewing_time"":7361},{""page_index"":29,""viewing_time"":5142},{""page_index"":30,""viewing_time"":2117},{""page_index"":31,""viewing_time"":4622},{""page_index"":32,""viewing_time"":14909},{""page_index"":33,""viewing_time"":3561},{""page_index"":34,""viewing_time"":4203},{""page_index"":35,""viewing_time"":91438},{""page_index"":36,""viewing_time"":3094},{""page_index"":37,""viewing_time"":3949},{""page_index"":36,""viewing_time"":181},{""page_index"":37,""viewing_time"":214},{""page_index"":36,""viewing_time"":277},{""page_index"":37,""viewing_time"":247},{""page_index"":36,""viewing_time"":299},{""page_index"":37,""viewing_time"":394},{""page_index"":38,""viewing_time"":2858},{""page_index"":39,""viewing_time"":6107},{""page_index"":40,""viewing_time"":3605},{""page_index"":41,""viewing_time"":2996},{""page_index"":42,""viewing_time"":9312},{""page_index"":43,""viewing_time"":3819},{""page_index"":44,""viewing_time"":1400},{""page_index"":43,""viewing_time"":288},{""page_index"":44,""viewing_time"":385},{""page_index"":43,""viewing_time"":293},{""page_index"":44,""viewing_time"":517},{""page_index"":43,""viewing_time"":360},{""page_index"":44,""viewing_time"":353},{""page_index"":43,""viewing_time"":304},{""page_index"":44,""viewing_time"":368},{""page_index"":43,""viewing_time"":361},{""page_index"":44,""viewing_time"":5514},{""page_index"":45,""viewing_time"":12699},{""page_index"":44,""viewing_time"":360},{""page_index"":45,""viewing_time"":340},{""page_index"":46,""viewing_time"":6110},{""page_index"":47,""viewing_time"":2905},{""page_index"":48,""viewing_time"":5382},{""page_index"":49,""viewing_time"":2666},{""page_index"":50,""viewing_time"":12407},{""page_index"":51,""viewing_time"":5367}]","307193","","","","","","","","","",""
"","instructions","9","379135","0.0-9.0","","","","","","","","","","","","","","","","","[{""page_index"":0,""viewing_time"":5987}]","5987","","","","","","","","","",""
"","preload","10","379900","0.0-10.0","","","","","","","","","","","","true","false","[]","[]","[]","","","","","","","","","","","",""
"","image-keyboard-response","11","388121","0.0-11.0","","","","","","","","","","","","","","","","","","8220","tutorial/p_reduce/task_familiarization_images/part 1/01_N160_K90_cliqueRight_question1.PNG"," ","","","","","","","",""
"","image-keyboard-response","12","391389","0.0-12.0","","","","","","","","","","","","","","","","","","3266","tutorial/p_reduce/task_familiarization_images/part 1/02_N160_K90_cliqueRight_question2.PNG"," ","","","","","","","",""
"","image-keyboard-response","13","394542","0.0-13.0","","","","","","","","","","","","","","","","","","3151","tutorial/p_reduce/task_familiarization_images/part 1/03_N160_K90_cliqueRight_question3.PNG","arrowright","","","","","","","",""
"","image-keyboard-response","14","395919","0.0-14.0","","","","","","","","","","","","","","","","","","1377","tutorial/p_reduce/task_familiarization_images/part 1/04_N160_K90_cliqueRight_solution.PNG"," ","","","","","","","",""
"","image-keyboard-response","15","402670","0.0-15.0","","","","","","","","","","","","","","","","","","6750","tutorial/p_reduce/task_familiarization_images/part 1/05_N160_K65_cliqueRight_question1.PNG"," ","","","","","","","",""
"","image-keyboard-response","16","405311","0.0-16.0","","","","","","","","","","","","","","","","","","2639","tutorial/p_reduce/task_familiarization_images/part 1/06_N160_K65_cliqueRight_question2.PNG"," ","","","","","","","",""
"","image-keyboard-response","17","408038","0.0-17.0","","","","","","","","","","","","","","","","","","2726","tutorial/p_reduce/task_familiarization_images/part 1/07_N160_K65_cliqueRight_question3.PNG","arrowright","","","","","","","",""
"","image-keyboard-response","18","409103","0.0-18.0","","","","","","","","","","","","","","","","","","1064","tutorial/p_reduce/task_familiarization_images/part 1/08_N160_K65_cliqueRight_solution.PNG"," ","","","","","","","",""
"","image-keyboard-response","19","413724","0.0-19.0","","","","","","","","","","","","","","","","","","4620","tutorial/p_reduce/task_familiarization_images/part 1/09_N160_K50_cliqueLeft_question1.PNG"," ","","","","","","","",""
"","image-keyboard-response","20","415657","0.0-20.0","","","","","","","","","","","","","","","","","","1932","tutorial/p_reduce/task_familiarization_images/part 1/10_N160_K50_cliqueLeft_question2.PNG"," ","","","","","","","",""
"","image-keyboard-response","21","417256","0.0-21.0","","","","","","","","","","","","","","","","","","1598","tutorial/p_reduce/task_familiarization_images/part 1/11_N160_K50_cliqueLeft_question3.PNG","arrowleft","","","","","","","",""
"","image-keyboard-response","22","418485","0.0-22.0","","","","","","","","","","","","","","","","","","1229","tutorial/p_reduce/task_familiarization_images/part 1/12_N160_K50_cliqueLeft_solution.PNG"," ","","","","","","","",""
"","image-keyboard-response","23","419889","0.0-23.0","","","","","","","","","","","","","","","","","","1403","tutorial/p_reduce/task_familiarization_images/part 1/13_N160_K80_cliqueLeft_question1.PNG"," ","","","","","","","",""
"","image-keyboard-response","24","421329","0.0-24.0","","","","","","","","","","","","","","","","","","1440","tutorial/p_reduce/task_familiarization_images/part 1/14_N160_K80_cliqueLeft_question2.PNG"," ","","","","","","","",""
"","image-keyboard-response","25","422092","0.0-25.0","","","","","","","","","","","","","","","","","","762","tutorial/p_reduce/task_familiarization_images/part 1/15_N160_K80_cliqueLeft_question3.PNG","arrowleft","","","","","","","",""
"","image-keyboard-response","26","422610","0.0-26.0","","","","","","","","","","","","","","","","","","517","tutorial/p_reduce/task_familiarization_images/part 1/16_N160_K80_cliqueLeft_solution.PNG"," ","","","","","","","",""
"","image-keyboard-response","27","426589","0.0-27.0","","","","","","","","","","","","","","","","","","3978","tutorial/p_reduce/task_familiarization_images/part 1/17_N160_K40_cliqueRight_question1.PNG"," ","","","","","","","",""
"","image-keyboard-response","28","430415","0.0-28.0","","","","","","","","","","","","","","","","","","3825","tutorial/p_reduce/task_familiarization_images/part 1/18_N160_K40_cliqueRight_question2.PNG"," ","","","","","","","",""
"","image-keyboard-response","29","438186","0.0-29.0","","","","","","","","","","","","","","","","","","7770","tutorial/p_reduce/task_familiarization_images/part 1/19_N160_K40_cliqueRight_question3.PNG","arrowright","","","","","","","",""
"","image-keyboard-response","30","442823","0.0-30.0","","","","","","","","","","","","","","","","","","4636","tutorial/p_reduce/task_familiarization_images/part 1/20_N160_K40_cliqueRight_solution.PNG"," ","","","","","","","",""
"","image-keyboard-response","31","444942","0.0-31.0","","","","","","","","","","","","","","","","","","2119","tutorial/p_reduce/task_familiarization_images/part 1/21_N160_K70_cliqueLeft_question1.PNG"," ","","","","","","","",""
"","image-keyboard-response","32","445491","0.0-32.0","","","","","","","","","","","","","","","","","","548","tutorial/p_reduce/task_familiarization_images/part 1/22_N160_K70_cliqueLeft_question2.PNG"," ","","","","","","","",""
"","image-keyboard-response","33","446355","0.0-33.0","","","","","","","","","","","","","","","","","","862","tutorial/p_reduce/task_familiarization_images/part 1/23_N160_K70_cliqueLeft_question3.PNG","arrowleft","","","","","","","",""
"","image-keyboard-response","34","446964","0.0-34.0","","","","","","","","","","","","","","","","","","608","tutorial/p_reduce/task_familiarization_images/part 1/24_N160_K70_cliqueLeft_solution.PNG"," ","","","","","","","",""
"","preload","35","447484","0.0-35.0","","","","","","","","","","","","true","false","[]","[]","[]","","","","","","","","","","","",""
"","image-keyboard-response","36","456362","0.0-36.0","","","","","","","","","","","","","","","","","","8876","tutorial/p_reduce/task_familiarization_images/part 2/01_N160_K80_cliqueLeft_withFeedback_1.PNG"," ","","","","","","","",""
"","image-keyboard-response","37","462932","0.0-37.0","","","","","","","","","","","","","","","","","","6569","tutorial/p_reduce/task_familiarization_images/part 2/02_N160_K80_cliqueLeft_withFeedback_2.PNG"," ","","","","","","","",""
"","image-keyboard-response","38","463994","0.0-38.0","","","","","","","","","","","","","","","","","","1061","tutorial/p_reduce/task_familiarization_images/part 2/03_N160_K80_cliqueLeft_withFeedback_3.PNG","arrowleft","","","","","","","",""
"","image-keyboard-response","39","469386","0.0-39.0","","","","","","","","","","","","","","","","","","5390","tutorial/p_reduce/task_familiarization_images/part 2/04_N160_K80_cliqueLeft_withFeedback_correct.PNG"," ","","","","","","","",""
"","image-keyboard-response","40","475756","0.0-40.0","","","","","","","","","","","","","","","","","","6369","tutorial/p_reduce/task_familiarization_images/part 2/05_N160_K55_cliqueRight_withFeedback_1.PNG"," ","","","","","","","",""
"","image-keyboard-response","41","481751","0.0-41.0","","","","","","","","","","","","","","","","","","5995","tutorial/p_reduce/task_familiarization_images/part 2/06_N160_K55_cliqueRight_withFeedback_2.PNG"," ","","","","","","","",""
"","image-keyboard-response","42","482750","0.0-42.0","","","","","","","","","","","","","","","","","","997","tutorial/p_reduce/task_familiarization_images/part 2/07_N160_K55_cliqueRight_withFeedback_3.PNG","arrowright","","","","","","","",""
"","image-keyboard-response","43","488521","0.0-43.0","","","","","","","","","","","","","","","","","","5771","tutorial/p_reduce/task_familiarization_images/part 2/08_N160_K55_cliqueRight_withFeedback_correct.PNG"," ","","","","","","","",""
"","image-keyboard-response","44","490487","0.0-44.0","","","","","","","","","","","","","","","","","","1966","tutorial/p_reduce/task_familiarization_images/part 2/09_N160_K70_cliqueLeft_withFeedback_1.PNG"," ","","","","","","","",""
"","image-keyboard-response","45","491575","0.0-45.0","","","","","","","","","","","","","","","","","","1087","tutorial/p_reduce/task_familiarization_images/part 2/10_N160_K70_cliqueLeft_withFeedback_2.PNG"," ","","","","","","","",""
"","image-keyboard-response","46","492217","0.0-46.0","","","","","","","","","","","","","","","","","","641","tutorial/p_reduce/task_familiarization_images/part 2/11_N160_K70_cliqueLeft_withFeedback_3.PNG","arrowleft","","","","","","","",""
"","image-keyboard-response","47","492749","0.0-47.0","","","","","","","","","","","","","","","","","","532","tutorial/p_reduce/task_familiarization_images/part 2/12_N160_K70_cliqueLeft_withFeedback_correct.PNG"," ","","","","","","","",""
"","preload","48","492972","0.0-48.0","","","","","","","","","","","","true","false","[]","[]","[]","","","","","","","","","","","",""
"","instructions","49","507842","0.0-49.0","","","","","","","","","","","","","","","","","[{""page_index"":0,""viewing_time"":14869}]","14869","","","","","","","","","",""
"","fullscreen","50","515169","0.0-51.0","","","","","","","","","","","","true","","","","","","","","","","","","","","","",""
"","canvas-keyboard-response","51","518212","0.0-52.0-0.0-0.0","","","","","","","","","","","","","","","","","","3022",""," ","[70,2,64,127,29,130,169,26,180,164,58,44,188,155,35,101,9,141,131,40,74,199,27,123,138,39,85,53,94,163,151,191,157,86,106,22,13,192,34,194,69,185,135,14,3,41,114,177,89,148,81,165,147,21,91,32,183,181,79,87,196,61,76,179,187,5,100,122,93,60,175,11,54,47,68,108,170,186,190,50,128,48,171,57,12,198,10,153,19,197,102,172,113,137,168,193,55,124,150,18,51,110,42,159,144,97,166,111,6,71,189,136,73,23,103,84,20,67,17,45,121,37,119,162,118,31,43,28,145,99,78,65,52,72,184,8,66,38,80,115,36,96,133,24,92,30,1,161,107,82,33,156,178,95,149,174,63,182,117,158,146,25,160,59,15,154,104,116,62,75,167,125,173,140,152,16,129,49,120,109,56,112,90,176,134,195,77,142,132,0,105,143,139,46,98,83,7,126,4,88]","arrowright","0","0","60","200","[""0022_N0200_K0060_NOCLIQUE"",""0048_N0200_K0060_CLIQUE""]",""
"","audio-keyboard-response","52","519896","0.0-52.0-0.0-1.0","","","","","","","","","","","","","","","","","","null","audio_feedback/shuffles/shuffle01.mp3","null","","","0","0","60","200","[""0022_N0200_K0060_NOCLIQUE"",""0048_N0200_K0060_CLIQUE""]",""
"","canvas-keyboard-response","53","520995","0.0-52.1-0.1-0.1","","","","","","","","","","","","","","","","","","1087","","arrowright","[59,185,98,64,57,125,176,127,92,44,177,36,2,66,162,14,102,196,80,124,166,97,138,198,48,180,11,193,99,6,20,123,134,178,197,0,106,191,83,30,34,8,120,143,50,94,131,69,181,63,72,160,77,82,25,114,13,19,153,91,52,140,150,151,15,109,17,129,47,71,118,37,139,152,117,3,67,56,188,23,35,24,184,182,135,10,74,173,68,75,169,164,5,155,110,187,85,148,96,73,100,126,65,87,39,22,76,86,55,61,142,60,158,31,32,9,49,78,128,149,38,28,122,33,27,183,42,112,45,175,53,58,161,168,186,174,159,156,105,101,89,116,113,41,84,141,70,1,146,136,171,190,7,54,167,12,51,172,130,192,95,179,154,147,144,163,107,111,90,165,93,103,46,157,133,26,21,108,137,199,189,43,194,121,40,81,79,62,145,18,195,29,4,119,132,115,16,170,88,104]","arrowright","0","0","60","200","[""0022_N0200_K0060_NOCLIQUE"",""0048_N0200_K0060_CLIQUE""]","true"
"","audio-keyboard-response","54","521994","0.0-52.1-0.1-1.1","","","","","","","","","","","","","","","","","","null","audio_feedback/right/coin01.mp3","null","","","0","0","60","200","[""0022_N0200_K0060_NOCLIQUE"",""0048_N0200_K0060_CLIQUE""]",""
"","canvas-keyboard-response","55","523508","0.0-53.0-0.0-0.0","","","","","","","","","","","","","","","","","","1505",""," ","[169,172,185,66,0,105,181,50,195,91,18,53,65,125,156,162,81,61,109,64,157,115,151,48,82,85,166,95,12,110,144,158,9,19,86,68,16,186,63,150,194,17,163,114,33,14,160,145,173,96,35,27,46,137,92,23,142,175,21,22,38,74,183,167,199,43,77,165,119,171,58,88,3,36,143,15,120,107,99,113,73,154,176,118,42,7,108,102,140,71,132,57,155,111,89,90,197,174,129,146,187,47,72,190,159,37,180,67,138,121,141,30,83,69,54,193,128,178,191,100,93,127,41,70,56,147,24,32,112,98,106,124,5,198,76,8,51,75,11,192,28,126,29,184,13,80,122,179,148,45,44,131,87,4,26,104,133,170,136,78,196,152,25,49,62,101,161,153,189,94,60,79,164,10,149,123,130,40,59,52,117,103,31,116,39,55,6,20,134,168,188,182,139,34,177,135,97,1,2,84]","arrowleft","0","1","60","200","[""0092_N0200_K0060_CLIQUE"",""0013_N0200_K0060_NOCLIQUE""]",""
"","audio-keyboard-response","56","524574","0.0-53.0-0.0-1.0","","","","","","","","","","","","","","","","","","null","audio_feedback/shuffles/shuffle01.mp3","null","","","0","1","60","200","[""0092_N0200_K0060_CLIQUE"",""0013_N0200_K0060_NOCLIQUE""]",""
"","canvas-keyboard-response","57","527408","0.0-53.1-0.1-0.1","","","","","","","","","","","","","","","","","","2822",""," ","[8,133,60,65,152,160,144,181,130,194,28,111,54,195,52,161,126,48,84,9,32,12,35,41,140,186,92,129,50,163,2,178,30,177,83,96,169,176,179,155,40,134,3,99,39,46,184,17,190,19,170,198,153,97,137,98,4,116,87,31,91,69,136,55,89,80,11,44,29,88,14,166,93,72,115,78,62,112,18,120,114,24,42,73,13,127,70,38,146,165,49,82,193,172,103,6,23,180,168,7,86,64,124,10,148,159,189,85,150,26,156,118,71,158,143,182,36,123,33,135,100,66,162,107,122,157,76,185,34,147,151,56,197,45,25,131,174,0,102,57,58,149,125,1,109,21,106,15,142,47,43,79,113,75,119,63,104,199,77,16,27,167,67,121,196,51,37,145,53,90,183,94,5,68,192,22,61,59,154,173,95,164,187,74,81,110,20,105,108,101,117,132,139,141,188,191,171,138,175,128]","arrowleft","0","1","60","200","[""0092_N0200_K0060_CLIQUE"",""0013_N0200_K0060_NOCLIQUE""]",""
"","audio-keyboard-response","58","528474","0.0-53.1-0.1-1.1","","","","","","","","","","","","","","","","","","null","audio_feedback/shuffles/shuffle01.mp3","null","","","0","1","60","200","[""0092_N0200_K0060_CLIQUE"",""0013_N0200_K0060_NOCLIQUE""]",""
"","canvas-keyboard-response","59","529506","0.0-53.2-0.2-0.2","","","","","","","","","","","","","","","","","","1021","","arrowleft","[193,172,96,79,65,153,7,111,89,113,58,186,174,166,50,175,2,15,46,57,14,135,121,154,112,184,69,47,66,17,54,101,114,132,138,88,68,3,8,194,41,45,36,92,76,160,35,5,196,169,0,6,168,183,38,165,195,197,63,171,93,134,52,188,86,72,78,108,107,129,53,182,176,157,156,87,151,140,97,99,173,55,32,31,74,64,16,117,28,152,133,122,85,77,105,146,126,185,187,20,29,145,26,164,148,149,10,24,91,43,48,158,22,163,141,106,125,30,179,4,128,127,143,25,100,162,94,39,9,81,124,191,150,102,139,136,180,13,103,104,27,11,83,12,73,159,49,98,131,60,199,59,161,167,61,84,80,120,192,62,110,75,155,19,116,21,142,56,71,147,170,70,95,115,44,23,190,1,37,118,137,90,18,42,82,189,178,144,51,34,119,181,198,123,177,40,67,33,130,109]","arrowleft","0","1","60","200","[""0092_N0200_K0060_CLIQUE"",""0013_N0200_K0060_NOCLIQUE""]","true"
"","audio-keyboard-response","60","530496","0.0-53.2-0.2-1.2","","","","","","","","","","","","","","","","","","null","audio_feedback/right/coin01.mp3","null","","","0","1","60","200","[""0092_N0200_K0060_CLIQUE"",""0013_N0200_K0060_NOCLIQUE""]",""
"","canvas-keyboard-response","61","532704","0.0-54.0-0.0-0.0","","","","","","","","","","","","","","","","","","2196",""," ","[75,186,64,92,174,21,102,150,130,77,58,51,107,114,68,128,115,40,55,62,188,167,171,25,73,118,196,100,76,4,29,132,143,173,24,97,61,78,157,63,120,170,169,96,138,198,156,22,145,152,185,71,66,140,1,52,83,117,67,8,146,142,98,109,46,60,3,172,136,179,26,54,177,197,91,181,158,32,93,123,37,129,106,47,159,44,182,134,183,42,111,141,53,104,23,101,112,103,105,163,69,65,178,151,90,35,45,108,113,154,49,166,59,164,31,162,127,33,94,84,187,18,139,85,48,124,15,88,144,194,192,195,189,133,160,153,28,89,57,116,39,126,168,27,2,50,176,41,6,34,80,12,5,161,175,38,11,148,155,193,9,0,110,95,14,165,81,82,79,19,87,180,20,119,125,184,7,135,190,86,99,149,17,13,191,16,121,74,56,70,43,30,199,147,122,36,72,137,10,131]","arrowright","0","2","53","200","[""0023_N0200_K0053_NOCLIQUE"",""0001_N0200_K0053_CLIQUE""]",""
"","audio-keyboard-response","62","533774","0.0-54.0-0.0-1.0","","","","","","","","","","","","","","","","","","null","audio_feedback/shuffles/shuffle01.mp3","null","","","0","2","53","200","[""0023_N0200_K0053_NOCLIQUE"",""0001_N0200_K0053_CLIQUE""]",""
"","canvas-keyboard-response","63","534501","0.0-54.1-0.1-0.1","","","","","","","","","","","","","","","","","","716",""," ","[169,79,67,186,124,168,73,61,82,74,105,89,115,98,49,196,70,20,96,4,100,150,106,86,161,33,76,69,107,197,30,57,164,83,160,175,43,46,158,154,122,181,142,28,27,130,38,25,149,22,7,183,99,16,102,93,10,85,103,68,104,132,147,177,163,153,18,84,117,128,145,199,19,114,192,37,97,138,81,121,31,188,129,13,170,72,140,2,159,162,137,34,174,26,94,118,54,126,53,50,15,127,32,75,143,45,185,9,144,189,29,190,166,157,111,109,180,152,3,193,179,182,8,119,21,56,12,41,80,156,62,39,17,95,151,64,71,194,116,141,48,51,167,92,171,91,58,131,198,187,101,136,184,6,52,88,14,134,155,5,173,23,133,87,35,63,176,108,60,77,172,44,191,66,42,135,113,178,78,146,139,0,1,90,148,55,47,195,120,11,24,110,40,112,123,125,36,165,59,65]","arrowright","0","2","53","200","[""0023_N0200_K0053_NOCLIQUE"",""0001_N0200_K0053_CLIQUE""]",""
"","audio-keyboard-response","64","535574","0.0-54.1-0.1-1.1","","","","","","","","","","","","","","","","","","null","audio_feedback/shuffles/shuffle01.mp3","null","","","0","2","53","200","[""0023_N0200_K0053_NOCLIQUE"",""0001_N0200_K0053_CLIQUE""]",""
"","canvas-keyboard-response","65","536214","0.0-54.2-0.2-0.2","","","","","","","","","","","","","","","","","","631","","arrowright","[182,34,178,181,113,197,102,151,187,40,25,167,119,56,175,6,1,5,111,77,59,51,48,60,62,116,87,42,71,27,105,20,126,35,168,91,120,44,159,84,67,88,11,118,97,189,92,139,122,14,145,128,136,4,9,43,148,23,195,184,73,138,199,75,68,24,28,55,190,143,127,15,137,144,82,177,104,74,196,63,10,22,100,156,93,30,90,176,52,80,18,131,32,110,133,50,188,183,166,26,129,69,164,186,123,135,114,99,98,16,76,150,19,65,192,33,86,7,81,64,147,57,130,78,112,12,106,154,194,149,134,141,160,53,54,2,96,79,109,72,101,37,29,125,174,108,170,165,41,94,121,115,140,45,0,49,89,36,124,153,142,173,158,117,163,172,180,179,58,8,155,152,31,171,107,169,17,193,161,162,47,21,157,95,46,66,61,85,39,3,198,132,83,38,191,146,70,103,185,13]","arrowright","0","2","53","200","[""0023_N0200_K0053_NOCLIQUE"",""0001_N0200_K0053_CLIQUE""]","true"
"","audio-keyboard-response","66","537214","0.0-54.2-0.2-1.2","","","","","","","","","","","","","","","","","","null","audio_feedback/right/coin01.mp3","null","","","0","2","53","200","[""0023_N0200_K0053_NOCLIQUE"",""0001_N0200_K0053_CLIQUE""]",""
"","canvas-keyboard-response","67","537963","0.0-55.0-0.0-0.0","","","","","","","","","","","","","","","","","","739",""," ","[62,157,71,136,45,197,182,140,1,192,5,41,135,141,27,31,116,51,160,49,92,42,17,119,87,24,133,169,187,131,90,145,8,85,168,185,95,174,180,165,10,36,128,129,120,15,198,64,12,195,114,69,33,99,199,4,50,97,79,83,78,104,109,152,164,106,76,188,100,67,66,123,142,34,96,196,23,108,139,126,156,0,190,68,91,37,149,147,32,63,161,30,173,105,124,146,98,60,47,132,144,84,61,143,151,53,113,183,155,13,25,22,175,80,38,74,191,101,43,103,170,7,176,102,21,29,26,166,55,6,44,20,163,16,9,167,58,154,2,110,125,134,93,179,130,153,11,189,75,72,54,117,89,122,118,148,48,184,82,88,35,181,159,194,86,14,186,107,57,73,177,137,40,3,52,46,39,77,138,158,65,59,112,115,111,121,150,94,172,127,18,162,70,81,171,56,19,28,193,178]","arrowleft","0","3","53","200","[""0002_N0200_K0053_CLIQUE"",""0076_N0200_K0053_NOCLIQUE""]",""
"","audio-keyboard-response","68","539034","0.0-55.0-0.0-1.0","","","","","","","","","","","","","","","","","","null","audio_feedback/shuffles/shuffle01.mp3","null","","","0","3","53","200","[""0002_N0200_K0053_CLIQUE"",""0076_N0200_K0053_NOCLIQUE""]",""
"","canvas-keyboard-response","69","539701","0.0-55.1-0.1-0.1","","","","","","","","","","","","","","","","","","658","","arrowleft","[107,165,57,28,21,145,55,181,65,151,133,67,63,43,25,26,131,125,169,142,115,0,18,85,77,108,58,95,110,100,61,106,89,20,74,173,161,143,11,184,94,193,190,124,127,188,69,126,153,92,3,178,154,128,185,56,195,183,135,75,10,186,84,182,17,48,52,171,49,4,93,180,149,62,54,111,141,81,50,96,13,166,79,146,1,29,91,72,159,6,40,80,66,138,86,23,53,144,73,8,37,101,14,113,119,102,148,19,191,7,82,199,147,60,68,152,172,194,22,117,31,87,192,34,41,162,163,104,45,16,46,120,123,35,70,122,139,175,136,88,44,103,24,155,157,137,78,76,140,59,167,156,33,5,112,177,42,109,116,130,105,196,118,71,9,30,132,36,83,187,150,39,189,27,2,47,168,98,51,38,12,134,99,179,15,198,64,197,97,158,32,176,121,170,114,129,164,90,160,174]","arrowleft","0","3","53","200","[""0002_N0200_K0053_CLIQUE"",""0076_N0200_K0053_NOCLIQUE""]","true"
"","audio-keyboard-response","70","540695","0.0-55.1-0.1-1.1","","","","","","","","","","","","","","","","","","null","audio_feedback/right/coin01.mp3","null","","","0","3","53","200","[""0002_N0200_K0053_CLIQUE"",""0076_N0200_K0053_NOCLIQUE""]",""
"","canvas-keyboard-response","71","541520","0.0-56.0-0.0-0.0","","","","","","","","","","","","","","","","","","815",""," ","[55,35,51,195,114,29,123,168,67,126,112,192,89,50,16,82,46,28,190,135,39,111,47,48,142,187,27,106,196,13,173,17,90,24,124,54,181,95,150,137,103,6,152,166,34,30,107,174,113,100,77,25,108,128,3,172,72,145,186,178,193,79,20,62,15,99,7,182,14,136,159,109,102,33,86,18,80,98,75,37,144,11,8,176,119,155,151,57,36,194,133,87,164,101,183,177,171,140,61,92,158,63,157,53,165,70,130,161,5,148,139,74,184,154,147,125,189,68,170,199,49,118,115,41,197,84,19,76,38,185,71,43,163,45,146,104,149,160,156,129,117,10,69,120,132,44,85,83,191,167,0,91,179,22,88,81,96,66,141,131,64,162,198,21,4,52,169,60,59,56,65,127,12,1,78,175,94,31,143,121,180,138,110,40,134,116,97,26,73,42,153,23,188,122,32,58,2,93,105,9]","arrowleft","0","4","47","200","[""0072_N0200_K0047_CLIQUE"",""0049_N0200_K0047_NOCLIQUE""]",""
"","audio-keyboard-response","72","542594","0.0-56.0-0.0-1.0","","","","","","","","","","","","","","","","","","null","audio_feedback/shuffles/shuffle01.mp3","null","","","0","4","47","200","[""0072_N0200_K0047_CLIQUE"",""0049_N0200_K0047_NOCLIQUE""]",""
"","canvas-keyboard-response","73","543410","0.0-56.1-0.1-0.1","","","","","","","","","","","","","","","","","","807",""," ","[12,164,153,110,107,58,45,37,184,169,98,25,22,192,194,133,51,38,20,172,195,109,28,61,175,179,66,32,114,191,148,2,186,42,193,60,189,10,39,87,188,128,187,197,52,115,86,17,106,68,50,93,173,143,83,199,163,165,4,88,111,113,54,174,119,21,131,0,146,6,43,198,181,105,122,81,132,121,127,95,168,139,171,94,190,102,123,49,91,120,29,78,41,183,100,69,47,150,167,159,180,24,147,185,76,182,178,72,104,101,85,75,176,158,89,5,70,11,64,141,166,36,34,19,40,53,130,99,155,140,67,151,152,31,142,97,177,14,71,157,80,35,118,30,15,136,82,96,90,16,156,62,137,79,26,144,84,57,63,18,73,56,44,134,92,154,27,108,135,23,3,145,1,77,149,160,74,9,117,48,124,126,170,161,103,129,8,65,59,196,116,112,13,33,138,162,46,125,55,7]","arrowleft","0","4","47","200","[""0072_N0200_K0047_CLIQUE"",""0049_N0200_K0047_NOCLIQUE""]",""
"","audio-keyboard-response","74","544474","0.0-56.1-0.1-1.1","","","","","","","","","","","","","","","","","","null","audio_feedback/shuffles/shuffle01.mp3","null","","","0","4","47","200","[""0072_N0200_K0047_CLIQUE"",""0049_N0200_K0047_NOCLIQUE""]",""
"","canvas-keyboard-response","75","545712","0.0-56.2-0.2-0.2","","","","","","","","","","","","","","","","","","1227",""," ","[158,173,135,126,125,130,8,156,0,176,107,80,140,53,13,193,171,5,98,139,70,51,19,20,108,11,73,29,91,144,161,48,47,172,178,116,105,65,23,175,3,22,184,55,119,124,1,138,81,100,46,165,12,38,166,145,4,187,84,16,58,136,75,30,31,76,6,182,149,168,52,103,83,90,112,115,60,134,157,131,71,72,113,109,94,194,142,21,42,143,152,120,10,78,18,118,79,122,114,106,74,43,199,195,129,88,54,164,191,188,17,85,159,190,34,92,27,177,61,57,41,67,39,167,33,179,62,162,132,66,15,96,35,93,50,192,63,99,185,151,44,40,160,198,170,14,169,123,86,189,24,155,97,197,196,87,95,104,146,2,153,56,137,141,128,111,154,181,148,174,117,26,89,25,32,7,183,82,9,180,28,101,102,37,68,59,121,45,36,150,186,49,147,64,127,77,69,110,133,163]","arrowleft","0","4","47","200","[""0072_N0200_K0047_CLIQUE"",""0049_N0200_K0047_NOCLIQUE""]",""
"","audio-keyboard-response","76","546794","0.0-56.2-0.2-1.2","","","","","","","","","","","","","","","","","","null","audio_feedback/shuffles/shuffle01.mp3","null","","","0","4","47","200","[""0072_N0200_K0047_CLIQUE"",""0049_N0200_K0047_NOCLIQUE""]",""
"","canvas-keyboard-response","77","548001","0.0-56.3-0.3-0.3","","","","","","","","","","","","","","","","","","1199",""," ","[91,170,29,123,5,37,46,28,104,64,2,133,146,27,38,162,183,152,193,184,171,49,15,48,111,132,130,22,61,178,103,85,14,55,75,167,187,11,124,86,92,24,72,173,17,74,21,81,43,156,41,99,0,23,143,66,97,148,100,180,142,116,179,79,125,113,1,87,109,18,30,151,163,127,20,107,137,19,40,188,9,52,169,71,105,153,78,168,192,83,6,195,121,89,31,177,117,108,34,68,118,189,82,63,93,35,8,56,110,59,150,185,145,101,166,112,57,174,129,191,144,73,53,196,36,98,12,32,26,4,165,77,3,140,186,159,80,154,69,157,58,16,164,175,114,13,47,155,172,70,131,50,7,135,181,158,39,115,10,62,25,141,60,120,122,106,194,161,96,136,94,51,190,54,139,149,65,147,33,45,44,95,90,42,119,199,102,84,176,67,134,138,88,160,126,76,182,198,128,197]","arrowleft","0","4","47","200","[""0072_N0200_K0047_CLIQUE"",""0049_N0200_K0047_NOCLIQUE""]",""
"","audio-keyboard-response","78","549074","0.0-56.3-0.3-1.3","","","","","","","","","","","","","","","","","","null","audio_feedback/shuffles/shuffle01.mp3","null","","","0","4","47","200","[""0072_N0200_K0047_CLIQUE"",""0049_N0200_K0047_NOCLIQUE""]",""
"","canvas-keyboard-response","79","549765","0.0-56.4-0.4-0.4","","","","","","","","","","","","","","","","","","678","","arrowright","[138,39,83,107,55,169,33,165,112,7,115,28,105,97,46,37,131,104,62,68,34,95,130,145,143,25,166,178,184,8,154,127,16,171,167,146,122,87,117,20,80,90,47,1,124,59,14,44,40,35,109,50,32,72,120,98,163,67,196,137,30,198,94,199,99,148,134,61,64,132,173,181,77,135,12,114,175,192,26,128,24,78,106,17,160,108,63,185,142,38,182,180,0,56,136,41,79,186,121,191,189,93,43,119,164,103,188,57,54,193,91,10,190,168,197,4,11,170,102,58,66,158,60,51,195,156,118,86,125,13,179,187,116,144,152,65,113,42,31,159,89,96,149,162,81,140,141,84,75,48,111,5,126,157,172,161,18,155,70,2,29,123,23,110,101,52,74,139,129,15,6,36,82,27,3,150,73,71,19,22,88,177,174,183,100,76,69,21,176,45,151,194,92,153,9,85,49,133,53,147]","arrowleft","0","4","47","200","[""0072_N0200_K0047_CLIQUE"",""0049_N0200_K0047_NOCLIQUE""]","false"
"","audio-keyboard-response","80","550775","0.0-56.4-0.4-1.4","","","","","","","","","","","","","","","","","","null","audio_feedback/wrong/error01.mp3","null","","","0","4","47","200","[""0072_N0200_K0047_CLIQUE"",""0049_N0200_K0047_NOCLIQUE""]",""
"","canvas-keyboard-response","81","553476","0.0-57.0-0.0-0.0","","","","","","","","","","","","","","","","","","2688",""," ","[172,33,143,124,93,48,139,28,56,95,91,164,141,103,157,35,45,161,72,110,96,101,162,166,82,59,116,71,184,152,90,146,129,44,78,68,61,9,86,84,50,191,79,66,19,128,58,122,177,40,8,149,147,36,199,62,26,43,153,1,192,197,190,167,80,150,109,92,14,37,130,121,126,57,183,60,25,5,165,196,163,87,170,195,111,41,123,47,52,127,77,175,156,133,108,83,6,21,70,46,140,187,55,117,171,104,12,145,194,76,181,112,125,65,102,13,105,186,94,155,74,69,67,27,73,159,97,182,137,0,107,34,63,151,49,135,131,88,64,39,18,100,119,106,154,193,168,173,132,7,113,138,42,20,11,85,54,31,185,24,136,118,89,99,158,10,30,160,188,189,178,51,16,98,4,169,115,17,198,15,144,142,75,81,22,2,179,120,32,53,3,180,148,176,38,29,114,23,174,134]","arrowleft","0","5","47","200","[""0026_N0200_K0047_CLIQUE"",""0011_N0200_K0047_NOCLIQUE""]",""
"","audio-keyboard-response","82","554554","0.0-57.0-0.0-1.0","","","","","","","","","","","","","","","","","","null","audio_feedback/shuffles/shuffle01.mp3","null","","","0","5","47","200","[""0026_N0200_K0047_CLIQUE"",""0011_N0200_K0047_NOCLIQUE""]",""
"","canvas-keyboard-response","83","559238","0.0-57.1-0.1-0.1","","","","","","","","","","","","","","","","","","4671",""," ","[104,7,161,41,140,159,176,12,111,14,184,73,98,82,122,188,135,174,178,9,179,137,100,96,87,145,169,75,79,163,38,47,173,53,40,193,162,37,55,19,197,66,113,114,31,59,155,74,105,45,106,158,61,147,35,133,95,57,157,16,194,28,6,2,141,67,65,165,177,116,71,22,164,49,138,50,189,83,125,20,52,94,186,182,196,97,33,148,70,27,144,129,192,167,121,127,142,80,86,92,78,39,152,180,156,110,187,68,166,120,160,90,139,72,88,58,195,185,34,26,5,175,10,4,69,183,102,130,123,107,143,17,91,151,128,89,154,198,146,191,32,44,115,48,85,77,3,101,99,76,56,108,168,23,29,118,153,150,42,81,0,103,30,64,170,199,46,126,124,60,149,63,8,112,117,172,131,93,84,54,25,190,136,132,13,62,21,15,18,181,119,36,109,51,134,43,24,171,11,1]","arrowleft","0","5","47","200","[""0026_N0200_K0047_CLIQUE"",""0011_N0200_K0047_NOCLIQUE""]",""
"","audio-keyboard-response","84","560315","0.0-57.1-0.1-1.1","","","","","","","","","","","","","","","","","","null","audio_feedback/shuffles/shuffle01.mp3","null","","","0","5","47","200","[""0026_N0200_K0047_CLIQUE"",""0011_N0200_K0047_NOCLIQUE""]",""
"","canvas-keyboard-response","85","563276","0.0-57.2-0.2-0.2","","","","","","","","","","","","","","","","","","2950",""," ","[78,40,142,188,36,105,94,38,12,180,3,156,92,86,84,114,112,149,44,110,58,72,81,100,130,37,70,49,115,137,17,178,174,2,147,144,74,145,83,111,128,198,120,135,184,173,79,140,63,91,162,179,61,8,169,6,150,106,5,33,76,176,19,32,75,31,46,56,66,129,22,52,25,157,77,185,121,45,104,186,16,54,192,1,97,39,131,103,95,189,117,82,28,71,183,20,24,11,67,197,166,7,93,98,146,43,57,194,165,108,42,139,124,133,158,134,154,127,161,191,141,164,102,53,60,107,193,85,195,181,199,0,175,159,113,160,29,15,87,148,51,190,187,4,9,177,163,62,152,125,65,96,196,55,47,18,136,88,132,23,30,170,168,27,69,151,13,14,172,48,50,35,123,99,182,143,64,89,34,122,118,26,41,167,126,116,68,109,171,101,73,90,80,59,10,138,155,21,119,153]","arrowleft","0","5","47","200","[""0026_N0200_K0047_CLIQUE"",""0011_N0200_K0047_NOCLIQUE""]",""
"","audio-keyboard-response","86","564357","0.0-57.2-0.2-1.2","","","","","","","","","","","","","","","","","","null","audio_feedback/shuffles/shuffle01.mp3","null","","","0","5","47","200","[""0026_N0200_K0047_CLIQUE"",""0011_N0200_K0047_NOCLIQUE""]",""
"","canvas-keyboard-response","87","565159","0.0-57.3-0.3-0.3","","","","","","","","","","","","","","","","","","789","","arrowleft","[61,155,177,63,101,24,154,176,23,112,6,81,187,82,69,77,124,123,181,18,20,141,48,161,129,14,120,103,178,102,128,164,188,26,70,34,65,149,196,133,51,163,16,146,131,57,145,40,134,105,148,179,183,121,91,49,97,79,147,151,122,7,137,94,165,52,36,29,153,64,111,130,85,76,11,55,169,189,15,96,84,110,167,33,13,3,19,46,56,66,1,90,159,106,35,71,180,27,186,38,126,53,42,93,166,72,195,156,138,107,171,75,108,4,168,142,21,99,194,174,162,182,197,191,100,132,114,50,78,31,157,30,173,113,170,9,95,5,136,12,143,28,150,116,193,192,140,44,41,60,74,88,198,199,115,43,45,139,59,172,62,185,80,17,2,10,8,58,184,125,160,73,119,118,83,32,135,117,22,104,37,0,68,109,175,144,47,67,39,87,127,89,98,92,54,158,25,86,152,190]","arrowleft","0","5","47","200","[""0026_N0200_K0047_CLIQUE"",""0011_N0200_K0047_NOCLIQUE""]","true"
"","audio-keyboard-response","88","566154","0.0-57.3-0.3-1.3","","","","","","","","","","","","","","","","","","null","audio_feedback/right/coin01.mp3","null","","","0","5","47","200","[""0026_N0200_K0047_CLIQUE"",""0011_N0200_K0047_NOCLIQUE""]",""
"","canvas-keyboard-response","89","566788","0.0-58.0-0.0-0.0","","","","","","","","","","","","","","","","","","621",""," ","[181,162,47,154,123,14,136,176,170,102,115,26,82,118,42,25,88,17,28,71,153,139,100,178,63,10,39,184,109,59,84,112,22,35,187,197,171,97,69,130,141,90,53,86,192,129,8,16,183,147,169,78,155,9,190,186,31,116,57,104,122,40,195,172,191,73,52,49,55,95,34,85,159,30,74,194,80,106,121,173,127,119,193,199,174,196,83,54,138,6,164,117,2,81,67,77,91,43,126,180,29,142,179,163,96,135,177,114,45,37,7,11,18,133,24,89,148,38,137,1,185,146,161,124,75,103,48,175,152,165,143,151,5,158,56,72,125,0,144,182,64,157,4,98,21,13,108,3,111,131,32,134,27,12,51,145,65,189,92,166,19,41,101,44,62,168,156,79,87,60,33,70,150,110,50,61,113,140,128,94,36,66,46,132,105,198,167,93,76,15,160,99,20,120,58,149,107,68,188,23]","arrowleft","0","6","43","200","[""0065_N0200_K0043_CLIQUE"",""0004_N0200_K0043_NOCLIQUE""]",""
"","audio-keyboard-response","90","567855","0.0-58.0-0.0-1.0","","","","","","","","","","","","","","","","","","null","audio_feedback/shuffles/shuffle01.mp3","null","","","0","6","43","200","[""0065_N0200_K0043_CLIQUE"",""0004_N0200_K0043_NOCLIQUE""]",""
"","canvas-keyboard-response","91","568504","0.0-58.1-0.1-0.1","","","","","","","","","","","","","","","","","","639",""," ","[60,35,188,92,91,26,194,16,100,114,15,179,185,54,162,116,102,195,106,65,72,123,144,108,129,46,22,182,77,128,193,94,136,132,150,45,177,147,23,189,96,28,34,4,197,95,61,64,158,7,41,130,157,192,154,25,50,3,165,153,51,151,191,138,137,152,115,155,173,143,176,117,156,87,57,126,59,146,107,90,44,74,55,63,30,164,142,93,196,70,180,38,187,10,78,104,79,21,67,183,159,109,17,160,140,170,75,174,1,181,56,105,19,2,62,171,66,85,149,112,127,99,43,83,42,175,31,111,98,0,124,198,52,18,125,199,20,80,58,166,139,120,101,110,186,24,122,36,134,12,8,68,131,13,163,190,5,133,82,172,14,39,76,6,53,97,88,168,119,118,86,161,11,103,37,47,121,27,71,135,49,33,167,48,148,169,113,73,9,32,89,84,40,145,69,81,178,184,29,141]","arrowleft","0","6","43","200","[""0065_N0200_K0043_CLIQUE"",""0004_N0200_K0043_NOCLIQUE""]",""
"","audio-keyboard-response","92","569575","0.0-58.1-0.1-1.1","","","","","","","","","","","","","","","","","","null","audio_feedback/shuffles/shuffle01.mp3","null","","","0","6","43","200","[""0065_N0200_K0043_CLIQUE"",""0004_N0200_K0043_NOCLIQUE""]",""
"","canvas-keyboard-response","93","570140","0.0-58.2-0.2-0.2","","","","","","","","","","","","","","","","","","557",""," ","[168,93,66,110,117,114,132,154,91,24,193,95,70,137,182,129,59,99,16,104,33,42,189,174,14,81,187,130,183,180,78,63,118,58,149,190,10,166,125,172,113,31,73,141,161,4,119,13,83,27,147,96,43,85,39,186,74,29,60,102,65,79,94,157,106,116,64,126,72,148,17,105,181,22,191,127,90,71,77,185,135,86,89,142,1,61,184,48,92,50,87,45,30,108,112,32,122,67,199,37,170,12,121,28,162,69,55,115,146,75,107,131,9,80,179,88,128,19,3,153,177,46,97,7,100,20,5,34,6,194,164,11,192,8,123,188,134,155,51,35,26,124,111,171,158,62,197,167,101,133,84,152,159,160,44,25,98,175,40,109,36,145,151,144,68,18,0,41,82,195,136,169,198,143,103,176,38,47,2,15,54,173,120,21,49,140,165,57,56,139,138,76,150,53,163,52,23,156,178,196]","arrowleft","0","6","43","200","[""0065_N0200_K0043_CLIQUE"",""0004_N0200_K0043_NOCLIQUE""]",""
"","audio-keyboard-response","94","571215","0.0-58.2-0.2-1.2","","","","","","","","","","","","","","","","","","null","audio_feedback/shuffles/shuffle01.mp3","null","","","0","6","43","200","[""0065_N0200_K0043_CLIQUE"",""0004_N0200_K0043_NOCLIQUE""]",""
"","canvas-keyboard-response","95","572365","0.0-58.3-0.3-0.3","","","","","","","","","","","","","","","","","","1140",""," ","[86,179,196,117,127,176,155,96,174,187,64,67,177,56,90,75,3,157,120,172,168,70,166,0,81,175,133,14,129,44,105,89,77,62,110,123,150,12,31,128,161,139,11,103,84,83,101,148,183,24,113,136,165,2,115,55,95,17,54,134,34,173,15,57,68,152,76,162,137,87,8,153,43,82,60,199,30,181,121,92,16,195,29,106,116,143,50,131,140,33,107,27,124,132,63,197,184,4,158,198,163,71,21,178,169,164,20,138,58,47,190,78,38,167,19,159,146,10,73,114,142,65,100,72,154,97,144,170,1,171,145,141,25,151,98,182,39,149,37,194,99,118,40,156,125,130,42,6,45,7,59,32,53,36,88,160,23,61,46,180,93,48,109,85,28,94,26,35,41,104,9,79,185,188,135,22,66,192,186,80,91,119,102,122,189,126,108,74,191,51,111,193,5,52,18,49,69,147,13,112]","arrowleft","0","6","43","200","[""0065_N0200_K0043_CLIQUE"",""0004_N0200_K0043_NOCLIQUE""]",""
"","audio-keyboard-response","96","573434","0.0-58.3-0.3-1.3","","","","","","","","","","","","","","","","","","null","audio_feedback/shuffles/shuffle01.mp3","null","","","0","6","43","200","[""0065_N0200_K0043_CLIQUE"",""0004_N0200_K0043_NOCLIQUE""]",""
"","canvas-keyboard-response","97","575810","0.0-58.4-0.4-0.4","","","","","","","","","","","","","","","","","","2366",""," ","[64,37,198,108,103,193,119,1,160,5,120,69,92,117,153,136,89,14,86,73,141,171,165,144,187,45,156,52,31,132,138,30,43,95,99,116,186,85,26,124,93,94,194,181,42,84,25,147,24,55,159,15,40,100,131,35,166,0,152,185,169,161,70,150,125,184,32,58,88,121,20,164,68,39,2,62,109,163,18,102,34,192,29,78,127,53,134,176,66,3,28,71,115,23,143,91,167,199,129,140,179,46,107,189,13,49,174,128,22,111,4,44,74,180,130,155,54,19,33,38,8,82,126,158,175,51,157,142,56,61,77,145,177,182,146,104,173,197,162,59,80,98,148,79,113,96,114,149,21,63,118,190,76,168,87,36,151,105,50,122,6,97,16,133,191,12,17,101,48,83,172,27,47,72,106,11,137,183,195,81,7,90,60,10,154,123,139,9,65,188,41,57,178,75,196,112,67,170,135,110]","arrowleft","0","6","43","200","[""0065_N0200_K0043_CLIQUE"",""0004_N0200_K0043_NOCLIQUE""]",""
"","audio-keyboard-response","98","576874","0.0-58.4-0.4-1.4","","","","","","","","","","","","","","","","","","null","audio_feedback/shuffles/shuffle01.mp3","null","","","0","6","43","200","[""0065_N0200_K0043_CLIQUE"",""0004_N0200_K0043_NOCLIQUE""]",""
"","canvas-keyboard-response","99","579032","0.0-58.5-0.5-0.5","","","","","","","","","","","","","","","","","","2145",""," ","[8,109,1,72,142,164,105,7,97,24,66,76,157,56,132,151,170,127,77,93,146,88,69,63,107,54,79,2,94,59,43,35,13,111,148,98,25,153,186,166,167,37,123,85,130,102,14,173,49,18,27,129,34,184,160,9,147,185,90,52,71,5,33,61,145,3,26,172,181,131,15,53,197,141,143,29,136,149,138,75,178,21,156,179,57,11,31,81,198,23,195,113,159,162,36,4,67,150,161,140,116,92,50,44,134,99,10,168,163,95,22,176,192,100,78,83,115,89,187,175,55,101,126,80,125,177,91,17,117,121,104,46,119,38,51,74,47,188,19,174,30,155,62,96,103,108,171,82,180,190,58,158,48,84,60,194,70,144,120,154,20,41,6,106,28,73,118,87,189,114,182,191,42,64,137,45,199,40,196,133,135,32,128,12,124,169,39,122,86,16,110,193,183,112,139,152,65,0,68,165]","arrowleft","0","6","43","200","[""0065_N0200_K0043_CLIQUE"",""0004_N0200_K0043_NOCLIQUE""]",""
"","audio-keyboard-response","100","580114","0.0-58.5-0.5-1.5","","","","","","","","","","","","","","","","","","null","audio_feedback/shuffles/shuffle01.mp3","null","","","0","6","43","200","[""0065_N0200_K0043_CLIQUE"",""0004_N0200_K0043_NOCLIQUE""]",""
"","canvas-keyboard-response","101","581137","0.0-58.6-0.6-0.6","","","","","","","","","","","","","","","","","","1014",""," ","[196,110,92,71,12,54,158,77,112,152,187,126,145,132,85,107,183,15,41,42,86,76,190,179,131,31,133,128,199,3,21,98,66,195,174,182,142,96,90,140,60,5,49,157,171,123,127,69,166,32,105,137,18,118,197,191,129,79,177,40,47,97,155,100,117,28,44,83,80,65,160,53,143,6,57,111,114,94,14,119,25,162,99,148,2,120,58,4,146,46,188,88,139,10,75,198,91,194,167,17,82,70,103,165,164,141,0,104,173,13,89,93,122,22,11,136,121,37,23,87,36,150,192,51,185,68,102,26,115,193,149,59,74,34,156,48,55,84,113,172,186,147,50,161,1,189,63,67,81,159,184,170,178,62,7,181,39,95,106,38,29,180,135,78,108,24,169,101,130,125,20,151,154,176,109,43,153,72,9,52,116,30,61,124,8,27,168,144,35,73,45,163,56,175,64,138,16,19,134,33]","arrowleft","0","6","43","200","[""0065_N0200_K0043_CLIQUE"",""0004_N0200_K0043_NOCLIQUE""]",""
"","audio-keyboard-response","102","582215","0.0-58.6-0.6-1.6","","","","","","","","","","","","","","","","","","null","audio_feedback/shuffles/shuffle01.mp3","null","","","0","6","43","200","[""0065_N0200_K0043_CLIQUE"",""0004_N0200_K0043_NOCLIQUE""]",""
"","canvas-keyboard-response","103","583249","0.0-58.7-0.7-0.7","","","","","","","","","","","","","","","","","","1024","","arrowleft","[149,71,21,30,172,193,123,43,66,51,12,184,190,144,7,95,50,89,182,65,167,94,33,26,88,32,134,166,61,129,44,69,148,178,137,191,183,100,154,150,17,85,143,168,29,97,180,175,132,171,105,102,22,151,75,99,197,15,31,127,98,78,194,72,0,55,35,79,199,24,118,20,133,60,54,74,38,159,86,153,142,170,46,145,119,92,157,135,1,173,101,117,80,62,70,93,84,104,13,91,196,87,160,81,23,130,28,25,57,187,126,83,9,106,10,6,155,96,36,19,177,49,27,37,58,77,68,52,161,45,16,156,41,120,165,40,47,122,124,115,114,158,73,128,146,56,34,181,139,18,90,198,63,3,192,111,109,116,138,108,131,14,110,140,11,64,103,169,125,53,152,179,67,141,147,164,186,189,176,195,76,107,39,8,82,188,48,112,59,4,121,2,42,136,163,162,185,174,5,113]","arrowleft","0","6","43","200","[""0065_N0200_K0043_CLIQUE"",""0004_N0200_K0043_NOCLIQUE""]","true"
"","audio-keyboard-response","104","584256","0.0-58.7-0.7-1.7","","","","","","","","","","","","","","","","","","null","audio_feedback/right/coin01.mp3","null","","","0","6","43","200","[""0065_N0200_K0043_CLIQUE"",""0004_N0200_K0043_NOCLIQUE""]",""
"","canvas-keyboard-response","105","584879","0.0-59.0-0.0-0.0","","","","","","","","","","","","","","","","","","614",""," ","[42,15,140,156,130,63,117,14,121,93,113,183,194,116,158,55,39,164,59,72,31,193,7,153,166,122,17,172,123,64,180,53,155,50,138,106,129,27,34,75,175,13,44,105,98,0,24,21,86,174,5,65,28,12,151,127,85,171,133,88,29,32,4,125,104,114,40,148,62,170,77,109,36,196,136,168,26,146,185,176,187,76,70,79,179,154,95,197,163,126,71,186,60,68,96,92,10,1,169,182,33,119,134,47,52,152,30,159,124,173,89,49,41,82,157,160,188,143,190,191,56,108,58,69,144,74,150,99,6,51,165,20,19,9,78,131,101,48,120,142,118,97,35,54,195,189,46,43,145,135,110,192,107,198,90,178,132,83,112,181,45,115,102,73,167,67,103,87,22,137,37,3,80,81,149,100,57,91,199,25,16,38,2,84,128,161,11,139,184,177,162,111,18,8,94,147,23,66,61,141]","arrowright","0","7","43","200","[""0021_N0200_K0043_NOCLIQUE"",""0086_N0200_K0043_CLIQUE""]",""
"","audio-keyboard-response","106","585954","0.0-59.0-0.0-1.0","","","","","","","","","","","","","","","","","","null","audio_feedback/shuffles/shuffle01.mp3","null","","","0","7","43","200","[""0021_N0200_K0043_NOCLIQUE"",""0086_N0200_K0043_CLIQUE""]",""
"","canvas-keyboard-response","107","586842","0.0-59.1-0.1-0.1","","","","","","","","","","","","","","","","","","876",""," ","[24,83,41,47,133,33,139,72,147,88,74,160,175,29,157,171,56,158,77,87,166,188,37,193,138,66,25,78,16,30,15,5,68,141,101,182,31,51,148,172,55,38,1,13,23,12,93,153,152,198,6,69,124,8,183,131,164,144,58,100,105,165,82,20,61,185,26,48,14,27,194,52,11,95,34,109,79,118,96,116,132,156,140,168,7,22,28,62,57,145,10,174,161,21,143,162,81,135,169,113,50,97,9,114,108,197,129,35,177,186,53,42,99,92,178,71,107,179,54,181,180,123,184,103,192,43,64,121,40,102,142,146,130,3,39,167,126,46,106,70,18,59,19,155,125,190,90,76,86,4,154,111,60,49,136,75,17,170,191,128,189,89,122,173,120,91,159,150,110,80,119,149,104,151,94,65,112,63,84,2,45,44,134,187,127,199,176,73,163,137,32,67,117,0,195,115,196,36,85,98]","arrowright","0","7","43","200","[""0021_N0200_K0043_NOCLIQUE"",""0086_N0200_K0043_CLIQUE""]",""
"","audio-keyboard-response","108","587914","0.0-59.1-0.1-1.1","","","","","","","","","","","","","","","","","","null","audio_feedback/shuffles/shuffle01.mp3","null","","","0","7","43","200","[""0021_N0200_K0043_NOCLIQUE"",""0086_N0200_K0043_CLIQUE""]",""
"","canvas-keyboard-response","109","588779","0.0-59.2-0.2-0.2","","","","","","","","","","","","","","","","","","853",""," ","[33,72,111,54,75,10,68,186,11,165,107,37,184,195,43,69,60,53,74,135,180,151,6,155,183,110,28,181,194,36,131,90,14,161,21,170,2,192,27,5,24,15,157,30,78,62,49,125,38,1,83,198,153,128,89,163,0,76,102,13,173,187,190,171,95,99,191,44,178,18,158,101,79,104,29,22,167,129,35,42,168,118,31,159,67,114,71,176,59,117,154,50,193,197,3,182,96,108,185,98,152,81,45,63,175,169,8,134,127,144,70,112,77,130,39,141,9,143,12,115,92,19,93,150,137,64,172,166,51,73,17,80,65,86,94,119,188,56,124,97,142,148,189,103,58,174,66,120,25,113,145,20,55,34,57,139,106,132,61,100,84,160,179,26,82,138,177,133,91,196,136,109,16,146,149,126,105,46,140,147,40,87,162,7,199,41,156,48,23,116,4,164,47,52,123,32,121,88,122,85]","arrowright","0","7","43","200","[""0021_N0200_K0043_NOCLIQUE"",""0086_N0200_K0043_CLIQUE""]",""
"","audio-keyboard-response","110","589854","0.0-59.2-0.2-1.2","","","","","","","","","","","","","","","","","","null","audio_feedback/shuffles/shuffle01.mp3","null","","","0","7","43","200","[""0021_N0200_K0043_NOCLIQUE"",""0086_N0200_K0043_CLIQUE""]",""
"","canvas-keyboard-response","111","591915","0.0-59.3-0.3-0.3","","","","","","","","","","","","","","","","","","2049",""," ","[184,69,187,40,153,83,75,177,114,174,6,103,74,121,157,168,102,34,78,54,22,96,8,64,51,14,13,5,4,135,47,31,52,182,94,188,68,112,80,172,148,194,140,27,61,15,142,170,146,176,100,28,24,63,57,70,122,167,107,197,67,186,71,38,169,132,97,86,144,89,90,87,149,115,190,106,159,162,133,104,165,130,189,91,123,125,118,82,178,50,196,175,179,139,59,10,129,53,21,136,120,76,12,49,65,171,73,137,181,9,66,101,195,11,124,37,119,16,42,44,138,160,62,192,113,105,141,29,56,0,55,7,23,111,17,147,30,183,116,128,85,3,46,143,98,151,93,1,48,72,84,60,109,25,180,185,18,198,43,134,41,95,158,127,32,108,161,164,150,152,145,191,45,36,99,155,126,92,79,199,19,88,166,35,58,26,154,117,173,2,110,33,131,39,77,193,163,20,81,156]","arrowright","0","7","43","200","[""0021_N0200_K0043_NOCLIQUE"",""0086_N0200_K0043_CLIQUE""]",""
"","audio-keyboard-response","112","592995","0.0-59.3-0.3-1.3","","","","","","","","","","","","","","","","","","null","audio_feedback/shuffles/shuffle01.mp3","null","","","0","7","43","200","[""0021_N0200_K0043_NOCLIQUE"",""0086_N0200_K0043_CLIQUE""]",""
"","canvas-keyboard-response","113","593688","0.0-59.4-0.4-0.4","","","","","","","","","","","","","","","","","","684",""," ","[187,117,163,171,120,134,121,143,112,133,39,127,174,144,111,130,173,66,92,84,186,132,15,162,68,164,165,43,45,116,103,179,65,42,91,168,151,183,101,28,9,62,135,194,131,35,189,113,6,97,27,79,199,126,86,182,40,56,177,156,7,49,34,85,67,82,81,37,8,0,110,32,125,11,148,83,58,57,139,3,160,59,76,98,169,38,44,172,99,161,107,89,181,80,192,147,167,106,145,188,78,141,88,70,184,123,197,53,72,24,4,60,22,48,115,155,170,195,63,136,93,149,29,73,12,95,166,1,14,153,36,30,176,102,51,2,69,16,158,198,94,129,54,152,25,41,75,124,17,100,77,108,118,157,64,109,140,105,90,46,61,13,185,33,52,175,20,191,74,71,128,180,96,10,159,50,150,138,190,47,119,122,114,146,142,31,178,19,193,137,55,21,87,154,196,23,26,18,5,104]","arrowright","0","7","43","200","[""0021_N0200_K0043_NOCLIQUE"",""0086_N0200_K0043_CLIQUE""]",""
"","audio-keyboard-response","114","594754","0.0-59.4-0.4-1.4","","","","","","","","","","","","","","","","","","null","audio_feedback/shuffles/shuffle01.mp3","null","","","0","7","43","200","[""0021_N0200_K0043_NOCLIQUE"",""0086_N0200_K0043_CLIQUE""]",""
"","canvas-keyboard-response","115","595493","0.0-59.5-0.5-0.5","","","","","","","","","","","","","","","","","","730","","arrowright","[79,84,155,4,0,159,18,125,114,142,30,179,13,74,192,156,108,136,6,27,8,93,67,109,65,82,87,151,123,92,131,45,115,172,68,122,76,105,14,137,180,138,154,182,72,102,181,153,162,183,64,11,66,166,57,26,89,150,99,3,189,15,5,81,29,44,50,61,98,168,164,185,143,160,25,173,177,59,69,83,16,78,32,106,139,141,197,163,35,80,7,70,2,144,107,174,145,49,129,43,73,63,20,40,170,194,1,178,41,175,52,140,130,54,94,118,103,58,157,77,71,167,146,198,85,86,169,100,196,23,152,22,184,101,62,199,9,158,171,116,120,48,24,19,149,195,91,165,126,193,12,46,186,127,135,187,147,176,42,53,28,10,95,132,113,37,75,104,90,88,33,34,17,111,56,119,97,191,36,60,47,21,121,55,117,31,96,128,38,148,51,161,124,39,112,133,110,188,134,190]","arrowright","0","7","43","200","[""0021_N0200_K0043_NOCLIQUE"",""0086_N0200_K0043_CLIQUE""]","true"
"","audio-keyboard-response","116","596494","0.0-59.5-0.5-1.5","","","","","","","","","","","","","","","","","","null","audio_feedback/right/coin01.mp3","null","","","0","7","43","200","[""0021_N0200_K0043_NOCLIQUE"",""0086_N0200_K0043_CLIQUE""]",""
"","canvas-keyboard-response","117","597135","0.0-60.0-0.0-0.0","","","","","","","","","","","","","","","","","","630",""," ","[101,64,181,57,110,41,180,17,187,62,23,13,93,111,83,50,68,176,113,155,33,103,29,130,78,73,127,102,38,81,61,135,143,66,198,5,161,85,71,199,116,186,114,163,7,12,168,185,134,3,30,167,124,53,95,18,25,37,21,132,54,138,108,26,74,164,104,35,100,141,42,115,193,58,190,171,28,34,178,16,79,145,63,89,118,175,166,77,52,65,194,147,182,43,82,169,129,87,184,75,109,112,14,137,189,119,90,191,49,97,70,80,188,88,76,183,40,126,48,140,46,174,173,121,158,139,196,51,153,179,47,136,27,106,9,197,144,128,4,151,125,31,172,157,15,56,149,24,69,45,148,59,159,133,0,55,6,131,154,91,150,11,86,22,10,67,19,98,170,156,92,20,8,120,94,2,96,60,195,1,165,44,160,99,105,122,39,107,177,72,142,152,36,192,117,162,123,146,84,32]","arrowleft","0","8","40","200","[""0094_N0200_K0040_CLIQUE"",""0059_N0200_K0040_NOCLIQUE""]",""
"","audio-keyboard-response","118","598214","0.0-60.0-0.0-1.0","","","","","","","","","","","","","","","","","","null","audio_feedback/shuffles/shuffle01.mp3","null","","","0","8","40","200","[""0094_N0200_K0040_CLIQUE"",""0059_N0200_K0040_NOCLIQUE""]",""
"","canvas-keyboard-response","119","598583","0.0-60.1-0.1-0.1","","","","","","","","","","","","","","","","","","358",""," ","[155,135,88,134,79,10,119,20,34,45,58,52,98,15,117,35,109,60,27,127,25,120,123,77,93,50,95,177,9,187,32,8,102,81,39,182,0,169,2,46,148,105,129,47,54,82,121,66,145,141,124,194,146,183,44,189,125,29,150,147,62,154,55,3,56,114,37,174,17,151,87,19,110,152,73,7,118,48,97,199,193,57,89,139,28,33,153,72,64,65,178,112,51,53,142,59,92,161,104,190,94,180,181,68,31,75,16,61,24,49,198,164,131,83,171,107,116,167,11,115,36,76,188,41,1,138,130,106,184,108,91,140,195,175,132,42,67,149,12,156,99,21,196,80,6,111,63,166,113,69,176,163,172,71,186,43,179,137,173,100,84,133,14,18,85,185,30,170,4,86,22,136,38,40,126,90,103,165,159,168,78,197,13,128,70,23,162,26,74,144,96,191,157,143,5,160,101,122,192,158]","arrowleft","0","8","40","200","[""0094_N0200_K0040_CLIQUE"",""0059_N0200_K0040_NOCLIQUE""]",""
"","audio-keyboard-response","120","599654","0.0-60.1-0.1-1.1","","","","","","","","","","","","","","","","","","null","audio_feedback/shuffles/shuffle01.mp3","null","","","0","8","40","200","[""0094_N0200_K0040_CLIQUE"",""0059_N0200_K0040_NOCLIQUE""]",""
"","canvas-keyboard-response","121","600443","0.0-60.2-0.2-0.2","","","","","","","","","","","","","","","","","","777","","arrowright","[14,185,155,141,8,199,166,127,12,27,188,92,129,16,114,149,190,76,11,180,22,19,37,52,104,94,65,72,146,63,79,196,82,9,4,20,192,150,197,159,172,116,144,195,36,133,93,171,99,85,26,161,135,70,80,97,115,145,107,187,77,64,24,132,138,194,183,170,55,96,174,31,176,91,6,102,74,98,39,71,40,13,142,140,48,86,112,175,61,28,42,148,169,198,2,143,123,95,67,108,156,173,43,54,152,124,34,134,23,38,1,139,89,0,181,130,73,154,157,87,29,47,118,165,125,151,32,153,100,75,30,103,101,119,35,83,68,50,49,117,17,160,5,90,33,44,58,81,10,131,59,164,111,186,120,62,106,41,162,51,21,66,84,110,128,109,126,136,122,163,179,168,60,167,3,113,105,88,69,178,182,78,191,158,53,25,193,184,177,137,46,45,18,147,7,121,15,57,189,56]","arrowleft","0","8","40","200","[""0094_N0200_K0040_CLIQUE"",""0059_N0200_K0040_NOCLIQUE""]","false"
"","audio-keyboard-response","122","601456","0.0-60.2-0.2-1.2","","","","","","","","","","","","","","","","","","null","audio_feedback/wrong/error01.mp3","null","","","0","8","40","200","[""0094_N0200_K0040_CLIQUE"",""0059_N0200_K0040_NOCLIQUE""]",""
"","canvas-keyboard-response","123","601852","0.0-61.0-0.0-0.0","","","","","","","","","","","","","","","","","","386",""," ","[139,58,112,75,93,11,153,154,5,12,182,169,124,3,175,140,60,18,113,76,99,144,66,33,2,96,47,85,8,111,29,184,19,125,63,27,174,161,31,59,128,15,71,180,36,14,52,44,68,22,150,146,132,87,186,90,165,4,43,142,30,82,20,80,97,35,183,32,194,159,192,167,198,117,91,34,70,24,156,46,116,164,83,49,57,178,28,98,197,122,103,23,92,173,166,118,79,105,138,137,149,95,176,109,13,170,145,121,130,73,50,196,135,78,155,172,107,168,26,88,120,141,56,181,136,94,108,81,77,110,106,115,74,179,67,21,185,39,69,102,1,158,143,163,65,199,45,195,40,101,123,133,119,16,7,84,160,157,72,48,104,54,55,86,134,10,191,190,53,171,51,25,177,129,9,114,193,17,61,0,147,162,148,151,62,42,64,41,126,127,100,187,38,37,152,189,131,188,89,6]","arrowright","0","9","40","200","[""0024_N0200_K0040_NOCLIQUE"",""0072_N0200_K0040_CLIQUE""]",""
"","audio-keyboard-response","124","602934","0.0-61.0-0.0-1.0","","","","","","","","","","","","","","","","","","null","audio_feedback/shuffles/shuffle01.mp3","null","","","0","9","40","200","[""0024_N0200_K0040_NOCLIQUE"",""0072_N0200_K0040_CLIQUE""]",""
"","canvas-keyboard-response","125","604824","0.0-61.1-0.1-0.1","","","","","","","","","","","","","","","","","","1881",""," ","[10,150,167,157,49,195,132,113,28,41,77,82,156,99,25,179,181,56,117,4,27,72,17,0,83,3,128,94,69,144,105,137,130,180,124,93,182,114,104,177,54,103,95,109,158,97,175,141,37,40,197,9,89,163,186,47,136,36,146,85,14,75,155,174,145,53,126,149,62,60,66,102,116,65,11,151,64,42,87,165,115,187,176,46,2,58,125,59,80,134,170,57,90,21,32,12,96,122,192,79,139,183,193,173,199,84,131,67,185,44,135,154,76,118,22,88,81,18,86,184,189,188,91,52,106,190,16,133,172,123,112,8,1,147,196,171,39,120,5,138,7,31,107,100,51,178,29,61,13,164,50,198,38,168,24,71,73,26,160,121,143,148,153,111,78,152,110,191,162,23,119,108,161,68,55,20,166,43,127,74,101,19,140,33,70,15,169,142,98,194,48,30,34,129,45,35,159,92,63,6]","arrowright","0","9","40","200","[""0024_N0200_K0040_NOCLIQUE"",""0072_N0200_K0040_CLIQUE""]",""
"","audio-keyboard-response","126","605894","0.0-61.1-0.1-1.1","","","","","","","","","","","","","","","","","","null","audio_feedback/shuffles/shuffle01.mp3","null","","","0","9","40","200","[""0024_N0200_K0040_NOCLIQUE"",""0072_N0200_K0040_CLIQUE""]",""
"","canvas-keyboard-response","127","606520","0.0-61.2-0.2-0.2","","","","","","","","","","","","","","","","","","614",""," ","[82,6,62,137,8,99,46,131,32,9,34,39,79,40,2,149,69,36,94,17,93,168,191,190,29,47,175,111,20,11,85,183,161,138,90,66,126,1,19,185,33,35,188,176,171,100,139,132,184,178,135,37,192,140,54,51,129,157,74,55,91,117,41,148,10,105,5,58,180,142,59,141,13,110,45,26,145,87,102,73,151,71,125,15,84,63,18,113,80,86,134,143,118,173,198,136,182,127,165,112,76,70,81,186,121,68,23,97,52,67,42,155,147,89,95,0,60,53,115,28,108,179,167,189,27,181,7,21,24,64,197,44,187,160,154,16,43,72,166,122,133,4,172,150,119,164,156,103,22,88,174,177,48,194,31,12,170,152,109,124,61,65,130,96,153,196,75,120,38,158,163,159,104,107,195,162,30,50,78,123,146,128,83,199,77,98,193,57,49,106,56,101,25,92,144,3,169,116,114,14]","arrowright","0","9","40","200","[""0024_N0200_K0040_NOCLIQUE"",""0072_N0200_K0040_CLIQUE""]",""
"","audio-keyboard-response","128","607595","0.0-61.2-0.2-1.2","","","","","","","","","","","","","","","","","","null","audio_feedback/shuffles/shuffle01.mp3","null","","","0","9","40","200","[""0024_N0200_K0040_NOCLIQUE"",""0072_N0200_K0040_CLIQUE""]",""
"","canvas-keyboard-response","129","608309","0.0-61.3-0.3-0.3","","","","","","","","","","","","","","","","","","705",""," ","[143,100,116,180,18,60,196,178,38,39,46,172,162,23,57,48,111,113,88,173,20,146,64,8,69,74,128,12,0,166,135,145,186,3,138,123,26,11,136,125,27,73,102,107,121,25,67,134,66,14,129,37,79,108,174,106,49,168,171,80,72,33,68,150,105,10,9,177,93,187,70,192,15,22,24,188,52,141,35,1,198,87,41,126,185,127,54,97,153,179,189,144,131,118,195,199,99,61,59,44,103,71,104,43,81,92,120,160,77,51,119,197,117,114,32,159,82,161,19,151,183,163,124,85,50,47,90,94,58,86,56,89,156,65,5,158,13,28,30,112,155,157,45,193,34,164,130,110,152,2,84,62,115,133,36,16,149,76,31,101,139,91,98,176,147,63,6,170,191,96,17,175,137,190,40,167,132,78,169,142,194,165,154,4,184,140,21,95,109,53,29,55,182,148,122,75,181,7,42,83]","arrowright","0","9","40","200","[""0024_N0200_K0040_NOCLIQUE"",""0072_N0200_K0040_CLIQUE""]",""
"","audio-keyboard-response","130","609374","0.0-61.3-0.3-1.3","","","","","","","","","","","","","","","","","","null","audio_feedback/shuffles/shuffle01.mp3","null","","","0","9","40","200","[""0024_N0200_K0040_NOCLIQUE"",""0072_N0200_K0040_CLIQUE""]",""
"","canvas-keyboard-response","131","610596","0.0-61.4-0.4-0.4","","","","","","","","","","","","","","","","","","1212","","arrowleft","[140,84,65,96,62,80,8,11,112,6,56,38,157,155,175,126,153,199,185,189,170,184,90,24,197,145,67,164,120,158,132,32,139,102,69,9,74,82,70,118,63,42,59,73,124,176,101,167,187,136,134,117,68,71,30,104,58,97,116,156,91,52,192,198,152,35,77,17,119,72,146,22,85,27,173,2,190,44,171,55,115,122,25,127,123,48,26,46,94,195,64,144,83,194,147,41,75,92,138,125,107,89,28,7,87,53,10,5,137,113,88,1,129,141,29,23,180,149,169,108,159,4,33,160,79,163,49,178,76,98,142,47,37,19,186,148,66,14,105,110,15,3,36,154,133,61,45,95,143,57,177,166,0,193,93,162,43,34,191,16,131,183,12,114,109,18,179,130,161,181,151,172,100,54,51,182,39,60,20,135,78,128,150,50,121,165,40,31,13,188,111,86,106,103,99,81,21,196,168,174]","arrowright","0","9","40","200","[""0024_N0200_K0040_NOCLIQUE"",""0072_N0200_K0040_CLIQUE""]","false"
"","audio-keyboard-response","132","611594","0.0-61.4-0.4-1.4","","","","","","","","","","","","","","","","","","null","audio_feedback/wrong/error01.mp3","null","","","0","9","40","200","[""0024_N0200_K0040_NOCLIQUE"",""0072_N0200_K0040_CLIQUE""]",""
"","canvas-keyboard-response","133","614370","0.0-62.0-0.0-0.0","","","","","","","","","","","","","","","","","","2765",""," ","[61,121,44,149,95,194,80,58,66,144,53,138,109,195,110,154,5,186,152,78,77,15,9,69,97,140,189,191,184,27,178,148,57,37,199,89,145,164,16,116,134,24,151,126,168,142,155,52,75,180,119,1,161,38,99,59,118,47,163,143,175,54,51,43,12,177,91,76,41,55,36,92,23,129,70,67,56,136,127,133,172,7,26,169,146,14,104,72,135,159,137,62,125,19,4,18,190,173,20,132,68,160,39,158,100,10,176,13,96,22,6,188,113,115,179,49,86,107,117,130,114,112,94,65,185,123,192,167,35,79,46,166,0,81,50,74,45,60,165,197,193,162,33,111,150,174,30,11,157,93,87,128,88,84,64,139,131,101,187,28,183,82,73,90,85,156,34,141,83,120,198,153,182,63,181,171,40,17,21,105,71,108,48,124,2,196,147,42,31,122,102,98,106,3,29,103,8,32,25,170]","arrowleft","0","10","37","200","[""0094_N0200_K0037_CLIQUE"",""0091_N0200_K0037_NOCLIQUE""]",""
"","audio-keyboard-response","134","615435","0.0-62.0-0.0-1.0","","","","","","","","","","","","","","","","","","null","audio_feedback/shuffles/shuffle01.mp3","null","","","0","10","37","200","[""0094_N0200_K0037_CLIQUE"",""0091_N0200_K0037_NOCLIQUE""]",""
"","canvas-keyboard-response","135","619567","0.0-62.1-0.1-0.1","","","","","","","","","","","","","","","","","","4123",""," ","[191,154,130,16,192,152,60,76,55,121,169,73,24,182,59,126,196,43,33,163,82,118,127,57,114,15,156,188,62,171,137,112,158,51,95,157,49,161,125,115,106,71,149,110,81,14,31,79,37,6,8,26,162,138,151,147,45,42,11,10,68,187,170,111,3,28,69,181,83,21,47,174,108,124,39,53,19,198,122,113,88,129,96,61,190,93,193,7,78,131,1,128,107,4,139,56,0,25,86,41,87,89,146,90,75,168,23,176,153,72,64,84,117,141,103,58,38,74,179,5,97,100,133,32,148,70,18,132,29,35,172,142,145,104,9,80,66,194,105,34,91,22,12,180,120,123,98,175,2,44,54,36,167,67,178,85,116,99,46,160,50,197,102,20,48,94,164,135,52,13,173,140,27,119,183,155,77,63,17,186,189,165,150,185,144,30,184,92,134,166,40,65,136,195,159,109,143,199,177,101]","arrowleft","0","10","37","200","[""0094_N0200_K0037_CLIQUE"",""0091_N0200_K0037_NOCLIQUE""]",""
"","audio-keyboard-response","136","620635","0.0-62.1-0.1-1.1","","","","","","","","","","","","","","","","","","null","audio_feedback/shuffles/shuffle01.mp3","null","","","0","10","37","200","[""0094_N0200_K0037_CLIQUE"",""0091_N0200_K0037_NOCLIQUE""]",""
"","canvas-keyboard-response","137","622707","0.0-62.2-0.2-0.2","","","","","","","","","","","","","","","","","","2062",""," ","[67,112,169,110,159,117,105,98,192,89,124,82,45,153,138,48,148,36,132,154,16,183,28,90,35,147,119,63,135,160,34,163,27,14,177,81,5,52,2,175,101,133,195,171,20,108,77,72,79,17,100,97,19,99,184,96,41,150,125,8,22,107,32,87,151,39,11,68,127,76,47,65,95,42,146,176,94,43,137,40,131,26,106,140,38,86,69,190,70,158,59,66,143,6,141,111,23,57,156,197,172,91,173,189,196,56,88,93,188,7,12,126,55,21,46,152,144,83,164,180,162,104,178,165,49,53,10,149,33,113,116,92,50,103,29,161,191,179,75,198,122,157,181,4,74,31,15,193,37,167,136,64,62,3,187,199,61,155,30,73,128,84,71,145,80,166,18,174,0,109,60,194,9,170,118,78,130,114,115,13,25,142,44,168,54,129,1,102,24,121,186,139,182,85,185,123,120,58,51,134]","arrowleft","0","10","37","200","[""0094_N0200_K0037_CLIQUE"",""0091_N0200_K0037_NOCLIQUE""]",""
"","audio-keyboard-response","138","623774","0.0-62.2-0.2-1.2","","","","","","","","","","","","","","","","","","null","audio_feedback/shuffles/shuffle01.mp3","null","","","0","10","37","200","[""0094_N0200_K0037_CLIQUE"",""0091_N0200_K0037_NOCLIQUE""]",""
"","canvas-keyboard-response","139","624925","0.0-62.3-0.3-0.3","","","","","","","","","","","","","","","","","","1140",""," ","[20,101,109,17,198,14,50,154,181,62,85,21,87,86,123,111,56,40,161,104,11,106,152,15,194,158,116,30,163,22,100,89,113,147,35,188,63,153,172,70,33,12,47,178,165,139,140,185,167,176,134,60,98,180,68,66,189,84,16,173,82,199,179,169,186,27,162,129,125,148,195,183,10,192,114,25,36,57,52,75,137,182,115,13,191,18,39,5,108,159,160,7,32,94,96,110,135,175,53,4,69,190,142,145,193,146,171,59,54,92,26,58,156,34,31,177,44,61,131,88,41,128,112,76,79,164,80,122,187,120,67,43,19,149,130,51,48,29,9,38,107,138,102,105,71,143,49,74,2,6,3,151,150,55,77,196,133,119,83,78,93,197,103,184,117,174,91,81,124,72,126,132,73,8,23,118,64,0,99,97,24,127,1,155,42,141,28,166,170,37,45,144,121,136,90,157,95,168,65,46]","arrowleft","0","10","37","200","[""0094_N0200_K0037_CLIQUE"",""0091_N0200_K0037_NOCLIQUE""]",""
"","audio-keyboard-response","140","625995","0.0-62.3-0.3-1.3","","","","","","","","","","","","","","","","","","null","audio_feedback/shuffles/shuffle01.mp3","null","","","0","10","37","200","[""0094_N0200_K0037_CLIQUE"",""0091_N0200_K0037_NOCLIQUE""]",""
"","canvas-keyboard-response","141","626933","0.0-62.4-0.4-0.4","","","","","","","","","","","","","","","","","","926",""," ","[44,176,105,122,113,20,82,58,69,25,174,7,41,115,106,154,101,167,86,188,172,77,158,61,89,5,118,90,148,88,79,78,17,130,70,13,139,114,146,38,131,112,119,87,83,42,68,125,198,191,10,73,142,140,40,116,22,102,185,54,34,91,152,51,33,76,75,8,164,52,136,163,56,147,59,80,85,175,178,39,98,14,121,108,93,63,181,94,103,64,36,123,32,189,184,165,183,133,144,55,1,107,137,110,47,166,120,193,182,145,27,199,11,92,67,19,171,155,135,117,173,192,197,151,159,21,190,28,162,111,95,104,53,57,50,170,128,153,194,149,74,16,96,15,48,169,150,45,97,24,35,179,161,180,157,81,60,9,129,71,143,3,124,177,126,196,109,43,31,29,46,100,26,65,12,37,186,195,0,138,30,156,6,134,4,62,18,168,72,141,187,160,127,66,99,23,132,84,2,49]","arrowleft","0","10","37","200","[""0094_N0200_K0037_CLIQUE"",""0091_N0200_K0037_NOCLIQUE""]",""
"","audio-keyboard-response","142","628016","0.0-62.4-0.4-1.4","","","","","","","","","","","","","","","","","","null","audio_feedback/shuffles/shuffle01.mp3","null","","","0","10","37","200","[""0094_N0200_K0037_CLIQUE"",""0091_N0200_K0037_NOCLIQUE""]",""
"","canvas-keyboard-response","143","629554","0.0-62.5-0.5-0.5","","","","","","","","","","","","","","","","","","1526",""," ","[185,162,5,55,40,122,94,112,131,80,49,178,10,56,26,194,82,18,127,8,164,180,123,189,161,169,174,138,52,22,139,89,0,191,134,88,168,16,170,117,182,110,21,146,193,63,13,91,93,111,179,197,46,119,97,33,50,29,32,143,171,156,107,27,42,153,133,181,61,167,186,14,90,159,41,60,145,39,4,132,116,187,141,74,121,166,96,144,64,34,151,115,35,20,158,95,43,57,58,59,109,3,126,66,73,67,92,177,75,172,83,105,137,45,129,148,175,130,69,30,149,53,87,173,198,108,47,54,72,163,65,79,102,48,62,154,120,135,23,68,140,160,44,188,125,17,98,6,1,86,37,19,142,165,7,199,38,106,85,124,101,51,103,24,152,36,113,118,104,70,183,78,15,196,150,99,31,176,25,128,71,190,155,76,184,147,12,192,11,136,114,84,77,28,2,100,9,81,195,157]","arrowleft","0","10","37","200","[""0094_N0200_K0037_CLIQUE"",""0091_N0200_K0037_NOCLIQUE""]",""
"","audio-keyboard-response","144","630636","0.0-62.5-0.5-1.5","","","","","","","","","","","","","","","","","","null","audio_feedback/shuffles/shuffle01.mp3","null","","","0","10","37","200","[""0094_N0200_K0037_CLIQUE"",""0091_N0200_K0037_NOCLIQUE""]",""
"","canvas-keyboard-response","145","631838","0.0-62.6-0.6-0.6","","","","","","","","","","","","","","","","","","1193",""," ","[171,13,69,24,102,192,181,78,47,125,34,53,128,190,66,37,0,122,137,41,112,154,68,101,59,159,134,151,1,20,113,135,57,158,107,136,88,30,28,21,194,185,162,100,108,120,174,140,17,91,9,110,3,104,73,35,131,144,116,26,160,147,184,79,84,103,5,121,8,141,149,18,176,39,109,129,82,124,126,19,96,165,36,99,123,61,111,74,105,49,172,33,188,117,86,89,58,183,54,191,29,189,75,138,170,92,64,27,173,71,42,12,4,7,197,67,130,133,25,155,97,177,198,127,46,62,11,72,14,106,94,115,118,145,77,139,193,2,114,196,148,45,32,161,52,90,142,55,98,51,22,23,152,178,85,153,168,146,166,167,65,119,60,76,10,143,163,6,132,56,83,63,38,95,16,50,157,182,150,40,169,156,180,31,187,195,80,43,87,179,44,81,175,48,15,164,199,186,93,70]","arrowleft","0","10","37","200","[""0094_N0200_K0037_CLIQUE"",""0091_N0200_K0037_NOCLIQUE""]",""
"","audio-keyboard-response","146","632916","0.0-62.6-0.6-1.6","","","","","","","","","","","","","","","","","","null","audio_feedback/shuffles/shuffle01.mp3","null","","","0","10","37","200","[""0094_N0200_K0037_CLIQUE"",""0091_N0200_K0037_NOCLIQUE""]",""
"","canvas-keyboard-response","147","633996","0.0-62.7-0.7-0.7","","","","","","","","","","","","","","","","","","1069",""," ","[48,176,129,93,53,32,86,121,193,34,92,175,21,52,149,114,109,36,186,51,123,89,58,141,183,38,134,84,69,196,85,146,100,33,6,189,10,173,91,122,43,29,143,159,4,0,37,192,75,78,169,142,178,46,182,194,61,188,71,49,76,135,11,172,180,17,19,23,116,165,22,63,153,3,96,67,161,110,56,154,108,177,124,126,90,13,187,42,185,16,133,2,119,28,18,164,195,190,102,132,35,136,98,26,184,140,115,59,44,166,25,157,83,163,104,95,197,8,118,45,80,73,111,112,162,99,120,24,72,179,181,64,168,74,15,130,70,151,131,170,79,147,174,81,7,103,138,94,77,198,14,27,47,68,152,125,1,117,60,97,9,12,160,158,171,5,66,54,127,65,62,39,167,101,156,107,57,82,30,199,87,88,128,50,144,139,31,55,150,20,41,137,155,148,40,106,113,105,145,191]","arrowleft","0","10","37","200","[""0094_N0200_K0037_CLIQUE"",""0091_N0200_K0037_NOCLIQUE""]",""
"","audio-keyboard-response","148","635075","0.0-62.7-0.7-1.7","","","","","","","","","","","","","","","","","","null","audio_feedback/shuffles/shuffle01.mp3","null","","","0","10","37","200","[""0094_N0200_K0037_CLIQUE"",""0091_N0200_K0037_NOCLIQUE""]",""
"","canvas-keyboard-response","149","636532","0.0-62.8-0.8-0.8","","","","","","","","","","","","","","","","","","1448",""," ","[23,149,157,29,95,197,76,191,49,177,66,4,51,102,138,119,183,134,7,80,10,64,74,121,17,161,87,40,54,90,32,109,173,34,11,187,72,65,92,132,57,106,86,52,108,18,141,111,198,83,192,0,144,115,96,62,27,70,103,26,122,128,77,151,58,9,42,38,114,131,44,73,154,130,196,199,39,19,81,172,171,190,15,194,45,69,142,159,6,60,78,186,146,94,104,162,107,167,145,61,170,129,25,75,133,36,188,152,160,50,37,71,105,2,174,20,48,53,135,163,181,101,59,93,97,153,8,35,100,150,148,55,88,3,98,21,43,14,126,68,116,175,91,82,180,179,13,22,47,127,117,139,195,113,28,168,99,182,30,193,84,137,112,56,123,185,67,41,140,155,136,89,16,178,63,12,110,120,158,31,85,147,164,166,165,33,189,5,1,176,24,125,156,46,124,79,184,143,118,169]","arrowleft","0","10","37","200","[""0094_N0200_K0037_CLIQUE"",""0091_N0200_K0037_NOCLIQUE""]",""
"","audio-keyboard-response","150","637615","0.0-62.8-0.8-1.8","","","","","","","","","","","","","","","","","","null","audio_feedback/shuffles/shuffle01.mp3","null","","","0","10","37","200","[""0094_N0200_K0037_CLIQUE"",""0091_N0200_K0037_NOCLIQUE""]",""
"","canvas-keyboard-response","151","639730","0.0-62.9-0.9-0.9","","","","","","","","","","","","","","","","","","2105",""," ","[136,29,62,74,6,45,26,185,193,141,73,123,21,144,65,23,53,12,22,11,147,87,154,60,44,98,7,113,102,46,77,130,140,173,126,174,68,41,32,38,176,168,50,27,16,42,97,28,76,15,1,5,182,94,64,184,39,14,138,71,164,91,103,183,133,179,145,169,167,88,162,99,139,135,171,107,8,137,58,127,181,92,129,175,134,104,190,56,160,69,117,186,96,34,31,2,19,161,192,146,86,80,59,57,79,163,191,36,109,81,172,187,47,143,89,37,149,18,40,100,159,148,85,48,108,17,156,165,111,124,43,158,114,132,119,155,177,82,52,152,70,199,61,84,196,115,24,153,49,0,122,178,30,10,83,25,54,131,63,188,157,170,51,75,33,35,20,151,93,110,101,150,118,78,105,112,95,9,194,166,66,128,121,180,120,67,195,106,3,197,72,125,198,90,142,55,189,13,116,4]","arrowleft","0","10","37","200","[""0094_N0200_K0037_CLIQUE"",""0091_N0200_K0037_NOCLIQUE""]",""
"","audio-keyboard-response","152","640798","0.0-62.9-0.9-1.9","","","","","","","","","","","","","","","","","","null","audio_feedback/shuffles/shuffle01.mp3","null","","","0","10","37","200","[""0094_N0200_K0037_CLIQUE"",""0091_N0200_K0037_NOCLIQUE""]",""
"","canvas-keyboard-response","153","641709","0.0-62.10-0.10-0.10","","","","","","","","","","","","","","","","","","901","","arrowleft","[124,77,63,159,74,163,153,110,51,53,72,103,107,155,178,181,162,139,164,6,81,114,15,69,172,7,37,128,50,168,84,189,182,2,170,134,13,64,97,17,188,78,83,10,36,80,149,140,167,18,106,54,92,46,173,135,115,16,176,38,199,108,137,148,14,57,27,91,113,65,71,45,141,20,104,67,39,147,12,171,60,85,4,117,68,116,31,28,75,93,41,194,34,119,82,94,90,52,95,55,19,100,184,87,3,56,198,143,175,131,111,150,179,32,25,96,132,43,161,89,112,88,133,129,158,35,44,174,70,187,121,109,48,192,9,169,120,144,177,193,142,11,195,40,156,160,183,118,157,66,151,190,101,1,42,8,79,191,146,125,165,138,49,186,130,0,145,152,105,21,98,154,59,30,127,126,180,61,102,185,23,123,196,166,86,197,47,29,76,22,73,62,58,122,26,33,24,136,5,99]","arrowleft","0","10","37","200","[""0094_N0200_K0037_CLIQUE"",""0091_N0200_K0037_NOCLIQUE""]","true"
"","audio-keyboard-response","154","642714","0.0-62.10-0.10-1.10","","","","","","","","","","","","","","","","","","null","audio_feedback/right/coin01.mp3","null","","","0","10","37","200","[""0094_N0200_K0037_CLIQUE"",""0091_N0200_K0037_NOCLIQUE""]",""
"","canvas-keyboard-response","155","647207","0.0-63.0-0.0-0.0","","","","","","","","","","","","","","","","","","4483",""," ","[156,171,85,32,108,79,140,96,132,81,59,104,68,141,197,0,189,37,84,61,152,143,135,188,1,88,94,113,163,89,158,186,70,15,69,17,87,40,65,105,161,16,107,150,10,160,137,133,43,123,191,4,91,78,155,21,13,53,11,86,130,39,103,196,114,31,6,20,167,192,182,62,24,190,194,22,153,35,7,169,75,28,58,185,77,60,54,162,5,101,144,138,154,109,180,124,23,176,179,142,41,174,66,184,71,145,128,48,119,90,102,93,57,172,76,63,110,50,73,116,112,131,166,18,80,122,151,177,120,168,46,129,64,195,55,106,99,198,136,83,139,164,26,27,47,159,38,72,178,134,67,100,193,19,30,8,127,165,74,45,183,36,147,12,148,121,175,170,117,125,111,149,52,199,49,51,82,98,146,181,3,56,95,187,14,42,29,92,115,126,33,173,2,34,118,44,157,97,25,9]","arrowright","0","11","37","200","[""0057_N0200_K0037_NOCLIQUE"",""0035_N0200_K0037_CLIQUE""]",""
"","audio-keyboard-response","156","648275","0.0-63.0-0.0-1.0","","","","","","","","","","","","","","","","","","null","audio_feedback/shuffles/shuffle01.mp3","null","","","0","11","37","200","[""0057_N0200_K0037_NOCLIQUE"",""0035_N0200_K0037_CLIQUE""]",""
"","canvas-keyboard-response","157","649633","0.0-63.1-0.1-0.1","","","","","","","","","","","","","","","","","","1347","","arrowleft","[52,133,74,105,19,33,24,57,0,151,60,23,102,86,96,115,95,178,61,70,48,12,41,119,158,44,103,111,163,124,108,58,191,121,9,72,64,197,113,65,87,37,106,132,152,193,84,1,79,35,104,138,194,28,196,21,129,93,165,195,16,40,157,175,179,155,136,92,125,128,118,143,110,13,27,198,98,168,3,190,135,2,66,39,164,34,4,130,71,46,126,144,140,174,139,199,131,148,114,154,186,161,187,153,150,97,54,80,63,134,59,68,73,89,177,6,182,5,8,82,117,25,53,91,184,169,49,180,170,56,67,42,30,31,159,15,18,47,146,183,142,7,192,78,181,120,22,176,69,45,141,88,147,162,101,188,20,29,10,171,90,109,123,99,55,76,26,36,145,156,32,100,51,75,11,94,116,50,85,185,17,122,137,167,83,107,112,166,77,172,173,127,62,149,43,189,38,81,160,14]","arrowright","0","11","37","200","[""0057_N0200_K0037_NOCLIQUE"",""0035_N0200_K0037_CLIQUE""]","false"
"","audio-keyboard-response","158","650635","0.0-63.1-0.1-1.1","","","","","","","","","","","","","","","","","","null","audio_feedback/wrong/error01.mp3","null","","","0","11","37","200","[""0057_N0200_K0037_NOCLIQUE"",""0035_N0200_K0037_CLIQUE""]",""
"","canvas-keyboard-response","159","651257","0.0-64.0-0.0-0.0","","","","","","","","","","","","","","","","","","611",""," ","[94,0,45,117,111,13,33,50,154,57,49,29,183,84,153,177,98,79,199,41,188,128,87,193,196,42,158,135,22,179,86,184,197,44,17,161,123,121,83,92,55,12,105,185,4,164,132,162,19,66,53,174,160,157,192,126,28,115,2,99,25,85,60,120,186,172,11,116,191,169,182,155,140,119,23,137,187,40,69,101,108,70,54,73,180,143,171,175,52,104,136,20,138,26,109,129,15,5,102,156,170,63,149,97,75,6,146,9,36,141,68,76,124,90,81,67,72,178,16,91,10,130,18,78,88,32,176,181,142,198,148,107,46,59,56,93,134,47,151,113,189,144,62,38,24,159,43,61,194,147,145,21,110,64,8,95,31,1,71,48,74,165,103,30,106,166,89,7,39,195,96,118,152,82,114,58,168,51,65,80,122,35,3,37,150,125,131,127,163,139,27,34,167,190,173,133,112,14,100,77]","arrowleft","0","12","33","200","[""0082_N0200_K0033_CLIQUE"",""0084_N0200_K0033_NOCLIQUE""]",""
"","audio-keyboard-response","160","652336","0.0-64.0-0.0-1.0","","","","","","","","","","","","","","","","","","null","audio_feedback/shuffles/shuffle01.mp3","null","","","0","12","33","200","[""0082_N0200_K0033_CLIQUE"",""0084_N0200_K0033_NOCLIQUE""]",""
"","canvas-keyboard-response","161","653056","0.0-64.1-0.1-0.1","","","","","","","","","","","","","","","","","","711",""," ","[154,44,15,76,182,7,151,155,119,41,47,56,185,88,22,124,166,107,98,77,165,31,20,29,90,57,135,87,173,34,36,161,14,75,96,92,164,129,160,85,172,120,33,169,145,125,136,50,35,43,143,156,37,58,21,80,59,190,101,55,152,40,162,134,138,42,63,19,174,170,141,99,25,4,187,163,114,18,150,148,100,132,194,10,27,12,133,82,61,5,112,171,89,32,81,127,195,130,157,51,60,189,103,117,78,71,178,131,8,179,70,30,139,67,116,62,95,147,149,184,110,104,11,144,3,193,113,198,168,140,146,196,66,84,158,105,23,53,118,9,177,73,167,1,159,49,197,72,52,86,79,48,26,122,6,64,199,176,128,46,69,115,74,183,121,24,13,28,91,0,93,106,16,65,38,83,2,45,17,153,188,97,102,192,180,111,39,123,142,175,137,54,191,109,68,94,186,181,126,108]","arrowleft","0","12","33","200","[""0082_N0200_K0033_CLIQUE"",""0084_N0200_K0033_NOCLIQUE""]",""
"","audio-keyboard-response","162","654134","0.0-64.1-0.1-1.1","","","","","","","","","","","","","","","","","","null","audio_feedback/shuffles/shuffle01.mp3","null","","","0","12","33","200","[""0082_N0200_K0033_CLIQUE"",""0084_N0200_K0033_NOCLIQUE""]",""
"","canvas-keyboard-response","163","655155","0.0-64.2-0.2-0.2","","","","","","","","","","","","","","","","","","1011",""," ","[173,193,62,92,172,48,165,75,141,5,64,57,154,85,130,147,70,7,55,41,2,83,136,60,162,21,72,33,153,88,134,74,51,126,15,181,177,133,112,178,167,3,195,20,68,73,148,29,192,149,82,113,110,93,63,54,38,53,111,26,13,163,109,122,84,121,150,67,81,9,80,95,90,135,146,37,168,190,116,187,71,140,118,160,66,65,91,17,106,161,194,22,127,78,120,105,23,143,25,125,12,189,123,43,24,61,19,46,159,97,169,49,137,124,199,87,102,14,58,117,188,129,89,0,191,98,132,115,50,197,142,6,174,40,155,35,56,145,31,94,186,100,59,138,96,39,104,42,179,16,158,166,107,152,1,198,79,156,151,45,77,99,183,44,11,18,114,4,157,10,30,86,196,8,182,76,47,164,36,27,101,28,170,108,180,103,185,139,176,128,52,119,171,69,32,34,131,175,144,184]","arrowleft","0","12","33","200","[""0082_N0200_K0033_CLIQUE"",""0084_N0200_K0033_NOCLIQUE""]",""
"","audio-keyboard-response","164","656234","0.0-64.2-0.2-1.2","","","","","","","","","","","","","","","","","","null","audio_feedback/shuffles/shuffle01.mp3","null","","","0","12","33","200","[""0082_N0200_K0033_CLIQUE"",""0084_N0200_K0033_NOCLIQUE""]",""
"","canvas-keyboard-response","165","656975","0.0-64.3-0.3-0.3","","","","","","","","","","","","","","","","","","729","","arrowright","[25,168,181,11,54,0,22,92,199,46,5,103,151,193,42,178,49,24,73,191,128,32,98,39,89,102,85,129,99,113,81,37,109,2,153,177,172,170,7,105,147,137,104,120,146,14,69,171,35,107,68,166,50,176,186,30,63,58,65,93,16,184,118,180,27,64,130,156,36,62,159,183,117,154,189,190,198,142,101,115,163,116,110,66,148,139,135,127,119,134,97,192,48,140,197,136,121,122,31,125,173,20,152,150,41,44,131,57,53,29,84,6,114,188,40,55,8,161,26,149,133,108,111,185,155,100,71,182,87,132,86,13,61,160,15,72,59,3,75,43,106,17,164,47,33,175,91,96,4,76,196,167,28,95,70,80,90,83,187,194,12,94,79,126,10,67,169,145,51,179,195,21,123,56,45,162,19,18,78,138,124,82,77,74,165,52,141,174,88,34,157,38,9,158,143,144,23,112,60,1]","arrowleft","0","12","33","200","[""0082_N0200_K0033_CLIQUE"",""0084_N0200_K0033_NOCLIQUE""]","false"
"","audio-keyboard-response","166","657974","0.0-64.3-0.3-1.3","","","","","","","","","","","","","","","","","","null","audio_feedback/wrong/error01.mp3","null","","","0","12","33","200","[""0082_N0200_K0033_CLIQUE"",""0084_N0200_K0033_NOCLIQUE""]",""
"","canvas-keyboard-response","167","658977","0.0-65.0-0.0-0.0","","","","","","","","","","","","","","","","","","991",""," ","[14,66,15,123,10,178,100,63,147,60,26,33,59,3,194,34,47,39,141,85,29,110,129,174,21,196,182,1,86,176,95,51,163,137,139,131,155,172,96,77,145,156,74,43,183,17,161,90,120,52,148,124,46,136,93,7,144,143,69,149,81,83,151,30,8,165,82,171,170,92,154,157,186,75,13,58,80,117,116,55,140,56,76,106,134,162,198,122,16,107,61,64,72,89,105,119,138,195,108,62,88,12,160,168,101,54,184,27,180,192,19,153,199,70,67,4,102,152,79,132,71,48,127,38,32,84,94,121,181,113,187,41,159,22,126,169,193,9,191,28,150,5,173,73,31,118,68,42,104,57,166,167,78,0,133,36,91,87,197,164,37,185,24,20,177,179,45,97,98,44,18,99,146,6,109,111,114,115,189,23,25,40,188,11,2,128,158,103,112,130,142,49,175,65,125,190,35,135,50,53]","arrowright","0","13","33","200","[""0007_N0200_K0033_NOCLIQUE"",""0063_N0200_K0033_CLIQUE""]",""
"","audio-keyboard-response","168","660054","0.0-65.0-0.0-1.0","","","","","","","","","","","","","","","","","","null","audio_feedback/shuffles/shuffle01.mp3","null","","","0","13","33","200","[""0007_N0200_K0033_NOCLIQUE"",""0063_N0200_K0033_CLIQUE""]",""
"","canvas-keyboard-response","169","660589","0.0-65.1-0.1-0.1","","","","","","","","","","","","","","","","","","524",""," ","[82,121,190,36,185,79,133,19,160,150,15,105,191,151,103,18,26,182,88,80,0,52,66,114,91,65,31,108,9,195,7,117,143,3,97,140,67,68,163,126,76,174,132,134,144,164,198,61,11,138,142,197,137,70,104,92,155,124,125,169,173,95,189,172,29,118,152,13,166,175,94,58,119,63,87,187,159,4,71,162,113,100,60,131,62,10,93,171,116,110,186,64,99,12,33,120,73,178,181,81,44,128,168,184,32,34,199,54,179,158,177,109,192,112,146,180,23,77,30,176,102,17,148,188,84,47,170,141,24,165,75,39,16,57,55,22,49,154,111,127,21,14,28,194,69,37,83,153,38,42,145,167,6,40,135,59,193,136,86,161,98,157,25,147,115,122,56,130,51,20,1,107,149,96,50,106,74,35,45,53,156,139,48,196,101,129,43,78,41,72,27,2,89,123,8,5,85,90,46,183]","arrowright","0","13","33","200","[""0007_N0200_K0033_NOCLIQUE"",""0063_N0200_K0033_CLIQUE""]",""
"","audio-keyboard-response","170","661656","0.0-65.1-0.1-1.1","","","","","","","","","","","","","","","","","","null","audio_feedback/shuffles/shuffle01.mp3","null","","","0","13","33","200","[""0007_N0200_K0033_NOCLIQUE"",""0063_N0200_K0033_CLIQUE""]",""
"","canvas-keyboard-response","171","662462","0.0-65.2-0.2-0.2","","","","","","","","","","","","","","","","","","795",""," ","[110,107,137,56,172,119,182,52,118,69,10,60,145,91,37,54,146,34,94,196,28,26,55,20,190,97,31,178,159,77,111,51,0,187,3,166,82,96,199,160,148,128,108,103,101,65,79,144,168,114,124,33,57,170,136,158,89,177,67,100,4,117,32,63,164,53,116,130,80,25,41,30,2,6,163,75,92,133,179,85,186,176,105,29,193,194,174,19,102,45,138,152,72,48,95,183,8,93,43,84,181,115,73,153,157,132,68,131,106,171,120,151,184,87,192,88,27,5,98,125,139,76,46,195,44,23,169,38,161,123,16,104,50,40,198,15,113,173,74,142,83,42,17,13,129,197,126,58,36,189,14,64,147,188,191,90,150,22,155,154,47,167,135,35,70,175,12,86,99,185,62,180,156,162,7,61,112,49,66,81,71,78,18,165,143,127,1,141,59,134,39,121,11,21,122,9,149,109,24,140]","arrowright","0","13","33","200","[""0007_N0200_K0033_NOCLIQUE"",""0063_N0200_K0033_CLIQUE""]",""
"","audio-keyboard-response","172","663536","0.0-65.2-0.2-1.2","","","","","","","","","","","","","","","","","","null","audio_feedback/shuffles/shuffle01.mp3","null","","","0","13","33","200","[""0007_N0200_K0033_NOCLIQUE"",""0063_N0200_K0033_CLIQUE""]",""
"","canvas-keyboard-response","173","664882","0.0-65.3-0.3-0.3","","","","","","","","","","","","","","","","","","1337","","arrowright","[199,183,61,31,77,104,190,55,128,127,169,18,141,8,103,163,117,129,54,198,114,134,92,191,89,188,29,153,41,57,132,99,19,144,67,17,122,93,0,47,74,75,154,121,73,1,146,101,66,45,62,131,36,98,155,197,87,172,176,159,111,147,7,59,123,26,112,137,165,46,2,38,180,110,34,14,97,24,43,171,120,156,96,32,151,51,12,70,52,136,4,150,162,69,139,33,184,186,130,85,48,65,166,118,194,161,9,149,193,60,81,71,106,152,13,179,5,168,95,56,100,174,143,195,6,50,116,20,72,49,157,83,42,181,28,119,124,40,187,140,133,109,94,21,84,145,182,164,90,148,27,39,30,37,192,135,175,15,16,23,177,185,107,167,82,91,22,105,53,115,126,68,142,80,178,189,138,25,158,102,63,35,160,11,86,113,170,79,88,76,173,3,64,10,196,58,108,125,44,78]","arrowright","0","13","33","200","[""0007_N0200_K0033_NOCLIQUE"",""0063_N0200_K0033_CLIQUE""]","true"
"","audio-keyboard-response","174","665874","0.0-65.3-0.3-1.3","","","","","","","","","","","","","","","","","","null","audio_feedback/right/coin01.mp3","null","","","0","13","33","200","[""0007_N0200_K0033_NOCLIQUE"",""0063_N0200_K0033_CLIQUE""]",""
"","canvas-keyboard-response","175","666456","0.0-66.0-0.0-0.0","","","","","","","","","","","","","","","","","","573",""," ","[101,60,29,72,25,87,182,97,83,146,171,34,174,113,190,107,64,173,143,59,115,139,99,167,81,0,150,138,2,137,57,85,42,69,120,35,166,116,170,154,157,104,93,10,50,45,76,163,67,36,84,89,7,183,103,24,71,161,94,30,129,48,96,63,66,49,58,148,82,18,86,175,151,40,12,126,38,31,80,188,142,185,147,123,11,51,144,90,180,131,181,32,160,127,125,95,141,165,62,134,195,73,102,17,197,37,33,78,92,46,117,198,28,8,47,55,192,77,39,124,179,189,53,20,23,112,152,52,187,14,145,186,122,118,1,100,19,22,155,13,193,178,191,98,111,169,176,136,21,74,79,3,162,41,135,199,65,43,172,56,149,106,140,61,70,105,110,158,196,6,194,27,177,184,168,16,128,68,121,44,54,119,5,108,88,109,26,132,4,130,133,15,156,91,9,153,75,159,114,164]","arrowleft","0","14","30","200","[""0008_N0200_K0030_CLIQUE"",""0090_N0200_K0030_NOCLIQUE""]",""
"","audio-keyboard-response","176","667535","0.0-66.0-0.0-1.0","","","","","","","","","","","","","","","","","","null","audio_feedback/shuffles/shuffle01.mp3","null","","","0","14","30","200","[""0008_N0200_K0030_CLIQUE"",""0090_N0200_K0030_NOCLIQUE""]",""
"","canvas-keyboard-response","177","668486","0.0-66.1-0.1-0.1","","","","","","","","","","","","","","","","","","942",""," ","[192,81,24,136,109,108,118,48,163,72,139,186,168,199,54,177,94,184,70,30,167,67,124,61,95,83,150,188,68,75,176,79,162,27,157,185,102,190,64,197,99,181,97,131,153,7,59,85,16,42,62,145,144,189,165,180,1,43,22,32,132,13,107,198,33,89,31,141,20,160,23,25,122,171,19,3,46,4,29,35,53,55,187,47,100,120,40,91,15,9,10,116,88,151,38,44,82,93,63,166,18,115,125,164,39,123,169,127,178,170,142,71,113,154,146,121,34,193,143,41,129,112,57,182,52,87,149,14,173,92,60,101,17,74,103,58,76,73,195,78,134,84,80,49,6,50,5,0,26,155,66,135,106,37,137,90,159,138,36,161,51,69,98,172,11,65,179,21,86,183,175,114,191,119,152,96,56,194,148,140,196,12,77,174,28,156,110,133,117,8,130,128,105,111,2,45,126,158,104,147]","arrowleft","0","14","30","200","[""0008_N0200_K0030_CLIQUE"",""0090_N0200_K0030_NOCLIQUE""]",""
"","audio-keyboard-response","178","669554","0.0-66.1-0.1-1.1","","","","","","","","","","","","","","","","","","null","audio_feedback/shuffles/shuffle01.mp3","null","","","0","14","30","200","[""0008_N0200_K0030_CLIQUE"",""0090_N0200_K0030_NOCLIQUE""]",""
"","canvas-keyboard-response","179","670720","0.0-66.2-0.2-0.2","","","","","","","","","","","","","","","","","","1156",""," ","[116,177,53,157,160,158,146,45,68,66,104,47,49,88,193,43,72,33,120,2,83,82,195,139,144,112,76,186,20,105,32,29,40,91,64,173,103,100,60,24,192,113,19,117,31,79,191,48,26,166,175,17,52,187,121,3,154,198,101,119,161,131,44,145,92,194,147,199,118,148,42,128,58,163,65,73,75,39,10,141,155,153,165,99,168,159,13,108,94,143,87,21,7,97,150,151,172,169,38,182,190,84,23,9,106,149,111,14,81,18,12,70,67,74,96,167,51,86,115,114,90,78,46,178,107,134,124,77,22,35,140,164,41,1,5,34,36,179,54,180,126,184,93,133,171,27,80,61,189,123,69,4,162,6,142,63,132,137,11,25,125,28,127,183,188,136,181,50,109,59,55,16,62,98,185,71,110,174,129,15,138,30,85,56,122,130,176,196,156,95,37,152,57,197,135,89,170,0,8,102]","arrowleft","0","14","30","200","[""0008_N0200_K0030_CLIQUE"",""0090_N0200_K0030_NOCLIQUE""]",""
"","audio-keyboard-response","180","671794","0.0-66.2-0.2-1.2","","","","","","","","","","","","","","","","","","null","audio_feedback/shuffles/shuffle01.mp3","null","","","0","14","30","200","[""0008_N0200_K0030_CLIQUE"",""0090_N0200_K0030_NOCLIQUE""]",""
"","canvas-keyboard-response","181","672472","0.0-66.3-0.3-0.3","","","","","","","","","","","","","","","","","","670",""," ","[140,188,80,91,160,6,173,111,189,72,78,56,98,166,163,181,127,61,180,190,124,104,155,121,36,176,165,133,35,157,94,159,73,49,100,96,99,5,30,134,142,184,187,149,148,131,25,27,0,22,84,185,117,144,141,18,132,88,53,123,115,145,102,154,197,169,4,92,146,156,90,179,85,89,125,128,50,9,8,191,62,15,76,3,112,14,83,46,58,34,122,183,24,120,86,195,16,162,164,186,41,119,60,130,71,196,1,11,77,172,52,17,103,31,74,152,161,139,37,113,69,138,19,66,151,70,42,97,182,93,177,28,107,57,81,114,175,150,75,126,10,109,47,33,136,105,147,167,137,170,51,39,63,168,95,38,68,2,108,101,65,20,143,106,12,198,7,45,59,40,48,13,153,192,44,87,21,116,199,23,171,129,82,67,55,118,26,178,79,193,32,158,54,194,64,110,174,135,29,43]","arrowleft","0","14","30","200","[""0008_N0200_K0030_CLIQUE"",""0090_N0200_K0030_NOCLIQUE""]",""
"","audio-keyboard-response","182","673535","0.0-66.3-0.3-1.3","","","","","","","","","","","","","","","","","","null","audio_feedback/shuffles/shuffle01.mp3","null","","","0","14","30","200","[""0008_N0200_K0030_CLIQUE"",""0090_N0200_K0030_NOCLIQUE""]",""
"","canvas-keyboard-response","183","674218","0.0-66.4-0.4-0.4","","","","","","","","","","","","","","","","","","671",""," ","[179,78,51,195,187,140,161,148,181,137,139,126,131,92,149,93,129,84,88,166,117,151,194,68,160,62,69,63,105,27,173,59,57,98,192,29,17,171,44,130,10,110,162,103,58,13,107,175,96,32,165,15,182,153,199,76,97,26,75,67,113,146,138,178,30,16,7,185,66,112,101,186,142,159,3,167,91,70,191,156,119,47,125,79,85,28,118,189,158,37,163,89,31,132,8,22,134,135,183,74,143,133,180,141,108,72,168,100,80,136,164,19,42,60,197,23,120,114,104,54,170,124,116,188,169,82,73,86,14,18,190,157,144,128,81,43,4,6,34,33,20,90,115,71,25,11,1,87,24,55,174,193,111,172,35,123,198,45,83,39,122,9,145,49,53,0,106,177,65,52,184,99,41,152,40,21,95,176,64,50,46,150,154,12,48,36,147,94,109,155,121,77,2,127,196,38,56,61,5,102]","arrowleft","0","14","30","200","[""0008_N0200_K0030_CLIQUE"",""0090_N0200_K0030_NOCLIQUE""]",""
"","audio-keyboard-response","184","675294","0.0-66.4-0.4-1.4","","","","","","","","","","","","","","","","","","null","audio_feedback/shuffles/shuffle01.mp3","null","","","0","14","30","200","[""0008_N0200_K0030_CLIQUE"",""0090_N0200_K0030_NOCLIQUE""]",""
"","canvas-keyboard-response","185","676020","0.0-66.5-0.5-0.5","","","","","","","","","","","","","","","","","","715",""," ","[120,28,166,193,135,155,87,36,160,110,0,134,173,158,145,53,68,34,168,186,22,128,37,16,191,187,52,192,184,141,179,56,124,131,118,30,64,92,129,99,2,108,198,18,46,106,150,185,20,122,82,66,157,127,27,171,113,24,55,42,58,59,17,33,172,77,31,199,147,139,73,119,51,97,101,159,60,126,153,163,181,152,95,197,90,32,174,130,88,94,8,78,109,98,4,175,103,79,39,40,23,143,100,41,12,69,156,84,62,102,86,183,1,117,74,149,72,7,190,188,194,48,180,63,154,54,76,9,89,176,19,112,196,121,49,80,96,164,114,146,71,137,165,115,123,81,14,26,148,38,65,50,93,111,169,136,195,105,132,167,67,178,44,138,116,125,75,35,83,3,21,10,57,13,107,61,25,133,85,177,15,43,104,6,151,140,47,142,182,29,189,11,144,91,70,5,45,162,170,161]","arrowleft","0","14","30","200","[""0008_N0200_K0030_CLIQUE"",""0090_N0200_K0030_NOCLIQUE""]",""
"","audio-keyboard-response","186","677094","0.0-66.5-0.5-1.5","","","","","","","","","","","","","","","","","","null","audio_feedback/shuffles/shuffle01.mp3","null","","","0","14","30","200","[""0008_N0200_K0030_CLIQUE"",""0090_N0200_K0030_NOCLIQUE""]",""
"","canvas-keyboard-response","187","678222","0.0-66.6-0.6-0.6","","","","","","","","","","","","","","","","","","1117",""," ","[3,40,48,119,143,132,38,5,128,51,123,13,114,24,164,21,34,18,15,181,149,102,122,25,12,167,43,190,196,53,186,187,1,92,150,19,73,49,26,101,140,145,83,103,137,176,194,142,60,11,192,23,111,131,135,139,47,65,46,91,168,79,99,179,107,8,165,115,125,157,172,4,113,104,76,152,106,14,30,6,86,151,161,154,55,77,110,20,141,82,163,160,0,158,42,90,117,63,166,198,130,84,44,153,191,170,184,10,173,112,148,70,31,29,121,162,94,71,64,199,80,69,175,16,98,7,169,56,54,193,28,120,188,100,45,32,85,155,124,159,67,138,75,108,62,185,178,57,58,52,68,35,17,180,144,81,126,37,134,182,39,156,61,118,183,189,78,59,116,22,109,136,41,95,127,33,2,195,197,97,9,133,105,74,88,177,36,50,66,129,146,87,89,171,93,96,72,27,147,174]","arrowleft","0","14","30","200","[""0008_N0200_K0030_CLIQUE"",""0090_N0200_K0030_NOCLIQUE""]",""
"","audio-keyboard-response","188","679294","0.0-66.6-0.6-1.6","","","","","","","","","","","","","","","","","","null","audio_feedback/shuffles/shuffle01.mp3","null","","","0","14","30","200","[""0008_N0200_K0030_CLIQUE"",""0090_N0200_K0030_NOCLIQUE""]",""
"","canvas-keyboard-response","189","679639","0.0-66.7-0.7-0.7","","","","","","","","","","","","","","","","","","336","","arrowright","[20,89,193,91,132,72,10,122,59,115,141,192,1,55,149,159,52,17,191,32,22,71,180,121,133,108,66,188,171,136,131,7,186,33,151,56,116,48,39,106,51,21,167,13,70,197,29,2,42,9,35,34,198,189,58,4,27,49,148,142,65,168,140,117,162,8,110,69,79,19,77,194,196,107,93,128,164,109,81,76,118,147,152,165,0,146,120,53,99,135,90,44,173,190,3,111,125,113,97,139,87,78,137,37,40,187,102,16,46,86,182,155,18,67,74,88,129,54,98,158,145,170,199,156,124,45,24,25,169,36,104,127,80,83,119,163,166,179,23,30,11,160,114,85,61,101,174,6,195,43,154,144,161,138,84,38,112,75,175,95,64,157,60,177,130,68,47,103,181,185,73,176,28,126,63,92,14,41,94,184,172,178,183,96,62,50,105,153,5,12,26,82,15,143,31,57,150,134,100,123]","arrowleft","0","14","30","200","[""0008_N0200_K0030_CLIQUE"",""0090_N0200_K0030_NOCLIQUE""]","false"
"","audio-keyboard-response","190","680634","0.0-66.7-0.7-1.7","","","","","","","","","","","","","","","","","","null","audio_feedback/wrong/error01.mp3","null","","","0","14","30","200","[""0008_N0200_K0030_CLIQUE"",""0090_N0200_K0030_NOCLIQUE""]",""
"","canvas-keyboard-response","191","681203","0.0-67.0-0.0-0.0","","","","","","","","","","","","","","","","","","561",""," ","[84,182,196,158,164,136,76,53,74,8,110,160,6,197,123,177,137,195,169,0,120,143,184,104,173,82,57,80,163,153,12,168,130,109,15,142,86,139,180,69,108,42,2,172,71,152,50,88,133,19,45,174,79,125,24,27,135,37,94,39,34,147,121,72,65,4,146,111,98,38,81,191,47,187,25,157,77,115,166,46,114,92,112,107,155,185,134,145,91,126,193,181,97,5,124,62,70,199,105,30,149,179,122,165,64,138,131,141,67,22,18,35,3,159,85,170,7,175,59,48,36,162,192,100,11,31,17,28,33,32,16,150,83,21,60,68,41,127,102,118,183,43,54,186,23,1,29,151,171,89,75,101,99,161,49,51,93,198,113,190,128,95,87,61,188,194,90,129,13,189,55,148,132,154,9,103,40,52,58,119,10,156,117,63,56,26,106,73,144,96,178,116,78,44,66,14,20,140,167,176]","arrowright","0","15","30","200","[""0011_N0200_K0030_NOCLIQUE"",""0028_N0200_K0030_CLIQUE""]",""
"","audio-keyboard-response","192","682274","0.0-67.0-0.0-1.0","","","","","","","","","","","","","","","","","","null","audio_feedback/shuffles/shuffle01.mp3","null","","","0","15","30","200","[""0011_N0200_K0030_NOCLIQUE"",""0028_N0200_K0030_CLIQUE""]",""
