"value","trial_type","trial_index","time_elapsed","internal_node_id","width","height","webaudio","browser","browser_version","mobile","os","fullscreen","vsync_rate","webcam","microphone","success","timeout","failed_images","failed_audio","failed_video","view_history","rt","stimulus","response","nodes_order","correct_response","block_index","presentation_index","clique_size","graph_size","graphs_names","correct"
"","call-function","0","0","0.0-0.0","","","","","","","","","","","","","","","","","","","","","","","","","","","",""
"","browser-check","1","987","0.0-1.0","1536","695","true","chrome","132.0.0","false","Windows 10","true","60.99","true","true","","","","","","","","","","","","","","","","",""
"","preload","2","1039","0.0-2.0","","","","","","","","","","","","true","false","[]","[]","[]","","","","","","","","","","","",""
"","pavlovia","3","1509","0.0-3.0","","","","","","","","","","","","","","","","","","","","","","","","","","","",""
"","instructions","4","155155","0.0-4.0","","","","","","","","","","","","","","","","","[{""page_index"":0,""viewing_time"":4045},{""page_index"":1,""viewing_time"":149597}]","153642","","","","","","","","","",""
"","html-keyboard-response","5","178870","0.0-5.0-0.0","","","","","","","","","","","","","","","","","","23712","By accepting to participate in this study, you confirm:
                <p style='text-align:left'>
                    - That I have carefully read the explanations regarding this study and the entire experimental procedure;<br>
                    - That I have been informed about the aims and objectives of this research;<br>
                    - That I am aware of the inconveniences, if any, caused by the experiment;<br>
                    - That I have received satisfactory assurances regarding the confidentiality of the information obtained from the examination of my own person; <br>
                    - That I am aware that I can withdraw at any stage of the study.
                <p>
                <span style=""color: #808080"">
                    Press [Y] to <strong>accept</strong>.
                </span> <br>
                <span style=""color: #808080"">
                    Press [N] to <strong>refuse</strong>.
                </span>","y","","","","","","","",""
"","survey-html-form","6","193142","0.0-6.0","","","","","","","","","","","","","","","","","","14252","","{""gender"":""male"",""age"":""19""}","","","","","","","",""
"","preload","7","198628","0.0-7.0","","","","","","","","","","","","true","false","[]","[]","[]","","","","","","","","","","","",""
"","instructions","8","778839","0.0-8.0","","","","","","","","","","","","","","","","","[{""page_index"":0,""viewing_time"":27606},{""page_index"":1,""viewing_time"":26149},{""page_index"":2,""viewing_time"":4879},{""page_index"":3,""viewing_time"":15119},{""page_index"":4,""viewing_time"":12298},{""page_index"":5,""viewing_time"":9605},{""page_index"":6,""viewing_time"":168544},{""page_index"":7,""viewing_time"":642},{""page_index"":8,""viewing_time"":504},{""page_index"":9,""viewing_time"":9155},{""page_index"":10,""viewing_time"":23},{""page_index"":11,""viewing_time"":3685},{""page_index"":12,""viewing_time"":4709},{""page_index"":13,""viewing_time"":2368},{""page_index"":12,""viewing_time"":1466},{""page_index"":13,""viewing_time"":234},{""page_index"":14,""viewing_time"":4166},{""page_index"":15,""viewing_time"":2251},{""page_index"":14,""viewing_time"":931},{""page_index"":15,""viewing_time"":1750},{""page_index"":16,""viewing_time"":3943},{""page_index"":17,""viewing_time"":2840},{""page_index"":18,""viewing_time"":1047},{""page_index"":19,""viewing_time"":2876},{""page_index"":20,""viewing_time"":1272},{""page_index"":21,""viewing_time"":2174},{""page_index"":22,""viewing_time"":7453},{""page_index"":23,""viewing_time"":2908},{""page_index"":24,""viewing_time"":11756},{""page_index"":25,""viewing_time"":1928},{""page_index"":24,""viewing_time"":1801},{""page_index"":25,""viewing_time"":650},{""page_index"":26,""viewing_time"":4087},{""page_index"":25,""viewing_time"":986},{""page_index"":26,""viewing_time"":1412},{""page_index"":25,""viewing_time"":688},{""page_index"":26,""viewing_time"":733},{""page_index"":27,""viewing_time"":9812},{""page_index"":28,""viewing_time"":4852},{""page_index"":27,""viewing_time"":807},{""page_index"":28,""viewing_time"":2160},{""page_index"":27,""viewing_time"":502},{""page_index"":28,""viewing_time"":795},{""page_index"":27,""viewing_time"":400},{""page_index"":28,""viewing_time"":6404},{""page_index"":29,""viewing_time"":6479},{""page_index"":30,""viewing_time"":2183},{""page_index"":29,""viewing_time"":294},{""page_index"":28,""viewing_time"":346},{""page_index"":27,""viewing_time"":888},{""page_index"":28,""viewing_time"":1255},{""page_index"":27,""viewing_time"":566},{""page_index"":28,""viewing_time"":523},{""page_index"":27,""viewing_time"":376},{""page_index"":28,""viewing_time"":367},{""page_index"":27,""viewing_time"":419},{""page_index"":28,""viewing_time"":4674},{""page_index"":29,""viewing_time"":663},{""page_index"":28,""viewing_time"":407},{""page_index"":29,""viewing_time"":678},{""page_index"":30,""viewing_time"":11689},{""page_index"":31,""viewing_time"":4542},{""page_index"":32,""viewing_time"":19968},{""page_index"":33,""viewing_time"":7170},{""page_index"":34,""viewing_time"":7155},{""page_index"":35,""viewing_time"":22450},{""page_index"":36,""viewing_time"":4734},{""page_index"":37,""viewing_time"":5667},{""page_index"":36,""viewing_time"":402},{""page_index"":37,""viewing_time"":291},{""page_index"":36,""viewing_time"":240},{""page_index"":37,""viewing_time"":312},{""page_index"":36,""viewing_time"":203},{""page_index"":37,""viewing_time"":206},{""page_index"":36,""viewing_time"":177},{""page_index"":37,""viewing_time"":130},{""page_index"":36,""viewing_time"":173},{""page_index"":37,""viewing_time"":134},{""page_index"":36,""viewing_time"":151},{""page_index"":37,""viewing_time"":153},{""page_index"":36,""viewing_time"":146},{""page_index"":37,""viewing_time"":137},{""page_index"":36,""viewing_time"":147},{""page_index"":37,""viewing_time"":134},{""page_index"":36,""viewing_time"":170},{""page_index"":37,""viewing_time"":115},{""page_index"":36,""viewing_time"":215},{""page_index"":37,""viewing_time"":141},{""page_index"":36,""viewing_time"":173},{""page_index"":37,""viewing_time"":339},{""page_index"":38,""viewing_time"":152},{""page_index"":37,""viewing_time"":187},{""page_index"":38,""viewing_time"":149},{""page_index"":37,""viewing_time"":137},{""page_index"":38,""viewing_time"":336},{""page_index"":39,""viewing_time"":419},{""page_index"":40,""viewing_time"":272},{""page_index"":39,""viewing_time"":211},{""page_index"":38,""viewing_time"":441},{""page_index"":39,""viewing_time"":262},{""page_index"":38,""viewing_time"":405},{""page_index"":37,""viewing_time"":299},{""page_index"":38,""viewing_time"":231},{""page_index"":37,""viewing_time"":178},{""page_index"":38,""viewing_time"":154},{""page_index"":37,""viewing_time"":30},{""page_index"":36,""viewing_time"":147},{""page_index"":37,""viewing_time"":3243},{""page_index"":38,""viewing_time"":4965},{""page_index"":39,""viewing_time"":784},{""page_index"":38,""viewing_time"":182},{""page_index"":39,""viewing_time"":342},{""page_index"":40,""viewing_time"":1204},{""page_index"":39,""viewing_time"":324},{""page_index"":38,""viewing_time"":350},{""page_index"":39,""viewing_time"":4343},{""page_index"":40,""viewing_time"":4666},{""page_index"":41,""viewing_time"":417},{""page_index"":42,""viewing_time"":567},{""page_index"":41,""viewing_time"":1367},{""page_index"":42,""viewing_time"":9670},{""page_index"":43,""viewing_time"":13719},{""page_index"":44,""viewing_time"":12670},{""page_index"":45,""viewing_time"":13224},{""page_index"":46,""viewing_time"":5208},{""page_index"":47,""viewing_time"":1698},{""page_index"":46,""viewing_time"":5047},{""page_index"":47,""viewing_time"":3530},{""page_index"":48,""viewing_time"":3020},{""page_index"":49,""viewing_time"":3345},{""page_index"":50,""viewing_time"":2345},{""page_index"":51,""viewing_time"":1827}]","580211","","","","","","","","","",""
"","instructions","9","793129","0.0-9.0","","","","","","","","","","","","","","","","","[{""page_index"":0,""viewing_time"":14288}]","14289","","","","","","","","","",""
"","preload","10","793952","0.0-10.0","","","","","","","","","","","","true","false","[]","[]","[]","","","","","","","","","","","",""
"","image-keyboard-response","11","806326","0.0-11.0","","","","","","","","","","","","","","","","","","12371","tutorial/p_reduce/task_familiarization_images/part 1/01_N160_K90_cliqueRight_question1.PNG"," ","","","","","","","",""
"","image-keyboard-response","12","807287","0.0-12.0","","","","","","","","","","","","","","","","","","959","tutorial/p_reduce/task_familiarization_images/part 1/02_N160_K90_cliqueRight_question2.PNG"," ","","","","","","","",""
"","image-keyboard-response","13","823137","0.0-13.0","","","","","","","","","","","","","","","","","","15848","tutorial/p_reduce/task_familiarization_images/part 1/03_N160_K90_cliqueRight_question3.PNG","arrowright","","","","","","","",""
"","image-keyboard-response","14","828506","0.0-14.0","","","","","","","","","","","","","","","","","","5368","tutorial/p_reduce/task_familiarization_images/part 1/04_N160_K90_cliqueRight_solution.PNG"," ","","","","","","","",""
"","image-keyboard-response","15","834272","0.0-15.0","","","","","","","","","","","","","","","","","","5765","tutorial/p_reduce/task_familiarization_images/part 1/05_N160_K65_cliqueRight_question1.PNG"," ","","","","","","","",""
"","image-keyboard-response","16","847499","0.0-16.0","","","","","","","","","","","","","","","","","","13225","tutorial/p_reduce/task_familiarization_images/part 1/06_N160_K65_cliqueRight_question2.PNG"," ","","","","","","","",""
"","image-keyboard-response","17","849038","0.0-17.0","","","","","","","","","","","","","","","","","","1537","tutorial/p_reduce/task_familiarization_images/part 1/07_N160_K65_cliqueRight_question3.PNG","arrowright","","","","","","","",""
"","image-keyboard-response","18","851888","0.0-18.0","","","","","","","","","","","","","","","","","","2848","tutorial/p_reduce/task_familiarization_images/part 1/08_N160_K65_cliqueRight_solution.PNG"," ","","","","","","","",""
"","image-keyboard-response","19","857249","0.0-19.0","","","","","","","","","","","","","","","","","","5359","tutorial/p_reduce/task_familiarization_images/part 1/09_N160_K50_cliqueLeft_question1.PNG"," ","","","","","","","",""
"","image-keyboard-response","20","860021","0.0-20.0","","","","","","","","","","","","","","","","","","2770","tutorial/p_reduce/task_familiarization_images/part 1/10_N160_K50_cliqueLeft_question2.PNG"," ","","","","","","","",""
"","image-keyboard-response","21","861563","0.0-21.0","","","","","","","","","","","","","","","","","","1540","tutorial/p_reduce/task_familiarization_images/part 1/11_N160_K50_cliqueLeft_question3.PNG","arrowleft","","","","","","","",""
"","image-keyboard-response","22","864740","0.0-22.0","","","","","","","","","","","","","","","","","","3175","tutorial/p_reduce/task_familiarization_images/part 1/12_N160_K50_cliqueLeft_solution.PNG"," ","","","","","","","",""
"","image-keyboard-response","23","868076","0.0-23.0","","","","","","","","","","","","","","","","","","3335","tutorial/p_reduce/task_familiarization_images/part 1/13_N160_K80_cliqueLeft_question1.PNG"," ","","","","","","","",""
"","image-keyboard-response","24","874653","0.0-24.0","","","","","","","","","","","","","","","","","","6575","tutorial/p_reduce/task_familiarization_images/part 1/14_N160_K80_cliqueLeft_question2.PNG"," ","","","","","","","",""
"","image-keyboard-response","25","877497","0.0-25.0","","","","","","","","","","","","","","","","","","2842","tutorial/p_reduce/task_familiarization_images/part 1/15_N160_K80_cliqueLeft_question3.PNG","arrowleft","","","","","","","",""
"","image-keyboard-response","26","879165","0.0-26.0","","","","","","","","","","","","","","","","","","1667","tutorial/p_reduce/task_familiarization_images/part 1/16_N160_K80_cliqueLeft_solution.PNG"," ","","","","","","","",""
"","image-keyboard-response","27","902964","0.0-27.0","","","","","","","","","","","","","","","","","","23798","tutorial/p_reduce/task_familiarization_images/part 1/17_N160_K40_cliqueRight_question1.PNG"," ","","","","","","","",""
"","image-keyboard-response","28","935685","0.0-28.0","","","","","","","","","","","","","","","","","","32719","tutorial/p_reduce/task_familiarization_images/part 1/18_N160_K40_cliqueRight_question2.PNG"," ","","","","","","","",""
"","image-keyboard-response","29","938711","0.0-29.0","","","","","","","","","","","","","","","","","","3025","tutorial/p_reduce/task_familiarization_images/part 1/19_N160_K40_cliqueRight_question3.PNG","arrowleft","","","","","","","",""
"","image-keyboard-response","30","943836","0.0-30.0","","","","","","","","","","","","","","","","","","5123","tutorial/p_reduce/task_familiarization_images/part 1/20_N160_K40_cliqueRight_solution.PNG"," ","","","","","","","",""
"","image-keyboard-response","31","947009","0.0-31.0","","","","","","","","","","","","","","","","","","3171","tutorial/p_reduce/task_familiarization_images/part 1/21_N160_K70_cliqueLeft_question1.PNG"," ","","","","","","","",""
"","image-keyboard-response","32","947984","0.0-32.0","","","","","","","","","","","","","","","","","","974","tutorial/p_reduce/task_familiarization_images/part 1/22_N160_K70_cliqueLeft_question2.PNG"," ","","","","","","","",""
"","image-keyboard-response","33","948720","0.0-33.0","","","","","","","","","","","","","","","","","","735","tutorial/p_reduce/task_familiarization_images/part 1/23_N160_K70_cliqueLeft_question3.PNG","arrowleft","","","","","","","",""
"","image-keyboard-response","34","950092","0.0-34.0","","","","","","","","","","","","","","","","","","1370","tutorial/p_reduce/task_familiarization_images/part 1/24_N160_K70_cliqueLeft_solution.PNG"," ","","","","","","","",""
"","preload","35","950633","0.0-35.0","","","","","","","","","","","","true","false","[]","[]","[]","","","","","","","","","","","",""
"","image-keyboard-response","36","968571","0.0-36.0","","","","","","","","","","","","","","","","","","17936","tutorial/p_reduce/task_familiarization_images/part 2/01_N160_K80_cliqueLeft_withFeedback_1.PNG"," ","","","","","","","",""
"","image-keyboard-response","37","970376","0.0-37.0","","","","","","","","","","","","","","","","","","1803","tutorial/p_reduce/task_familiarization_images/part 2/02_N160_K80_cliqueLeft_withFeedback_2.PNG"," ","","","","","","","",""
"","image-keyboard-response","38","972652","0.0-38.0","","","","","","","","","","","","","","","","","","2274","tutorial/p_reduce/task_familiarization_images/part 2/03_N160_K80_cliqueLeft_withFeedback_3.PNG","arrowleft","","","","","","","",""
"","image-keyboard-response","39","976153","0.0-39.0","","","","","","","","","","","","","","","","","","3500","tutorial/p_reduce/task_familiarization_images/part 2/04_N160_K80_cliqueLeft_withFeedback_correct.PNG"," ","","","","","","","",""
"","image-keyboard-response","40","982022","0.0-40.0","","","","","","","","","","","","","","","","","","5867","tutorial/p_reduce/task_familiarization_images/part 2/05_N160_K55_cliqueRight_withFeedback_1.PNG"," ","","","","","","","",""
"","image-keyboard-response","41","983994","0.0-41.0","","","","","","","","","","","","","","","","","","1971","tutorial/p_reduce/task_familiarization_images/part 2/06_N160_K55_cliqueRight_withFeedback_2.PNG"," ","","","","","","","",""
"","image-keyboard-response","42","985398","0.0-42.0","","","","","","","","","","","","","","","","","","1402","tutorial/p_reduce/task_familiarization_images/part 2/07_N160_K55_cliqueRight_withFeedback_3.PNG","arrowright","","","","","","","",""
"","image-keyboard-response","43","990766","0.0-43.0","","","","","","","","","","","","","","","","","","5366","tutorial/p_reduce/task_familiarization_images/part 2/08_N160_K55_cliqueRight_withFeedback_correct.PNG"," ","","","","","","","",""
"","image-keyboard-response","44","998265","0.0-44.0","","","","","","","","","","","","","","","","","","7498","tutorial/p_reduce/task_familiarization_images/part 2/09_N160_K70_cliqueLeft_withFeedback_1.PNG"," ","","","","","","","",""
"","image-keyboard-response","45","999161","0.0-45.0","","","","","","","","","","","","","","","","","","895","tutorial/p_reduce/task_familiarization_images/part 2/10_N160_K70_cliqueLeft_withFeedback_2.PNG"," ","","","","","","","",""
"","image-keyboard-response","46","999706","0.0-46.0","","","","","","","","","","","","","","","","","","544","tutorial/p_reduce/task_familiarization_images/part 2/11_N160_K70_cliqueLeft_withFeedback_3.PNG","arrowleft","","","","","","","",""
"","image-keyboard-response","47","1002410","0.0-47.0","","","","","","","","","","","","","","","","","","2702","tutorial/p_reduce/task_familiarization_images/part 2/12_N160_K70_cliqueLeft_withFeedback_correct.PNG"," ","","","","","","","",""
"","preload","48","1002697","0.0-48.0","","","","","","","","","","","","true","false","[]","[]","[]","","","","","","","","","","","",""
"","instructions","49","1063525","0.0-49.0","","","","","","","","","","","","","","","","","[{""page_index"":0,""viewing_time"":60827}]","60828","","","","","","","","","",""
"","fullscreen","50","1068357","0.0-51.0","","","","","","","","","","","","true","","","","","","","","","","","","","","","",""
"","canvas-keyboard-response","51","1073641","0.0-52.0-0.0-0.0","","","","","","","","","","","","","","","","","","5154",""," ","[77,237,308,199,457,201,405,447,202,177,381,154,55,156,70,117,439,429,185,91,41,102,342,411,305,120,163,425,239,204,23,191,386,223,416,448,36,393,330,421,37,1,116,398,110,382,69,466,281,310,203,463,266,291,423,352,208,278,190,66,108,27,85,254,458,307,341,359,435,9,449,105,93,75,256,166,180,57,90,195,417,232,327,301,34,115,285,123,162,356,377,415,464,347,82,76,445,296,322,461,15,299,143,261,47,140,255,219,141,31,460,251,437,104,207,233,434,118,43,479,318,392,241,380,385,446,35,378,137,187,403,2,373,366,407,389,174,247,160,338,273,409,183,111,64,248,236,107,454,14,414,467,288,97,353,258,450,471,420,343,215,89,158,282,300,59,394,453,336,94,345,317,24,132,351,242,79,129,155,209,211,67,311,369,444,400,150,176,198,234,391,260,210,51,101,56,53,432,145,354,422,81,32,40,292,253,376,171,4,263,38,331,419,6,50,189,368,226,396,8,395,312,478,290,428,227,328,95,74,302,360,408,99,86,109,192,379,452,362,19,355,459,333,26,169,427,265,148,73,412,84,250,147,131,228,387,157,271,451,264,344,231,326,196,315,60,297,230,323,217,358,218,270,214,324,235,12,22,216,128,314,178,390,298,96,361,367,462,316,134,121,257,364,168,402,159,363,153,221,20,25,103,193,16,29,54,277,470,142,325,224,58,321,161,186,319,113,139,7,289,10,92,212,440,404,372,197,130,124,474,375,72,293,245,243,472,122,329,182,63,294,313,119,106,286,348,30,280,165,475,418,175,21,126,167,45,304,337,406,426,295,0,339,184,33,438,83,284,252,144,205,433,477,397,87,275,151,465,306,238,68,42,476,3,125,194,334,188,309,88,46,11,28,220,114,18,246,468,442,350,410,269,98,335,146,170,213,473,136,436,455,399,365,268,443,259,71,112,430,283,78,48,222,401,267,65,249,135,431,164,44,374,39,181,279,370,80,229,383,179,346,152,413,49,371,303,384,149,456,388,172,349,5,469,240,13,225,127,332,276,262,61,62,52,340,200,133,173,287,206,100,272,17,244,441,138,424,320,274,357]","arrowleft","0","0","144","480","[""0054_N0480_K0144_CLIQUE"",""0044_N0480_K0144_NOCLIQUE""]",""
"","audio-keyboard-response","52","1075577","0.0-52.0-0.0-1.0","","","","","","","","","","","","","","","","","","null","audio_feedback/shuffles/shuffle01.mp3","null","","","0","0","144","480","[""0054_N0480_K0144_CLIQUE"",""0044_N0480_K0144_NOCLIQUE""]",""
"","canvas-keyboard-response","53","1077448","0.0-52.1-0.1-0.1","","","","","","","","","","","","","","","","","","1732",""," ","[0,85,352,469,186,447,57,84,395,110,40,20,453,456,139,170,189,466,285,371,300,462,436,17,293,52,246,374,89,204,411,336,164,208,205,163,264,256,4,185,162,45,277,269,22,231,141,454,438,416,50,31,196,271,54,43,167,326,430,461,133,407,109,354,321,251,310,195,157,124,420,35,339,220,21,393,325,119,188,158,412,389,467,263,364,169,69,112,176,308,358,13,440,451,11,235,353,306,221,7,344,247,216,96,327,329,194,443,213,390,148,275,39,77,242,219,279,207,320,228,81,388,262,432,355,449,340,234,70,47,351,368,236,283,267,210,222,360,75,331,357,67,226,101,410,153,284,203,307,460,145,29,94,95,433,93,338,394,30,318,171,479,455,468,26,76,174,72,347,146,452,230,476,253,401,290,91,27,117,103,111,399,211,286,261,376,184,62,175,165,187,172,304,319,152,408,168,83,1,28,250,334,266,314,439,136,8,299,268,335,426,437,383,233,245,366,214,178,392,238,458,403,342,202,140,131,380,197,147,429,324,144,64,254,291,424,274,125,33,343,405,130,379,240,105,215,404,375,465,425,378,181,10,46,223,312,370,361,421,337,301,161,381,448,159,107,427,132,74,294,323,349,149,92,478,292,463,151,345,156,373,49,18,241,330,356,192,311,193,80,128,173,134,248,190,98,386,122,206,5,473,183,471,15,135,252,38,115,155,350,415,265,402,104,387,397,377,442,243,180,398,41,400,382,88,229,137,477,450,87,9,434,182,457,273,278,37,108,2,446,288,32,71,53,6,129,73,431,315,36,472,305,78,66,16,59,99,160,126,309,97,123,316,118,365,179,258,100,138,470,201,200,367,422,121,199,298,475,303,79,42,82,58,120,150,65,396,239,218,227,295,90,61,198,55,296,51,114,14,177,237,212,359,417,127,12,68,249,191,143,48,464,225,444,302,287,281,56,418,384,25,272,332,423,255,106,259,166,409,232,341,257,414,333,260,313,362,413,142,441,346,385,406,60,217,372,113,44,391,276,317,34,244,102,459,428,116,270,224,419,3,289,474,328,209,19,23,445,282,369,363,435,63,348,154,322,297,86,280,24]","arrowleft","0","0","144","480","[""0054_N0480_K0144_CLIQUE"",""0044_N0480_K0144_NOCLIQUE""]",""
"","audio-keyboard-response","54","1078537","0.0-52.1-0.1-1.1","","","","","","","","","","","","","","","","","","null","audio_feedback/shuffles/shuffle01.mp3","null","","","0","0","144","480","[""0054_N0480_K0144_CLIQUE"",""0044_N0480_K0144_NOCLIQUE""]",""
"","canvas-keyboard-response","55","1080837","0.0-52.2-0.2-0.2","","","","","","","","","","","","","","","","","","1942",""," ","[76,197,259,296,418,85,7,95,148,456,71,178,184,38,431,15,266,468,222,143,255,37,221,190,464,0,86,121,205,406,201,82,361,212,395,413,173,450,107,306,131,72,172,323,158,362,269,61,29,183,176,160,408,252,152,470,192,102,465,81,240,244,471,283,246,430,445,251,207,203,43,329,227,247,133,187,84,75,313,219,48,56,278,466,124,225,273,257,407,64,403,23,309,135,345,138,293,211,416,234,16,204,351,191,161,276,169,392,286,54,105,13,181,411,127,19,59,274,446,324,433,301,26,55,98,179,453,93,92,442,325,365,381,382,214,14,185,281,243,307,132,69,291,20,302,254,12,349,326,359,226,74,264,414,223,270,154,441,356,344,151,52,287,1,452,104,339,337,398,230,27,426,241,369,417,316,272,289,388,202,253,373,50,248,292,40,378,400,171,208,235,195,379,101,125,89,41,424,242,66,150,137,315,460,233,22,448,199,458,357,94,346,370,275,367,108,106,130,139,11,116,401,328,79,31,18,353,189,375,444,36,396,78,437,2,421,67,304,210,142,440,477,117,320,297,129,363,115,429,467,91,8,288,170,385,332,263,145,144,147,80,224,447,256,317,267,188,157,232,215,96,134,140,389,164,167,298,146,478,177,285,312,380,136,58,409,166,391,347,451,479,427,383,410,279,333,449,330,472,206,245,390,360,34,439,218,45,44,310,141,341,454,249,103,53,436,238,194,335,305,457,39,109,6,334,420,60,338,476,70,198,73,364,231,90,112,51,99,32,35,265,374,213,25,443,180,217,258,405,428,10,461,87,5,399,394,455,404,384,28,175,21,438,77,282,30,182,24,216,126,68,336,299,422,327,377,33,261,120,162,100,340,469,462,42,186,62,473,372,459,284,343,366,397,209,435,113,475,228,149,295,163,229,300,47,358,122,368,402,268,128,165,4,159,342,308,318,88,412,434,239,463,111,348,393,110,200,168,3,376,311,354,17,322,57,415,153,97,260,352,423,237,155,280,350,196,65,83,250,174,119,294,355,425,277,118,123,236,371,432,63,271,9,290,220,321,49,46,262,331,474,314,156,303,319,387,114,419,386,193]","arrowleft","0","0","144","480","[""0054_N0480_K0144_CLIQUE"",""0044_N0480_K0144_NOCLIQUE""]",""
"","audio-keyboard-response","56","1081917","0.0-52.2-0.2-1.2","","","","","","","","","","","","","","","","","","null","audio_feedback/shuffles/shuffle01.mp3","null","","","0","0","144","480","[""0054_N0480_K0144_CLIQUE"",""0044_N0480_K0144_NOCLIQUE""]",""
"","canvas-keyboard-response","57","1087219","0.0-52.3-0.3-0.3","","","","","","","","","","","","","","","","","","5195","","arrowleft","[124,122,14,112,401,413,410,269,166,201,458,74,33,291,280,429,103,233,254,312,207,262,244,288,330,461,87,96,217,108,343,216,188,211,249,35,245,402,184,186,185,11,110,232,83,127,31,423,256,374,94,437,281,229,132,426,261,210,101,187,477,197,364,44,153,371,62,198,134,378,48,214,441,130,181,317,455,422,447,353,137,169,141,85,171,116,475,440,397,51,404,3,471,478,272,157,433,107,4,73,390,173,95,106,143,356,226,286,97,270,398,18,114,436,396,36,54,462,12,37,431,176,165,335,194,225,156,149,463,86,451,58,168,227,376,363,277,357,199,432,10,27,150,334,384,325,76,88,268,196,415,59,419,407,183,257,380,252,453,438,417,93,70,424,418,79,282,354,382,389,219,34,301,215,434,142,63,271,223,203,387,408,350,105,224,476,466,26,45,200,164,231,221,98,218,78,154,322,192,295,452,255,89,6,91,464,473,25,180,337,377,283,61,278,128,140,239,446,8,81,236,120,372,56,206,326,465,310,395,144,123,72,315,346,172,40,393,336,305,17,30,340,230,381,449,365,303,266,190,253,38,104,174,155,241,341,392,136,375,299,24,146,117,60,442,133,148,160,388,77,42,47,456,80,161,331,414,242,342,240,16,182,454,23,41,472,358,319,251,366,468,53,459,411,28,314,139,394,159,373,66,324,274,237,178,302,115,444,13,355,9,332,119,298,370,296,145,39,297,204,403,469,113,82,293,57,406,457,126,329,212,222,267,386,348,32,248,100,15,287,0,250,162,209,1,391,52,167,359,479,202,427,99,333,347,234,195,69,2,435,263,328,439,21,67,247,450,213,43,147,259,46,235,360,275,193,205,318,20,470,158,109,368,428,228,307,175,306,385,321,289,320,90,338,421,92,7,179,170,284,474,309,208,445,129,49,362,189,50,68,135,22,152,409,467,75,290,349,5,425,243,304,316,65,276,191,308,294,300,265,279,258,125,177,405,443,460,71,260,430,412,138,246,111,383,379,118,344,327,64,416,361,292,238,29,345,220,285,55,151,102,400,339,163,313,131,420,399,352,351,367,19,273,311,84,323,121,369,264,448]","arrowleft","0","0","144","480","[""0054_N0480_K0144_CLIQUE"",""0044_N0480_K0144_NOCLIQUE""]","true"
"","audio-keyboard-response","58","1088237","0.0-52.3-0.3-1.3","","","","","","","","","","","","","","","","","","null","audio_feedback/right/coin01.mp3","null","","","0","0","144","480","[""0054_N0480_K0144_CLIQUE"",""0044_N0480_K0144_NOCLIQUE""]",""
"","canvas-keyboard-response","59","1095106","0.0-53.0-0.0-0.0","","","","","","","","","","","","","","","","","","6514","","arrowleft","[243,228,60,452,91,109,262,270,281,73,370,58,311,466,182,283,51,462,412,61,421,151,74,252,76,297,411,253,117,287,155,366,441,331,380,217,114,86,240,328,26,56,396,245,440,265,161,37,326,136,135,353,275,157,154,371,305,255,455,274,244,439,417,296,410,404,310,215,360,239,399,341,137,101,39,203,6,463,206,472,286,309,197,78,377,54,191,72,336,414,103,49,141,276,30,5,67,429,142,200,100,110,179,470,299,64,92,129,166,424,66,226,173,345,24,149,389,413,315,158,122,346,267,222,218,116,385,238,363,409,321,227,349,432,374,263,127,214,175,46,35,359,33,454,381,233,464,251,119,307,220,261,47,89,354,44,159,434,118,208,289,176,333,210,320,290,163,189,81,247,128,280,229,248,436,143,438,156,293,334,403,224,449,372,448,162,313,256,167,260,375,322,144,211,115,475,337,387,181,202,471,93,205,236,84,23,212,207,234,27,451,356,352,373,272,99,221,126,298,164,304,450,193,15,382,386,459,186,1,195,395,132,456,139,111,453,2,146,77,257,376,401,335,249,80,71,11,95,43,442,55,147,36,13,16,433,169,398,213,368,3,168,25,301,246,269,183,106,330,98,379,7,338,28,306,400,361,390,364,477,282,474,125,266,419,190,273,428,79,88,140,170,254,332,303,21,292,18,14,82,50,124,96,443,177,38,160,130,445,41,344,327,365,174,415,378,232,138,420,285,317,394,34,187,90,271,316,75,422,59,180,241,48,57,362,65,40,104,172,121,62,20,339,108,357,367,397,402,325,178,268,291,42,479,171,123,437,237,29,22,391,223,312,388,97,69,284,469,201,288,418,225,350,423,427,323,300,384,19,465,87,342,184,145,340,473,444,94,358,242,314,258,259,8,478,431,112,348,294,347,70,458,192,12,0,188,185,308,216,279,133,85,392,355,194,369,393,150,102,264,329,52,63,461,435,53,153,9,457,10,204,105,4,324,120,447,83,198,235,468,230,383,446,17,165,31,199,209,152,278,407,467,45,148,343,219,107,416,318,295,131,68,408,250,460,351,196,405,406,277,430,32,302,426,425,319,476,113,231,134]","arrowleft","0","1","144","480","[""0090_N0480_K0144_CLIQUE"",""0078_N0480_K0144_NOCLIQUE""]","true"
"","audio-keyboard-response","60","1096097","0.0-53.0-0.0-1.0","","","","","","","","","","","","","","","","","","null","audio_feedback/right/coin01.mp3","null","","","0","1","144","480","[""0090_N0480_K0144_CLIQUE"",""0078_N0480_K0144_NOCLIQUE""]",""
"","canvas-keyboard-response","61","1104193","0.0-54.0-0.0-0.0","","","","","","","","","","","","","","","","","","7744",""," ","[303,332,22,10,207,94,28,436,222,346,26,23,9,456,463,352,478,358,224,278,36,154,357,244,1,125,58,267,84,233,121,386,464,73,437,44,246,49,132,32,166,426,31,184,201,227,425,61,76,128,288,123,199,198,51,103,38,250,225,364,106,228,137,210,16,427,172,319,47,46,4,155,408,287,2,398,62,447,131,139,431,119,20,440,444,180,118,414,265,74,387,164,307,170,334,153,182,459,52,439,144,142,204,251,75,256,353,39,25,27,171,322,396,321,193,100,359,412,369,98,283,231,30,472,88,419,285,273,305,382,430,323,167,413,216,416,150,236,301,479,43,466,56,279,77,41,67,197,160,366,277,18,187,78,351,196,97,393,215,470,304,136,429,80,377,313,95,375,418,175,6,384,81,260,71,238,177,113,247,129,269,89,270,230,145,363,428,59,385,407,420,473,162,161,87,109,345,370,318,399,453,362,392,141,373,212,203,138,391,342,124,110,442,240,133,178,298,300,176,291,458,255,441,34,258,101,243,252,406,54,341,183,202,107,328,134,450,209,259,400,454,168,299,66,309,115,188,50,24,53,65,127,195,329,93,64,356,368,174,403,189,79,268,234,60,214,235,63,367,35,122,92,410,42,374,257,156,355,237,452,465,11,340,135,70,68,401,282,229,474,111,7,379,443,327,173,179,390,17,284,83,350,457,315,114,445,143,152,221,86,57,371,376,402,45,248,378,15,220,55,404,295,264,337,85,0,120,388,360,469,348,105,335,274,254,130,292,280,13,102,266,461,72,223,394,219,477,226,261,344,211,148,194,475,347,433,468,432,163,126,37,151,312,48,208,311,389,409,186,421,314,108,169,245,422,200,157,239,117,397,316,460,339,325,99,476,336,383,302,434,140,296,324,29,249,405,232,242,308,262,306,451,158,5,380,40,149,354,14,423,293,263,217,275,448,276,462,12,343,411,190,8,467,286,19,146,159,372,331,435,112,165,289,297,310,381,294,349,326,281,104,424,33,147,96,206,205,191,271,455,317,449,253,241,365,185,213,446,272,330,361,417,91,338,82,69,290,192,395,116,333,3,181,21,438,90,320,415,218,471]","arrowleft","0","2","128","480","[""0068_N0480_K0128_CLIQUE"",""0030_N0480_K0128_NOCLIQUE""]",""
"","audio-keyboard-response","62","1105278","0.0-54.0-0.0-1.0","","","","","","","","","","","","","","","","","","null","audio_feedback/shuffles/shuffle01.mp3","null","","","0","2","128","480","[""0068_N0480_K0128_CLIQUE"",""0030_N0480_K0128_NOCLIQUE""]",""
"","canvas-keyboard-response","63","1107697","0.0-54.1-0.1-0.1","","","","","","","","","","","","","","","","","","2067","","arrowleft","[453,87,193,423,262,66,400,446,23,186,328,240,120,195,82,287,183,1,0,412,394,162,35,138,42,176,305,414,194,139,352,344,301,64,315,381,10,297,123,85,169,248,375,471,437,274,343,197,36,179,282,77,310,272,433,73,285,121,360,136,425,55,417,294,44,61,122,444,351,300,473,336,69,377,322,404,403,479,460,239,119,340,190,312,71,475,152,54,8,442,476,81,14,214,416,211,280,421,311,470,253,338,349,105,356,228,371,95,378,59,256,374,134,236,364,40,266,180,337,153,184,30,407,367,431,102,277,216,9,199,449,88,53,313,293,465,464,50,353,223,83,455,246,326,175,358,405,359,182,159,101,13,107,166,57,51,270,164,143,161,37,244,232,233,317,366,130,387,209,469,28,58,34,110,132,341,70,345,196,380,207,468,419,264,225,213,354,118,458,324,201,200,372,219,330,447,439,283,265,391,290,76,373,115,224,451,245,129,100,203,181,299,384,452,62,448,466,168,321,227,90,457,174,137,206,191,78,41,192,255,263,144,127,11,445,151,346,339,94,269,365,141,309,140,392,188,91,45,260,221,268,198,284,163,173,215,133,350,237,114,79,108,472,111,155,383,275,202,434,89,177,331,218,47,333,254,7,355,368,104,103,292,39,430,148,420,316,156,388,477,396,395,347,427,242,149,165,32,252,4,376,238,93,361,172,426,325,142,72,386,327,398,178,49,18,157,60,422,217,24,234,6,131,99,125,150,251,243,436,208,21,461,289,106,43,205,147,16,369,450,279,459,226,393,160,25,80,146,210,320,27,474,318,109,167,2,456,230,68,5,276,65,231,390,342,112,250,185,19,67,308,298,128,86,413,389,271,307,154,46,220,84,261,204,116,295,435,267,306,241,286,438,3,429,170,409,281,12,74,303,33,98,229,348,96,362,29,408,222,124,467,273,418,397,432,117,15,48,291,171,97,463,26,441,329,406,314,249,399,402,428,258,296,212,247,56,38,158,385,302,323,370,334,63,478,126,288,304,411,22,52,443,382,440,259,415,401,424,75,332,319,145,454,462,20,357,31,17,278,92,410,135,335,257,235,187,113,189,363,379]","arrowleft","0","2","128","480","[""0068_N0480_K0128_CLIQUE"",""0030_N0480_K0128_NOCLIQUE""]","true"
"","audio-keyboard-response","64","1108697","0.0-54.1-0.1-1.1","","","","","","","","","","","","","","","","","","null","audio_feedback/right/coin01.mp3","null","","","0","2","128","480","[""0068_N0480_K0128_CLIQUE"",""0030_N0480_K0128_NOCLIQUE""]",""
"","canvas-keyboard-response","65","1111145","0.0-55.0-0.0-0.0","","","","","","","","","","","","","","","","","","2075",""," ","[83,155,198,234,15,446,397,230,259,365,20,157,268,474,464,206,440,57,469,123,14,251,278,455,382,148,314,318,233,85,89,331,372,47,283,389,229,413,51,277,442,189,106,357,377,175,392,44,246,320,196,386,163,400,10,427,2,203,66,358,426,218,248,454,293,478,362,191,459,219,437,304,284,460,272,90,439,450,313,432,341,445,52,172,213,59,209,54,235,409,287,84,140,438,383,23,457,393,154,326,360,276,286,245,33,300,290,384,193,40,232,136,431,303,105,50,13,336,190,224,217,166,182,43,369,69,48,139,270,425,463,260,195,161,143,92,267,265,220,168,342,231,120,385,422,187,289,261,299,264,351,363,419,458,71,142,210,181,179,46,160,173,174,280,162,334,305,114,115,159,452,42,466,434,262,373,257,236,4,41,116,170,335,113,211,129,338,118,128,402,308,301,21,414,53,207,16,354,297,6,117,67,316,156,337,152,475,39,145,178,197,479,296,380,288,184,424,306,76,0,258,405,228,433,72,38,56,317,324,101,96,60,30,111,329,330,312,323,471,250,133,9,381,214,279,322,78,121,86,62,135,285,292,112,45,269,356,327,223,367,315,352,221,95,368,24,370,12,448,451,332,347,37,91,408,421,68,307,275,227,423,340,167,205,192,109,138,254,378,295,282,359,93,122,8,348,80,339,321,310,473,472,146,82,149,391,395,242,429,201,444,396,164,169,364,226,390,273,238,333,465,99,200,35,29,449,355,150,239,309,417,19,401,70,216,171,87,325,94,274,263,447,194,22,132,81,353,147,441,247,32,418,183,107,131,375,243,88,253,255,64,153,27,127,1,415,252,36,328,212,361,374,476,17,470,137,31,103,350,98,343,462,125,387,420,468,5,271,151,266,97,240,130,65,428,477,302,104,237,225,394,241,256,126,55,388,398,79,141,177,58,215,124,412,349,7,443,461,77,249,25,222,345,61,208,319,26,366,74,410,436,411,110,430,188,185,467,176,407,399,119,28,406,3,165,108,158,75,298,281,102,144,180,11,244,204,379,63,34,371,202,344,376,404,199,456,346,294,18,291,453,134,49,435,186,416,403,311,100,73]","arrowleft","0","3","128","480","[""0008_N0480_K0128_CLIQUE"",""0053_N0480_K0128_NOCLIQUE""]",""
"","audio-keyboard-response","66","1112217","0.0-55.0-0.0-1.0","","","","","","","","","","","","","","","","","","null","audio_feedback/shuffles/shuffle01.mp3","null","","","0","3","128","480","[""0008_N0480_K0128_CLIQUE"",""0053_N0480_K0128_NOCLIQUE""]",""
"","canvas-keyboard-response","67","1115188","0.0-55.1-0.1-0.1","","","","","","","","","","","","","","","","","","2689",""," ","[324,406,86,102,7,181,371,233,363,110,243,310,265,165,161,57,225,71,418,21,290,395,246,398,273,103,349,338,431,248,37,453,157,289,425,360,54,400,317,50,286,116,331,242,364,228,79,247,464,85,470,291,136,415,129,337,24,158,253,93,303,229,108,178,423,215,308,460,241,173,340,394,133,432,277,458,388,78,347,385,301,399,159,335,377,73,180,236,284,223,332,193,275,459,302,146,119,10,185,361,88,11,312,65,114,191,217,463,156,426,109,333,166,123,154,6,413,244,53,45,295,342,304,397,427,151,245,189,479,370,367,461,15,438,144,344,424,80,298,128,23,262,43,36,51,407,77,256,81,321,145,91,403,435,325,127,282,326,320,433,375,316,96,384,25,12,47,356,444,134,1,55,346,467,475,205,278,314,122,393,63,309,408,414,35,353,115,476,401,221,153,471,351,101,0,477,49,227,421,336,112,437,99,285,200,140,368,19,379,372,446,98,348,124,318,3,135,443,147,341,202,416,13,194,357,376,430,451,429,268,292,330,195,219,164,33,41,70,404,44,396,67,249,188,235,141,82,160,132,182,4,449,323,138,106,381,5,143,297,27,56,26,69,279,125,100,130,38,14,231,2,405,149,319,328,52,474,168,90,473,162,121,212,139,222,264,177,380,171,280,378,28,259,66,270,16,343,111,411,412,120,118,288,355,169,72,206,358,276,172,174,410,9,58,152,252,40,75,34,196,267,230,39,434,327,187,255,208,186,148,220,390,374,452,204,240,457,447,76,283,402,211,176,105,184,450,462,59,197,150,307,369,383,163,257,472,18,199,422,155,84,83,167,89,94,294,417,216,440,322,362,92,311,214,274,203,387,250,258,183,210,354,466,239,350,170,296,61,392,313,126,266,104,373,97,455,315,281,175,300,117,465,306,339,142,237,448,107,31,30,8,329,131,269,62,137,95,232,272,226,234,260,287,261,179,68,190,454,352,17,271,293,48,359,345,238,209,198,441,207,224,469,445,192,113,20,428,254,382,420,442,468,74,439,251,409,218,213,365,386,29,201,64,60,299,42,334,32,436,389,391,46,419,305,366,263,456,22,87,478]","arrowleft","0","3","128","480","[""0008_N0480_K0128_CLIQUE"",""0053_N0480_K0128_NOCLIQUE""]",""
"","audio-keyboard-response","68","1116257","0.0-55.1-0.1-1.1","","","","","","","","","","","","","","","","","","null","audio_feedback/shuffles/shuffle01.mp3","null","","","0","3","128","480","[""0008_N0480_K0128_CLIQUE"",""0053_N0480_K0128_NOCLIQUE""]",""
"","canvas-keyboard-response","69","1117812","0.0-55.2-0.2-0.2","","","","","","","","","","","","","","","","","","1194",""," ","[69,408,281,300,28,456,321,382,421,356,449,46,235,257,370,118,256,479,322,378,474,90,122,430,376,333,16,227,92,320,358,38,229,475,104,34,407,249,352,56,97,364,253,431,255,110,141,277,261,160,293,318,329,241,402,163,269,21,452,161,87,139,23,212,185,367,75,340,280,192,288,377,425,460,127,432,77,124,53,450,295,170,237,89,88,284,406,451,301,148,191,72,317,354,328,36,15,274,440,115,182,240,412,304,57,117,439,60,91,213,262,4,234,146,429,186,438,380,147,338,316,116,314,436,414,344,71,390,54,461,326,145,81,11,174,42,177,1,373,418,152,130,252,197,472,258,384,348,5,176,290,413,44,453,228,303,173,134,143,26,423,386,247,58,55,196,232,239,10,276,313,61,100,64,442,184,458,324,40,294,411,428,27,25,157,210,114,193,33,129,8,434,337,226,12,398,219,395,267,172,308,457,86,7,305,312,204,272,270,189,82,266,238,363,214,224,102,403,73,126,388,400,162,68,94,387,0,309,245,9,45,347,156,18,150,307,466,420,153,248,19,47,287,138,52,188,218,216,345,178,323,478,371,285,99,98,168,243,397,131,319,286,260,357,59,236,101,165,441,179,195,467,350,353,187,41,103,13,83,190,399,105,140,468,330,203,342,389,417,271,132,230,201,3,20,435,199,211,310,369,159,381,254,106,169,250,17,379,385,175,311,164,32,251,181,109,202,198,78,470,121,359,80,183,24,409,366,43,79,30,220,289,336,96,351,74,275,471,448,207,332,416,149,477,125,273,2,93,392,447,302,444,396,66,167,65,298,419,405,415,112,135,339,136,426,120,222,22,50,259,464,355,128,372,225,465,445,296,473,84,119,35,231,76,217,194,51,67,85,443,346,205,37,427,154,335,455,297,171,278,215,31,437,263,6,63,200,362,292,113,242,446,291,29,70,158,404,334,394,315,268,223,349,39,166,299,422,209,233,142,180,208,123,306,375,393,244,111,95,221,264,360,325,49,391,343,108,133,155,331,361,454,469,383,401,462,144,137,282,463,459,14,424,48,246,365,374,206,410,151,107,368,327,433,476,283,341,265,279,62]","arrowleft","0","3","128","480","[""0008_N0480_K0128_CLIQUE"",""0053_N0480_K0128_NOCLIQUE""]",""
"","audio-keyboard-response","70","1118877","0.0-55.2-0.2-1.2","","","","","","","","","","","","","","","","","","null","audio_feedback/shuffles/shuffle01.mp3","null","","","0","3","128","480","[""0008_N0480_K0128_CLIQUE"",""0053_N0480_K0128_NOCLIQUE""]",""
"","canvas-keyboard-response","71","1121047","0.0-55.3-0.3-0.3","","","","","","","","","","","","","","","","","","2063","","arrowleft","[53,81,454,238,431,341,226,4,411,160,239,325,111,167,173,327,153,63,362,395,57,155,340,8,140,149,414,333,189,236,13,451,458,352,287,376,170,438,346,42,224,38,277,264,235,259,139,14,115,60,40,64,323,131,424,474,221,475,360,315,279,108,33,353,288,298,302,265,193,143,440,334,198,200,326,217,408,218,281,35,339,300,66,249,359,176,48,289,192,388,61,126,391,245,75,405,445,120,26,2,93,344,275,280,322,377,309,186,87,385,247,307,455,71,130,369,314,444,27,306,273,142,134,203,233,336,270,422,278,204,187,184,118,469,354,305,473,117,90,432,197,141,209,78,211,68,282,20,96,399,479,358,18,285,371,398,16,62,329,101,182,383,426,361,122,161,328,387,194,423,439,124,396,100,229,365,248,462,109,112,477,202,412,465,441,290,452,45,406,471,243,382,86,367,11,76,97,267,23,274,262,7,25,303,342,310,21,366,271,251,10,468,183,201,386,304,390,297,58,15,373,253,137,254,417,348,429,212,372,156,237,12,464,174,244,19,476,56,308,437,210,150,447,250,29,384,461,133,65,123,106,374,79,129,293,470,41,261,67,191,478,330,443,349,206,92,466,255,144,410,99,319,435,402,69,166,463,132,222,113,355,450,394,320,102,400,380,32,1,178,159,24,47,418,286,453,378,171,73,196,446,263,83,291,148,54,338,158,135,50,216,415,85,419,421,252,3,427,162,46,116,225,223,77,103,136,128,260,240,324,190,163,169,318,30,17,449,401,448,364,407,39,272,199,404,321,425,205,356,256,43,107,215,180,230,337,37,296,345,181,276,313,114,428,49,72,207,55,457,119,154,434,299,6,363,294,145,409,22,95,266,89,9,420,82,219,91,227,59,80,393,317,442,459,177,84,36,188,165,214,179,343,98,370,403,110,168,311,31,228,34,138,284,242,146,331,157,312,208,70,416,472,164,44,283,258,347,350,232,172,295,257,246,88,5,460,301,392,381,351,28,175,436,51,52,147,74,185,389,0,268,379,375,456,397,105,335,234,433,292,121,195,152,430,231,413,316,125,94,332,357,220,467,368,127,269,151,213,241,104]","arrowleft","0","3","128","480","[""0008_N0480_K0128_CLIQUE"",""0053_N0480_K0128_NOCLIQUE""]","true"
"","audio-keyboard-response","72","1122037","0.0-55.3-0.3-1.3","","","","","","","","","","","","","","","","","","null","audio_feedback/right/coin01.mp3","null","","","0","3","128","480","[""0008_N0480_K0128_CLIQUE"",""0053_N0480_K0128_NOCLIQUE""]",""
"","canvas-keyboard-response","73","1124981","0.0-56.0-0.0-0.0","","","","","","","","","","","","","","","","","","2595",""," ","[101,256,183,278,412,398,179,108,91,431,461,64,389,49,234,92,265,277,410,405,207,253,411,275,472,195,84,217,147,11,2,0,199,437,327,5,315,416,478,262,269,229,192,313,477,194,399,283,156,72,353,69,87,314,3,332,167,14,333,185,271,142,233,246,129,266,210,433,238,214,366,144,311,312,31,155,137,6,469,427,296,117,430,118,231,228,422,284,350,444,165,138,339,33,392,226,168,334,424,319,351,123,197,240,470,344,150,177,468,443,264,161,383,459,255,304,280,439,415,201,301,390,96,421,89,157,83,80,290,17,241,205,462,13,289,242,221,75,109,310,48,338,440,395,57,145,172,208,63,62,232,37,298,126,322,359,212,460,76,448,184,178,42,407,73,94,414,356,368,196,400,86,466,305,22,337,348,293,276,98,342,446,354,361,216,55,261,429,464,134,409,51,176,67,120,88,302,423,449,295,239,26,263,112,441,463,174,404,124,394,12,19,272,316,139,136,85,476,38,78,211,70,162,188,453,323,198,99,29,347,346,451,16,375,202,36,146,299,66,384,380,193,27,105,413,282,181,286,135,106,61,291,456,357,32,4,166,111,438,203,116,154,121,259,382,341,309,331,158,279,352,343,364,336,103,28,132,235,128,243,345,90,170,46,474,251,39,371,82,159,393,149,93,317,425,321,308,385,320,148,59,378,254,370,164,358,249,65,274,369,374,417,7,454,209,360,74,328,225,52,131,288,104,330,471,53,180,307,247,367,387,58,445,50,127,41,324,257,300,303,223,373,1,428,21,44,419,107,432,151,56,206,435,260,213,81,24,452,171,153,381,267,113,237,349,227,110,8,224,187,20,236,54,273,186,71,35,408,43,40,281,122,245,447,402,457,372,79,130,455,141,365,119,68,450,191,175,244,287,140,420,252,434,473,475,47,218,100,200,458,379,406,397,401,95,268,152,30,15,355,403,220,326,77,250,222,258,219,143,306,169,133,18,436,363,45,294,340,182,285,396,102,270,60,325,418,479,23,388,318,97,248,386,377,292,25,442,376,190,125,189,173,215,34,465,362,335,391,467,163,329,114,9,160,230,204,10,426,115,297]","arrowright","0","4","112","480","[""0047_N0480_K0112_NOCLIQUE"",""0035_N0480_K0112_CLIQUE""]",""
"","audio-keyboard-response","74","1126057","0.0-56.0-0.0-1.0","","","","","","","","","","","","","","","","","","null","audio_feedback/shuffles/shuffle01.mp3","null","","","0","4","112","480","[""0047_N0480_K0112_NOCLIQUE"",""0035_N0480_K0112_CLIQUE""]",""
"","canvas-keyboard-response","75","1127745","0.0-56.1-0.1-0.1","","","","","","","","","","","","","","","","","","1570",""," ","[119,232,14,59,454,436,201,386,443,411,12,235,68,392,52,320,243,267,78,45,265,266,146,279,6,378,298,48,140,321,457,462,415,22,44,335,71,319,358,434,186,352,245,164,108,302,318,388,143,200,21,383,80,216,379,419,142,429,109,231,211,254,81,295,160,240,209,141,439,49,304,126,342,61,176,188,312,412,270,32,57,288,330,407,199,161,40,339,323,355,261,324,414,316,329,365,337,1,88,350,397,399,432,444,332,99,327,257,9,465,25,477,395,121,0,442,13,168,430,156,112,136,417,183,366,42,374,422,384,353,466,31,347,33,345,34,196,391,315,217,85,359,247,310,420,43,317,228,233,67,344,418,207,428,328,54,292,100,387,393,334,280,361,30,2,212,96,36,400,294,206,58,184,129,281,202,346,105,29,87,325,115,192,341,467,51,64,446,171,7,205,65,456,89,368,396,195,300,151,35,326,82,165,167,47,271,179,134,278,92,238,53,296,174,132,130,468,222,104,380,175,306,177,251,354,118,24,66,90,274,135,372,425,269,159,343,125,398,451,84,249,437,469,150,246,262,297,441,389,187,478,214,17,158,148,213,73,331,348,95,155,336,15,381,79,37,117,107,227,463,230,83,474,72,11,322,385,147,314,362,363,113,479,74,447,76,252,215,153,283,369,440,453,475,423,62,244,122,194,50,4,223,421,284,170,226,166,172,145,239,5,193,208,448,110,23,364,275,458,56,408,75,285,162,290,124,101,3,234,426,405,46,203,349,340,225,435,416,111,144,197,455,293,173,38,185,224,287,303,98,402,253,133,190,10,8,221,97,309,424,106,70,114,93,181,470,123,163,370,403,409,237,452,410,382,472,450,473,219,152,376,137,375,305,404,189,250,27,333,138,180,128,127,273,459,289,139,464,313,236,178,438,204,371,69,26,286,264,255,311,260,94,272,198,460,377,86,433,263,308,256,406,20,220,91,60,413,360,401,307,301,390,268,229,259,28,338,476,367,18,394,218,356,461,471,357,431,277,445,248,258,191,55,16,210,291,241,19,169,182,116,351,373,154,282,276,131,77,102,449,103,427,63,242,157,120,149,39,299,41]","arrowright","0","4","112","480","[""0047_N0480_K0112_NOCLIQUE"",""0035_N0480_K0112_CLIQUE""]",""
"","audio-keyboard-response","76","1128817","0.0-56.1-0.1-1.1","","","","","","","","","","","","","","","","","","null","audio_feedback/shuffles/shuffle01.mp3","null","","","0","4","112","480","[""0047_N0480_K0112_NOCLIQUE"",""0035_N0480_K0112_CLIQUE""]",""
"","canvas-keyboard-response","77","1130697","0.0-56.2-0.2-0.2","","","","","","","","","","","","","","","","","","1521",""," ","[339,57,159,347,202,456,63,302,111,411,383,139,391,256,352,425,283,172,272,110,369,376,9,120,263,31,219,450,88,404,292,125,233,414,238,117,116,154,324,54,289,232,280,304,297,34,412,378,129,348,452,175,255,93,335,321,293,364,410,87,102,254,338,38,333,372,271,457,18,454,30,294,95,167,179,119,28,22,176,436,323,171,8,406,29,273,128,387,98,133,122,431,170,282,371,81,103,398,61,346,423,315,276,113,165,409,83,275,101,55,35,203,355,214,225,261,127,440,426,306,460,318,185,461,40,160,268,152,42,227,314,337,150,420,417,390,245,305,385,136,94,123,118,311,262,2,402,319,53,437,441,247,401,153,343,75,299,17,408,210,368,442,270,365,397,253,222,188,370,5,358,206,180,208,147,64,192,266,326,155,211,124,327,142,303,156,281,189,380,329,49,260,251,330,353,107,379,204,183,316,130,134,41,78,265,181,199,439,0,243,50,239,393,157,114,197,298,359,182,12,471,145,470,389,325,96,474,218,443,62,363,428,269,36,168,3,74,196,20,39,396,190,367,200,477,472,351,149,434,131,104,77,264,332,25,384,287,226,386,121,173,195,286,424,231,313,354,308,223,186,178,479,65,267,418,7,444,322,80,207,4,44,422,468,250,229,331,151,174,205,466,361,394,106,221,366,191,421,453,66,478,216,458,194,342,449,373,27,48,32,213,47,23,201,71,73,16,158,91,43,76,377,356,212,405,84,413,340,435,360,357,258,169,13,37,392,15,72,26,309,344,317,403,70,300,148,438,290,19,248,69,473,56,242,288,79,419,447,220,432,395,350,341,328,427,137,362,291,228,109,85,6,52,433,166,146,382,400,24,230,462,336,14,451,60,399,464,198,141,284,143,215,307,252,407,320,92,46,375,455,381,285,164,274,374,112,217,105,301,236,10,295,108,162,448,445,430,86,184,465,97,99,138,416,193,415,33,279,249,224,235,140,334,345,187,209,240,241,388,259,68,469,312,459,89,177,51,115,58,132,1,467,463,135,21,310,446,277,244,59,429,161,246,278,475,100,476,67,257,349,163,45,144,234,296,90,11,126,237,82]","arrowright","0","4","112","480","[""0047_N0480_K0112_NOCLIQUE"",""0035_N0480_K0112_CLIQUE""]",""
"","audio-keyboard-response","78","1131777","0.0-56.2-0.2-1.2","","","","","","","","","","","","","","","","","","null","audio_feedback/shuffles/shuffle01.mp3","null","","","0","4","112","480","[""0047_N0480_K0112_NOCLIQUE"",""0035_N0480_K0112_CLIQUE""]",""
"","canvas-keyboard-response","79","1134465","0.0-56.3-0.3-0.3","","","","","","","","","","","","","","","","","","2332","","arrowright","[343,38,216,270,266,353,432,223,374,348,129,437,60,144,55,107,98,218,264,100,447,287,274,433,199,430,393,445,178,318,192,84,205,307,419,388,89,403,342,147,5,239,248,477,292,18,124,295,202,208,330,16,241,140,204,184,455,392,9,345,277,185,8,102,272,347,378,27,112,91,408,207,2,411,391,167,77,221,127,23,56,316,290,267,464,173,45,225,175,222,435,475,468,344,188,68,93,43,286,149,158,457,172,390,276,314,371,366,50,79,322,297,376,137,364,472,360,355,265,24,130,200,233,362,180,51,224,228,368,275,416,136,66,258,306,152,466,37,429,32,31,3,76,296,263,352,134,367,333,193,386,210,211,181,179,357,467,78,471,25,273,143,439,110,99,458,15,401,382,302,387,118,67,217,354,434,197,177,133,257,244,321,414,304,234,212,195,0,332,301,54,46,389,28,259,469,58,86,412,176,441,456,29,260,363,44,92,40,438,300,356,406,73,229,423,339,399,268,288,373,182,119,75,196,62,341,255,440,329,375,253,319,451,146,72,35,20,194,142,305,166,69,117,385,448,317,421,171,17,57,96,70,474,350,397,370,41,396,83,453,320,237,334,249,252,131,220,422,238,358,380,460,470,335,95,282,289,479,337,53,26,409,227,420,30,418,346,415,174,383,1,10,11,12,293,74,454,104,94,14,245,336,159,198,154,123,281,214,431,126,47,279,125,428,395,452,113,145,135,359,328,405,325,465,323,303,6,150,369,61,340,139,402,230,372,128,377,219,365,64,115,313,280,243,111,251,442,151,424,315,449,52,425,236,407,462,351,256,105,85,101,381,4,247,148,338,163,278,157,165,379,349,114,39,308,34,156,426,215,417,235,170,436,160,103,81,189,242,201,254,294,269,203,327,108,80,90,155,42,213,97,122,311,444,168,413,404,226,209,331,463,232,153,162,49,298,7,161,13,121,398,187,82,190,33,65,141,231,271,106,59,169,446,109,21,459,285,291,299,250,87,48,19,164,461,246,410,206,240,88,283,186,450,361,310,473,312,476,191,400,63,309,427,262,138,324,394,36,478,183,116,120,326,132,384,443,284,261,22,71]","arrowright","0","4","112","480","[""0047_N0480_K0112_NOCLIQUE"",""0035_N0480_K0112_CLIQUE""]","true"
"","audio-keyboard-response","80","1135457","0.0-56.3-0.3-1.3","","","","","","","","","","","","","","","","","","null","audio_feedback/right/coin01.mp3","null","","","0","4","112","480","[""0047_N0480_K0112_NOCLIQUE"",""0035_N0480_K0112_CLIQUE""]",""
"","canvas-keyboard-response","81","1137107","0.0-57.0-0.0-0.0","","","","","","","","","","","","","","","","","","1254",""," ","[44,244,104,409,240,386,304,68,163,29,130,322,393,358,418,392,72,388,410,273,181,112,314,282,334,338,35,216,242,61,222,217,337,165,298,168,407,183,185,331,206,340,38,25,255,122,394,160,191,264,380,294,0,396,142,364,390,184,90,379,362,267,12,19,274,402,155,268,225,58,37,218,466,175,352,269,7,133,89,467,430,353,265,433,148,170,438,277,361,439,441,275,456,13,99,339,75,365,419,152,459,271,315,45,235,313,22,51,56,332,444,383,205,290,80,476,136,52,2,202,371,81,164,192,257,187,141,351,85,198,347,144,146,172,48,289,97,215,180,196,94,229,415,435,171,101,239,137,449,406,336,199,260,193,330,376,308,131,212,399,228,245,259,374,26,400,389,421,231,256,157,132,333,384,475,162,299,296,461,42,288,270,14,463,74,303,77,472,366,60,238,445,194,16,116,195,149,412,310,261,57,345,115,234,309,151,316,263,457,283,158,224,429,266,82,327,207,213,15,437,291,126,249,453,109,360,312,154,197,54,420,138,119,413,452,300,49,173,169,301,471,311,363,241,111,377,272,387,403,66,8,134,59,108,176,178,286,428,87,226,251,88,4,200,211,293,140,110,356,434,305,221,477,349,295,145,451,161,367,214,279,323,454,204,69,120,190,319,71,11,329,246,79,84,129,262,436,28,73,100,325,320,219,159,118,381,285,21,93,284,121,431,443,464,76,302,50,36,417,280,247,18,237,1,450,479,40,47,230,348,460,70,307,372,39,321,424,404,401,382,139,46,23,143,359,478,335,432,223,91,127,102,156,43,179,462,276,17,422,86,24,96,252,125,53,470,408,83,189,67,208,405,369,324,355,227,318,469,182,188,317,341,306,105,63,385,106,31,9,440,254,446,416,378,210,423,10,253,297,65,3,442,346,328,114,292,368,201,473,124,123,447,398,33,414,455,474,357,427,278,425,326,370,41,95,233,6,34,248,27,147,117,20,391,458,397,375,103,55,209,32,342,186,113,236,395,203,128,281,287,167,177,258,343,468,64,98,153,250,220,448,174,465,232,243,30,411,107,350,344,62,150,354,78,5,166,373,92,135,426]","arrowleft","0","5","112","480","[""0042_N0480_K0112_CLIQUE"",""0029_N0480_K0112_NOCLIQUE""]",""
"","audio-keyboard-response","82","1138177","0.0-57.0-0.0-1.0","","","","","","","","","","","","","","","","","","null","audio_feedback/shuffles/shuffle01.mp3","null","","","0","5","112","480","[""0042_N0480_K0112_CLIQUE"",""0029_N0480_K0112_NOCLIQUE""]",""
"","canvas-keyboard-response","83","1141601","0.0-57.1-0.1-0.1","","","","","","","","","","","","","","","","","","3075",""," ","[425,424,422,165,153,412,11,49,289,137,149,413,151,364,404,326,303,119,346,44,411,383,76,125,468,400,175,232,376,357,429,29,204,156,305,353,19,285,408,233,110,335,208,194,188,321,70,259,437,144,450,440,23,129,52,275,455,249,344,109,366,272,373,150,12,88,86,263,283,16,402,205,190,89,187,430,20,256,244,219,36,98,30,358,388,447,176,117,55,348,474,59,133,375,22,235,385,7,441,310,126,386,242,246,62,394,197,84,78,229,37,217,347,79,67,370,369,308,334,212,56,312,328,378,460,296,415,307,106,68,432,8,461,90,53,103,186,139,127,222,33,203,166,34,207,63,349,191,72,479,409,377,69,31,182,167,261,83,21,145,452,280,92,183,372,470,269,35,184,309,2,108,252,5,14,258,143,476,304,273,146,134,389,87,241,423,295,336,32,198,266,371,306,421,65,434,10,319,43,237,206,475,250,118,243,195,428,395,267,135,333,221,162,160,255,368,192,240,180,42,410,41,463,448,292,28,95,374,211,436,181,75,322,281,435,427,417,171,173,260,356,251,71,172,465,339,390,220,26,18,185,48,393,438,120,343,46,91,362,25,177,270,93,399,314,214,384,130,169,426,58,97,141,210,329,116,456,449,239,111,201,38,398,290,105,363,178,131,148,298,158,50,122,268,253,1,350,477,189,174,147,330,82,113,85,168,209,257,213,293,338,282,473,458,442,459,277,216,431,202,397,159,163,382,392,354,341,100,80,128,317,66,469,444,284,453,299,94,342,352,451,419,238,360,39,464,300,247,401,381,81,64,316,230,6,99,234,123,223,365,228,199,200,24,121,332,446,405,9,301,278,320,359,472,466,231,138,254,380,224,323,471,152,462,215,107,276,264,4,0,443,13,318,262,170,226,325,142,367,155,345,74,15,245,57,96,311,324,313,265,302,227,225,416,467,327,47,45,17,403,114,340,115,406,60,164,271,355,420,291,478,112,196,157,361,331,287,77,407,454,279,418,414,457,286,40,61,124,379,439,161,54,294,218,132,102,396,315,179,101,236,387,248,351,136,297,154,73,27,288,3,445,391,140,337,274,433,51,193,104]","arrowleft","0","5","112","480","[""0042_N0480_K0112_CLIQUE"",""0029_N0480_K0112_NOCLIQUE""]",""
"","audio-keyboard-response","84","1142677","0.0-57.1-0.1-1.1","","","","","","","","","","","","","","","","","","null","audio_feedback/shuffles/shuffle01.mp3","null","","","0","5","112","480","[""0042_N0480_K0112_CLIQUE"",""0029_N0480_K0112_NOCLIQUE""]",""
"","canvas-keyboard-response","85","1143737","0.0-57.2-0.2-0.2","","","","","","","","","","","","","","","","","","757",""," ","[220,219,57,52,395,15,311,325,5,433,306,327,140,158,310,297,418,465,463,147,174,4,96,46,171,281,39,377,448,256,133,342,295,181,366,291,115,189,374,178,453,409,300,417,141,207,222,22,238,318,212,145,64,153,81,116,194,276,408,455,379,84,235,35,431,403,103,165,321,442,392,225,179,29,12,157,410,233,67,271,76,159,93,393,420,474,176,250,373,258,341,82,218,53,254,260,362,114,302,272,34,89,78,138,380,246,188,163,472,279,371,449,56,429,349,21,414,139,72,288,415,202,350,461,150,343,464,304,354,128,215,180,98,388,416,351,383,134,229,106,32,427,340,332,37,309,345,73,334,160,440,439,247,355,368,108,400,390,123,201,363,23,423,19,308,142,130,209,326,385,245,112,193,305,391,299,278,137,251,87,466,426,51,146,119,303,294,450,447,86,358,198,348,287,155,124,117,257,241,210,398,223,445,361,44,113,85,424,192,28,438,203,90,322,298,479,71,432,253,263,249,25,336,319,148,262,2,228,478,329,274,293,240,38,468,20,266,255,58,75,40,441,226,151,162,184,161,205,24,252,267,381,397,227,109,172,156,312,296,41,144,436,476,13,347,79,83,94,425,61,126,236,102,183,77,239,386,405,430,131,168,264,451,338,60,65,230,283,330,365,353,335,110,411,242,105,42,369,471,315,452,173,407,237,234,473,458,419,30,66,359,152,69,127,187,208,214,273,101,70,118,428,470,320,389,36,26,422,217,216,33,346,269,352,14,221,248,454,47,344,111,43,125,292,27,477,62,394,337,384,224,316,289,143,136,243,135,45,185,120,437,97,446,382,475,63,206,149,8,121,268,323,95,387,191,328,10,333,59,31,3,360,132,357,339,469,204,100,11,175,107,367,129,199,55,18,435,412,375,317,186,68,92,261,6,370,122,16,460,182,50,169,275,376,444,244,307,378,456,7,167,280,177,404,364,434,80,406,372,277,99,0,467,402,74,200,196,265,48,213,88,197,331,211,1,290,285,396,313,399,324,457,443,314,164,49,286,54,154,282,462,166,91,301,401,413,421,284,356,270,195,459,231,232,170,190,104,259,17,9]","arrowleft","0","5","112","480","[""0042_N0480_K0112_CLIQUE"",""0029_N0480_K0112_NOCLIQUE""]",""
"","audio-keyboard-response","86","1144818","0.0-57.2-0.2-1.2","","","","","","","","","","","","","","","","","","null","audio_feedback/shuffles/shuffle01.mp3","null","","","0","5","112","480","[""0042_N0480_K0112_CLIQUE"",""0029_N0480_K0112_NOCLIQUE""]",""
"","canvas-keyboard-response","87","1145956","0.0-57.3-0.3-0.3","","","","","","","","","","","","","","","","","","781",""," ","[56,108,365,315,235,313,152,367,399,417,292,87,457,216,404,426,439,31,81,78,52,421,107,178,398,82,42,288,437,345,185,230,307,331,61,252,174,348,234,71,43,410,228,385,237,344,266,169,127,111,431,474,392,414,5,110,196,55,388,328,339,134,430,208,213,316,289,27,14,468,98,210,206,20,66,16,425,312,416,186,106,323,446,122,79,224,62,373,291,164,135,201,92,368,9,294,443,1,381,21,342,390,118,6,126,109,211,168,363,369,99,337,123,260,151,219,413,136,70,290,59,360,250,269,268,153,420,452,195,13,311,298,86,273,85,130,148,163,280,366,182,327,427,93,193,167,320,249,438,279,91,303,192,240,171,183,361,353,10,469,384,48,104,372,207,473,433,301,120,7,121,218,176,428,129,90,471,445,68,464,251,146,50,140,296,64,137,270,222,181,115,411,256,67,65,54,322,304,453,261,305,117,245,454,299,38,150,255,265,75,89,141,76,330,418,295,112,239,432,403,371,173,415,318,29,444,343,243,231,227,358,293,12,58,116,264,460,32,96,241,242,309,470,302,329,459,258,382,286,83,429,46,356,212,157,30,154,198,407,455,284,36,336,100,223,283,317,47,300,53,405,40,350,376,132,25,236,28,274,203,23,2,18,233,69,440,57,351,276,396,306,131,263,102,402,391,287,74,8,259,204,187,144,172,338,355,60,423,220,462,374,359,424,188,247,80,310,189,370,450,17,472,226,297,138,333,229,476,409,160,394,161,124,177,406,447,51,225,97,375,191,354,321,262,400,349,35,456,143,278,397,24,408,272,389,95,475,202,214,386,119,451,73,0,477,145,190,49,11,281,267,125,479,149,463,377,419,362,15,166,221,159,449,170,101,379,72,325,466,246,205,41,158,461,422,442,165,335,162,282,347,448,232,44,180,458,346,200,217,26,357,248,39,478,37,19,277,271,139,155,156,395,465,33,254,378,434,197,340,3,105,244,147,393,22,364,332,142,133,34,84,45,238,257,324,114,103,175,441,341,275,4,383,199,128,387,308,314,467,352,334,194,94,113,326,63,436,77,184,209,401,88,179,319,285,435,380,412,215,253]","arrowleft","0","5","112","480","[""0042_N0480_K0112_CLIQUE"",""0029_N0480_K0112_NOCLIQUE""]",""
"","audio-keyboard-response","88","1147036","0.0-57.3-0.3-1.3","","","","","","","","","","","","","","","","","","null","audio_feedback/shuffles/shuffle01.mp3","null","","","0","5","112","480","[""0042_N0480_K0112_CLIQUE"",""0029_N0480_K0112_NOCLIQUE""]",""
"","canvas-keyboard-response","89","1149181","0.0-57.4-0.4-0.4","","","","","","","","","","","","","","","","","","2040","","arrowleft","[119,441,5,139,277,239,442,363,331,452,419,14,25,429,211,106,308,99,219,33,50,95,72,57,154,338,79,398,197,423,235,407,243,102,391,39,26,105,21,401,433,281,138,320,74,405,202,195,291,110,300,282,380,101,286,135,337,236,454,460,290,354,225,112,65,361,459,104,382,353,37,445,428,172,173,315,400,272,83,177,82,336,60,476,171,114,410,365,449,303,451,120,210,421,406,52,186,276,49,253,417,16,268,28,352,90,326,4,306,223,472,185,349,448,80,443,215,133,92,88,301,96,328,77,151,392,330,217,390,404,100,68,86,310,203,298,329,477,167,378,346,178,125,213,334,464,182,386,335,260,420,161,252,193,196,103,418,424,183,370,53,444,232,393,470,129,463,141,376,250,19,48,358,230,285,29,58,251,279,389,430,214,267,471,245,227,231,339,416,435,411,473,323,15,307,142,450,427,275,44,242,229,374,318,76,408,153,59,263,174,34,244,325,327,73,457,23,221,456,439,394,146,297,137,93,368,122,261,212,254,240,94,89,126,107,116,131,47,176,145,453,208,98,150,350,479,362,467,144,32,198,293,175,259,121,209,152,305,414,432,0,316,341,184,71,241,237,81,465,462,388,218,438,356,264,78,469,111,369,296,322,284,54,168,118,387,412,55,434,399,164,207,273,220,84,319,292,163,258,158,46,190,266,136,224,246,343,11,274,403,20,66,75,41,62,222,149,269,332,447,228,87,148,36,474,124,373,265,468,344,278,140,255,6,200,31,22,397,188,366,280,422,357,342,216,311,42,108,180,413,402,385,431,160,270,312,383,415,170,249,309,247,91,340,302,375,147,132,169,351,396,381,288,2,10,205,409,40,17,165,257,478,321,27,440,287,38,256,348,192,233,64,248,143,63,12,162,155,1,226,317,304,360,3,130,35,97,113,128,372,283,45,426,156,9,159,324,191,201,157,364,367,466,436,61,371,395,69,289,109,377,123,299,67,166,134,234,425,333,187,262,85,238,7,206,271,189,194,384,127,13,181,458,30,347,455,355,313,294,115,8,295,56,18,204,475,345,379,461,70,359,51,199,24,314,117,43,446,437,179]","arrowleft","0","5","112","480","[""0042_N0480_K0112_CLIQUE"",""0029_N0480_K0112_NOCLIQUE""]","true"
"","audio-keyboard-response","90","1150178","0.0-57.4-0.4-1.4","","","","","","","","","","","","","","","","","","null","audio_feedback/right/coin01.mp3","null","","","0","5","112","480","[""0042_N0480_K0112_CLIQUE"",""0029_N0480_K0112_NOCLIQUE""]",""
"","canvas-keyboard-response","91","1153117","0.0-58.0-0.0-0.0","","","","","","","","","","","","","","","","","","2578",""," ","[96,397,447,105,442,303,403,311,166,407,477,353,419,335,37,229,402,63,330,247,320,263,55,309,262,42,175,185,117,453,20,287,196,412,462,452,408,310,391,50,164,438,17,266,400,285,296,21,150,109,29,89,443,221,127,435,68,313,219,474,25,257,77,416,271,176,254,191,314,444,34,100,336,389,307,72,120,195,141,426,469,98,75,22,282,276,169,8,126,132,359,428,6,395,163,134,188,449,350,148,115,355,245,246,116,340,421,153,392,79,260,44,159,300,138,295,49,121,130,366,142,361,413,40,365,94,76,387,381,404,456,152,189,190,354,434,351,324,171,244,12,101,56,274,236,147,52,315,215,375,137,230,222,99,464,125,415,371,343,4,211,128,378,460,9,458,160,131,308,136,304,0,283,14,473,51,33,347,158,328,173,239,38,256,470,201,394,81,294,143,289,380,367,267,39,70,10,35,66,108,238,223,193,284,268,19,357,226,154,78,3,90,23,32,479,279,114,405,82,467,7,41,139,420,301,228,439,48,272,433,24,74,214,317,362,2,162,478,13,174,275,249,459,18,225,425,427,61,165,36,293,342,60,290,349,199,119,448,200,167,220,57,92,432,85,406,265,93,331,411,186,28,202,240,334,43,291,84,15,106,430,135,213,31,97,87,305,346,297,192,306,30,47,73,390,465,436,88,218,67,429,110,102,1,45,345,281,440,27,144,251,299,396,170,344,180,53,288,69,280,398,248,472,212,261,183,107,312,298,235,269,71,302,209,145,424,383,177,360,319,418,111,233,157,277,258,205,182,149,326,332,259,133,457,370,203,333,323,104,382,379,461,339,217,374,80,187,445,62,325,59,253,168,252,181,377,178,243,210,123,129,118,161,356,471,337,194,363,399,401,146,124,198,410,369,318,273,321,86,231,26,234,242,206,237,232,466,431,5,476,455,376,172,450,227,327,255,386,179,54,358,292,83,224,46,451,64,393,384,423,197,264,372,454,316,113,437,156,95,140,352,373,422,368,409,16,286,11,241,475,216,58,103,250,207,468,322,446,184,151,155,364,385,91,208,338,348,441,204,463,341,388,270,122,65,329,112,414,417,278]","arrowleft","0","6","104","480","[""0094_N0480_K0104_CLIQUE"",""0089_N0480_K0104_NOCLIQUE""]",""
"","audio-keyboard-response","92","1154197","0.0-58.0-0.0-1.0","","","","","","","","","","","","","","","","","","null","audio_feedback/shuffles/shuffle01.mp3","null","","","0","6","104","480","[""0094_N0480_K0104_CLIQUE"",""0089_N0480_K0104_NOCLIQUE""]",""
"","canvas-keyboard-response","93","1156422","0.0-58.1-0.1-0.1","","","","","","","","","","","","","","","","","","2109",""," ","[460,90,264,307,350,322,439,413,263,104,461,191,275,393,181,390,402,428,195,320,363,426,351,194,214,215,115,159,193,468,400,41,399,229,289,17,124,227,432,113,397,108,43,202,223,431,272,125,440,91,396,156,165,437,270,146,157,110,95,285,158,441,88,407,373,398,189,395,96,317,85,467,455,204,6,310,343,433,139,425,422,253,328,361,344,250,462,11,434,51,427,75,107,184,381,326,190,32,283,299,255,26,162,50,265,304,337,36,0,377,262,334,364,457,19,219,358,56,38,408,1,241,416,454,192,163,382,346,72,196,292,438,470,28,153,306,174,424,216,444,8,74,86,150,321,446,239,231,27,472,295,221,405,34,154,388,161,129,98,469,111,477,258,359,271,82,144,287,137,114,340,116,235,341,199,329,378,69,273,148,257,203,269,131,180,401,151,132,217,293,385,355,447,453,211,357,89,303,84,37,443,94,252,243,5,347,473,228,330,465,362,233,200,93,458,60,78,63,12,254,135,452,324,420,30,318,100,315,244,411,354,142,168,33,29,52,445,298,251,237,54,152,311,296,308,76,186,412,280,348,177,118,449,42,336,126,475,327,415,406,374,149,67,140,332,371,213,97,226,92,224,79,127,188,197,2,65,7,10,171,138,274,418,301,23,209,309,130,133,370,210,24,479,40,302,236,185,242,141,240,198,294,278,160,35,267,369,409,21,45,279,16,81,368,167,435,166,410,136,179,68,277,119,331,183,112,268,238,276,172,83,225,182,356,325,178,212,22,3,77,143,13,286,339,99,109,335,73,282,417,128,39,290,230,375,123,429,387,384,372,207,53,18,121,256,259,313,300,66,379,70,297,62,14,423,365,404,389,360,366,345,421,316,58,394,120,291,414,463,57,391,48,476,122,187,352,46,206,376,208,173,102,169,419,4,55,314,349,106,64,247,459,338,44,222,474,80,288,147,436,87,15,49,117,103,448,312,201,386,20,456,31,205,451,220,232,176,245,284,478,281,248,319,260,246,134,367,105,380,471,47,392,305,234,342,403,25,155,261,464,61,383,145,333,71,101,430,466,323,266,249,175,59,218,170,442,450,353,164,9]","arrowleft","0","6","104","480","[""0094_N0480_K0104_CLIQUE"",""0089_N0480_K0104_NOCLIQUE""]",""
"","audio-keyboard-response","94","1157497","0.0-58.1-0.1-1.1","","","","","","","","","","","","","","","","","","null","audio_feedback/shuffles/shuffle01.mp3","null","","","0","6","104","480","[""0094_N0480_K0104_CLIQUE"",""0089_N0480_K0104_NOCLIQUE""]",""
"","canvas-keyboard-response","95","1160400","0.0-58.2-0.2-0.2","","","","","","","","","","","","","","","","","","2546","","arrowleft","[97,131,208,420,121,287,119,65,123,444,386,213,357,7,369,66,139,256,434,331,275,349,103,125,342,460,210,19,265,417,285,467,74,390,151,153,440,252,242,230,448,174,388,306,33,271,150,23,231,385,157,250,387,363,40,86,278,149,350,154,335,381,477,55,73,167,67,138,58,176,116,346,416,262,0,257,191,276,433,59,372,362,255,453,178,392,324,323,192,225,212,447,475,166,83,177,456,329,60,280,298,450,234,133,395,163,410,181,459,224,316,464,180,25,22,391,330,267,354,194,297,272,228,3,322,424,325,79,29,54,200,292,112,426,49,96,109,389,218,211,12,462,18,141,193,202,293,310,233,368,299,76,10,47,393,162,341,268,143,179,294,93,27,361,300,110,307,266,479,30,68,312,465,258,374,378,53,472,28,270,253,435,63,466,370,243,347,44,236,82,291,277,423,61,108,14,34,46,402,80,263,439,158,160,21,436,184,146,469,313,289,319,41,42,470,183,199,419,397,311,152,71,353,209,124,351,217,159,458,130,398,332,373,383,355,126,304,26,471,328,318,377,168,399,246,446,188,333,220,87,32,171,85,91,115,309,334,90,229,161,245,282,144,406,1,189,31,100,182,259,254,137,221,442,145,206,113,360,418,92,343,413,461,132,359,414,431,48,88,327,295,457,251,227,196,260,445,261,478,186,155,43,129,148,326,118,235,239,273,411,13,8,50,172,114,412,78,140,214,24,365,249,352,429,240,339,175,222,283,422,308,284,454,20,169,455,320,195,104,269,315,128,17,147,437,111,95,204,57,84,56,364,170,226,136,9,438,441,142,51,35,89,425,45,317,443,16,72,321,345,173,382,430,403,376,98,396,134,39,6,428,101,337,248,102,409,279,348,379,190,197,290,165,62,117,2,15,401,75,247,264,384,463,452,187,340,303,468,38,404,105,185,305,81,281,338,473,207,344,427,451,407,36,241,400,37,156,421,476,11,356,64,223,215,358,415,232,201,288,380,5,135,432,4,336,237,77,286,216,127,371,164,296,408,70,203,122,107,219,367,301,52,94,474,238,375,405,120,106,394,274,198,69,99,314,449,205,244,302,366]","arrowleft","0","6","104","480","[""0094_N0480_K0104_CLIQUE"",""0089_N0480_K0104_NOCLIQUE""]","true"
"","audio-keyboard-response","96","1161397","0.0-58.2-0.2-1.2","","","","","","","","","","","","","","","","","","null","audio_feedback/right/coin01.mp3","null","","","0","6","104","480","[""0094_N0480_K0104_CLIQUE"",""0089_N0480_K0104_NOCLIQUE""]",""
"","canvas-keyboard-response","97","1169141","0.0-59.0-0.0-0.0","","","","","","","","","","","","","","","","","","7386",""," ","[245,209,138,88,155,391,462,396,178,85,287,26,132,71,230,9,337,52,252,417,163,25,197,217,64,265,34,158,216,153,476,294,82,349,124,91,122,40,54,30,150,304,455,17,108,418,192,313,81,10,180,288,464,400,137,75,293,208,116,8,181,321,283,326,223,427,167,320,262,206,377,194,325,133,226,454,189,177,113,174,340,196,393,236,317,202,117,31,419,335,35,251,148,204,289,119,46,42,186,36,416,210,273,215,282,423,392,413,356,157,478,235,118,170,302,456,218,467,362,380,264,49,272,83,246,222,149,439,381,432,16,361,247,120,263,407,434,248,4,50,369,1,166,327,51,399,457,242,422,141,22,309,372,195,474,92,72,305,463,28,355,96,61,184,94,105,300,435,442,45,285,168,144,229,451,102,121,301,187,73,234,188,14,346,359,231,68,106,358,370,249,394,316,303,363,78,319,123,243,353,379,261,44,69,39,452,277,364,466,86,430,172,343,190,390,159,354,84,255,307,375,32,332,221,295,378,415,11,56,459,398,240,336,437,146,267,142,60,134,318,254,135,275,224,401,164,297,182,21,256,225,365,258,479,368,395,266,450,151,250,276,176,74,414,465,239,79,366,207,38,259,103,165,233,161,80,333,472,213,441,290,191,136,48,143,347,20,89,57,410,154,341,420,458,214,70,382,257,205,228,63,404,12,55,315,185,469,104,139,351,334,115,179,360,7,219,339,470,433,412,90,324,109,125,112,322,33,65,114,59,367,128,244,269,3,314,373,99,95,24,429,310,27,298,397,147,328,279,453,383,47,175,323,77,156,183,140,443,389,198,6,387,169,237,421,211,5,220,460,280,13,270,311,67,344,238,408,468,111,19,171,352,41,129,448,425,193,384,37,268,127,160,445,212,371,461,296,271,284,58,286,100,23,345,405,449,152,66,402,260,278,409,431,447,436,162,227,173,253,93,199,130,274,350,475,18,200,330,471,438,428,357,110,291,386,329,446,145,385,76,306,29,299,424,426,281,342,87,53,388,98,101,473,348,201,403,292,440,338,308,107,312,232,131,374,444,2,203,97,0,376,241,15,406,331,411,126,43,62,477]","arrowleft","0","7","104","480","[""0011_N0480_K0104_CLIQUE"",""0087_N0480_K0104_NOCLIQUE""]",""
"","audio-keyboard-response","98","1170217","0.0-59.0-0.0-1.0","","","","","","","","","","","","","","","","","","null","audio_feedback/shuffles/shuffle01.mp3","null","","","0","7","104","480","[""0011_N0480_K0104_CLIQUE"",""0087_N0480_K0104_NOCLIQUE""]",""
"","canvas-keyboard-response","99","1176339","0.0-59.1-0.1-0.1","","","","","","","","","","","","","","","","","","5768",""," ","[387,133,328,28,316,306,201,53,40,214,276,202,442,209,345,410,264,369,329,225,60,389,23,9,58,372,261,478,65,93,252,447,183,84,456,365,413,211,25,244,423,195,360,188,452,258,293,399,117,340,137,72,136,31,197,33,154,101,418,301,221,78,145,67,332,87,104,341,417,240,300,138,92,380,325,349,432,61,350,17,162,383,95,181,344,15,207,314,191,472,103,267,131,144,274,475,422,448,273,431,50,226,465,54,141,182,463,451,440,86,402,257,348,19,63,284,142,35,245,52,158,176,203,111,363,351,468,96,461,241,166,149,81,167,287,27,343,153,38,171,105,51,129,429,198,76,156,381,362,177,2,370,238,401,347,318,143,21,426,132,127,474,64,308,336,99,34,304,168,476,100,434,450,250,62,90,128,379,338,361,296,232,163,6,219,268,180,396,82,286,334,170,335,161,14,375,164,327,376,13,282,29,57,317,130,45,395,43,26,7,330,397,270,98,220,256,324,175,357,242,356,246,299,377,135,311,8,179,297,394,292,12,294,39,134,47,36,458,173,462,75,56,295,337,277,302,44,352,416,446,229,192,32,477,11,466,74,114,205,428,249,189,174,420,433,275,353,3,213,30,200,193,438,412,355,424,49,18,66,199,208,457,390,115,368,110,382,253,239,439,303,216,331,165,10,73,251,151,89,398,403,409,421,320,124,443,371,80,215,218,459,384,367,435,392,290,85,236,184,374,102,342,391,408,313,150,71,0,113,278,454,146,107,473,224,265,272,178,464,148,5,388,243,333,393,358,321,259,289,407,386,378,453,24,231,185,160,405,288,467,112,469,430,125,235,427,414,70,157,228,48,79,479,254,359,206,123,41,263,77,437,385,169,119,298,323,4,373,266,194,106,411,307,122,326,269,55,152,339,42,94,460,139,187,309,196,159,346,315,227,88,222,271,204,234,312,116,436,400,470,172,406,118,69,247,280,283,1,210,120,237,155,419,262,248,255,140,83,260,22,366,364,223,415,16,190,310,91,59,37,291,109,322,444,68,230,285,212,305,20,441,449,147,126,233,319,445,217,471,404,46,97,108,186,425,455,354,121,281,279]","arrowleft","0","7","104","480","[""0011_N0480_K0104_CLIQUE"",""0087_N0480_K0104_NOCLIQUE""]",""
"","audio-keyboard-response","100","1177417","0.0-59.1-0.1-1.1","","","","","","","","","","","","","","","","","","null","audio_feedback/shuffles/shuffle01.mp3","null","","","0","7","104","480","[""0011_N0480_K0104_CLIQUE"",""0087_N0480_K0104_NOCLIQUE""]",""
"","canvas-keyboard-response","101","1185271","0.0-59.2-0.2-0.2","","","","","","","","","","","","","","","","","","7518","","arrowleft","[444,336,339,287,229,254,56,379,253,192,257,170,364,179,183,145,333,270,184,212,19,304,72,249,169,389,61,87,156,282,328,228,13,259,316,20,382,396,434,327,433,318,75,319,471,151,375,451,458,88,390,198,376,146,213,57,93,47,42,135,293,423,142,401,188,395,227,82,273,465,405,334,71,101,125,276,284,53,373,477,361,272,384,78,36,275,285,267,330,290,149,305,323,7,182,412,209,427,264,358,181,30,441,349,342,356,296,306,369,219,10,144,437,17,394,2,165,325,265,315,215,418,302,346,332,196,62,242,295,79,335,368,116,266,202,155,48,97,81,187,119,307,15,11,51,172,355,191,139,377,233,258,236,391,221,106,131,445,238,345,268,411,64,370,468,400,0,31,190,292,168,120,185,299,426,348,91,211,45,408,279,58,166,178,410,226,123,23,460,409,413,95,310,158,283,317,354,388,164,392,326,3,455,140,288,466,324,415,243,99,245,207,50,278,472,14,240,167,208,194,362,21,430,44,398,133,223,54,148,216,150,453,41,69,60,255,360,450,344,300,251,174,111,424,22,102,136,105,143,203,321,100,320,25,303,59,352,26,469,173,68,359,70,380,363,134,385,90,407,277,29,35,446,235,463,206,406,195,454,280,232,402,314,429,470,475,107,428,76,291,425,73,96,421,378,152,126,220,381,414,431,350,467,286,419,244,112,113,204,456,128,239,248,374,27,138,98,189,147,218,224,46,341,252,153,85,12,118,241,372,294,312,222,5,309,281,322,247,298,399,210,43,161,160,77,443,397,367,386,351,86,217,422,338,438,129,313,340,16,103,67,1,246,186,404,24,473,250,74,199,329,452,130,214,403,157,297,171,159,176,301,177,308,230,260,28,201,225,137,365,4,39,109,459,205,124,447,117,439,448,40,262,33,311,84,393,141,110,121,127,357,289,132,337,366,92,66,8,49,122,37,331,89,9,108,271,261,94,416,420,383,237,462,442,464,163,457,154,371,256,193,449,18,387,65,162,175,114,200,180,32,115,6,80,353,269,234,436,34,83,478,347,63,38,197,476,274,52,231,343,479,263,55,461,474,417,435,432,440,104]","arrowleft","0","7","104","480","[""0011_N0480_K0104_CLIQUE"",""0087_N0480_K0104_NOCLIQUE""]","true"
"","audio-keyboard-response","102","1186277","0.0-59.2-0.2-1.2","","","","","","","","","","","","","","","","","","null","audio_feedback/right/coin01.mp3","null","","","0","7","104","480","[""0011_N0480_K0104_CLIQUE"",""0087_N0480_K0104_NOCLIQUE""]",""
"","canvas-keyboard-response","103","1189059","0.0-60.0-0.0-0.0","","","","","","","","","","","","","","","","","","2434",""," ","[136,398,107,395,233,31,337,120,258,94,79,87,468,117,47,267,271,290,432,2,209,458,115,9,250,251,414,52,114,430,457,49,260,63,223,198,39,263,152,247,451,128,252,268,434,108,205,55,26,373,299,380,207,264,479,33,254,16,101,106,4,224,248,363,325,146,91,237,249,127,377,243,160,141,453,350,347,40,168,1,231,216,98,392,14,339,181,158,303,5,437,348,220,301,176,245,463,48,473,368,236,317,294,359,255,71,0,84,234,238,466,13,133,328,389,122,364,191,322,341,88,156,74,8,38,104,410,320,269,429,19,58,465,118,336,296,393,50,342,471,407,225,391,183,195,408,426,420,203,190,365,45,81,310,307,323,261,241,329,192,69,440,116,167,386,306,441,438,390,287,324,428,194,409,476,467,388,78,415,72,85,372,321,376,253,387,86,281,274,318,246,35,53,477,367,433,175,170,272,95,262,266,185,405,315,404,381,456,197,111,29,300,96,132,131,24,20,357,177,211,7,219,22,343,161,68,379,285,119,62,422,201,179,137,43,282,149,360,276,242,171,230,99,442,154,60,406,178,427,240,165,448,375,470,227,446,103,145,37,403,218,400,3,75,65,150,244,308,304,459,382,313,199,187,18,412,424,383,362,340,401,17,93,90,344,134,411,374,204,147,345,265,402,452,449,21,275,189,284,124,349,232,460,200,129,464,27,61,100,353,256,30,354,474,222,450,140,186,235,41,73,130,358,214,6,417,172,51,332,311,425,210,312,92,297,423,56,295,291,206,54,314,11,270,326,151,226,239,193,273,444,335,143,396,44,416,352,378,221,455,215,212,70,394,32,461,384,157,355,169,316,331,36,196,280,229,121,174,163,327,277,279,419,112,213,366,76,346,289,153,15,25,46,10,102,370,83,293,351,105,67,319,292,478,64,97,123,180,188,418,59,462,228,371,184,435,42,469,34,66,443,356,475,23,138,283,135,305,439,330,257,298,164,309,288,286,77,472,110,89,155,454,159,202,139,57,278,217,397,109,80,436,447,259,182,148,113,431,413,126,82,334,12,208,173,166,445,361,28,144,421,125,399,302,162,385,338,369,333,142]","arrowleft","0","8","96","480","[""0049_N0480_K0096_CLIQUE"",""0033_N0480_K0096_NOCLIQUE""]",""
"","audio-keyboard-response","104","1190137","0.0-60.0-0.0-1.0","","","","","","","","","","","","","","","","","","null","audio_feedback/shuffles/shuffle01.mp3","null","","","0","8","96","480","[""0049_N0480_K0096_CLIQUE"",""0033_N0480_K0096_NOCLIQUE""]",""
"","canvas-keyboard-response","105","1191948","0.0-60.1-0.1-0.1","","","","","","","","","","","","","","","","","","1465",""," ","[236,446,427,159,273,319,434,290,185,441,447,229,76,405,473,186,54,421,395,34,318,364,429,36,203,287,385,274,89,62,260,63,223,465,394,74,448,68,153,77,306,148,128,216,454,302,152,382,224,278,355,10,160,133,205,16,201,257,61,243,18,127,336,365,210,3,31,339,416,144,167,369,122,332,13,359,192,22,131,238,457,370,452,402,304,353,32,97,403,15,343,401,104,327,21,442,220,124,145,417,386,413,112,294,218,43,23,168,35,99,119,479,459,263,0,376,396,298,101,151,458,277,182,451,204,55,230,244,84,48,380,9,310,375,164,315,20,41,344,301,292,312,436,100,362,477,261,102,251,49,368,346,264,330,142,280,91,222,38,470,433,305,81,194,188,149,232,189,296,140,400,374,256,450,174,258,431,180,130,79,158,88,295,175,199,169,412,173,147,444,109,328,453,83,233,250,345,326,422,390,70,4,266,66,420,29,462,253,423,407,443,64,72,469,325,33,352,227,342,195,126,399,136,322,172,103,275,237,46,311,378,307,146,52,410,163,337,42,198,108,235,138,317,96,358,241,419,156,460,6,150,110,137,350,308,282,26,184,285,428,114,214,293,221,166,92,435,471,286,40,19,56,17,8,279,361,363,445,432,398,57,354,335,37,347,281,437,106,466,183,187,85,409,284,247,245,59,53,291,50,377,265,51,165,170,58,249,456,461,324,239,313,440,411,439,367,472,391,283,372,190,387,121,111,397,242,475,300,107,217,181,356,1,105,45,425,303,276,139,208,248,321,86,269,44,177,404,474,200,120,27,87,24,426,270,129,259,252,80,28,299,379,333,357,383,262,226,219,123,323,246,141,113,115,316,297,373,384,2,360,176,334,320,349,171,215,341,329,39,135,14,225,381,212,11,134,271,389,467,231,348,331,78,288,464,207,392,197,211,338,155,132,178,478,202,371,340,424,309,240,90,267,67,5,12,449,414,93,60,268,418,94,196,438,463,254,157,408,193,455,179,116,234,388,65,406,351,118,143,69,73,30,95,289,125,161,154,366,98,191,213,75,272,314,468,209,415,25,430,393,206,7,71,82,47,162,117,476,228,255]","arrowleft","0","8","96","480","[""0049_N0480_K0096_CLIQUE"",""0033_N0480_K0096_NOCLIQUE""]",""
"","audio-keyboard-response","106","1193017","0.0-60.1-0.1-1.1","","","","","","","","","","","","","","","","","","null","audio_feedback/shuffles/shuffle01.mp3","null","","","0","8","96","480","[""0049_N0480_K0096_CLIQUE"",""0033_N0480_K0096_NOCLIQUE""]",""
"","canvas-keyboard-response","107","1196278","0.0-60.2-0.2-0.2","","","","","","","","","","","","","","","","","","3154",""," ","[123,264,343,141,199,95,140,250,0,244,165,181,470,98,280,451,453,4,16,373,420,332,196,32,85,423,257,29,183,137,248,441,376,293,66,297,189,340,160,195,435,336,452,128,296,37,462,27,356,415,395,457,479,170,176,92,425,375,477,2,107,243,224,111,3,201,216,233,14,260,48,383,390,286,391,282,472,447,179,175,399,93,59,392,255,109,121,200,171,352,366,355,365,103,61,320,81,219,298,315,143,46,7,79,223,304,67,80,272,261,438,178,312,238,247,89,440,266,350,344,259,471,295,306,62,190,146,302,231,197,188,318,187,227,433,329,23,218,77,439,43,363,367,436,289,234,303,474,162,75,253,291,131,119,126,47,19,277,254,258,174,68,125,168,104,127,430,242,434,241,413,133,154,164,69,384,130,145,106,41,463,331,429,20,388,10,284,198,94,182,347,397,249,230,265,240,310,158,278,202,221,124,354,82,110,159,166,139,207,448,99,279,412,208,1,28,31,186,63,403,456,72,369,359,476,273,245,400,34,417,203,129,382,362,267,122,112,60,321,431,56,74,38,135,157,155,12,398,252,78,185,379,40,325,26,408,305,455,206,134,358,33,402,308,290,342,84,270,102,389,460,191,371,193,153,341,281,416,410,57,300,330,167,422,65,148,151,351,239,335,459,317,39,24,246,424,467,292,54,466,454,215,118,319,361,394,299,294,276,313,345,287,42,44,91,209,349,76,90,444,55,83,337,446,380,428,116,328,450,426,35,262,360,411,418,115,283,18,406,108,147,36,192,237,285,86,228,101,458,173,161,144,194,138,50,232,100,465,427,381,212,236,132,13,113,271,96,386,364,322,326,120,324,348,30,87,9,156,105,393,396,229,339,152,468,316,169,180,421,142,256,269,475,404,357,204,311,53,327,353,172,64,235,49,150,136,333,97,251,385,437,58,414,70,314,11,52,469,405,8,288,114,445,274,346,5,401,17,205,378,73,6,22,117,51,442,163,309,370,149,368,45,409,88,372,478,307,263,301,268,387,377,213,217,275,184,432,338,222,220,443,226,407,214,210,177,464,25,21,71,419,323,334,225,211,15,461,473,449,374]","arrowleft","0","8","96","480","[""0049_N0480_K0096_CLIQUE"",""0033_N0480_K0096_NOCLIQUE""]",""
"","audio-keyboard-response","108","1197357","0.0-60.2-0.2-1.2","","","","","","","","","","","","","","","","","","null","audio_feedback/shuffles/shuffle01.mp3","null","","","0","8","96","480","[""0049_N0480_K0096_CLIQUE"",""0033_N0480_K0096_NOCLIQUE""]",""
"","canvas-keyboard-response","109","1201813","0.0-60.3-0.3-0.3","","","","","","","","","","","","","","","","","","4116",""," ","[310,454,59,449,8,213,267,333,35,230,221,216,134,434,361,99,4,377,15,296,132,113,476,179,461,274,157,269,414,443,306,409,51,124,14,7,315,342,387,385,399,270,462,393,348,127,248,374,472,400,229,171,26,447,281,167,327,47,364,191,314,164,389,140,468,27,61,90,183,126,170,363,178,58,343,187,133,442,96,218,402,290,160,446,233,344,222,194,144,175,455,285,76,458,200,232,265,70,261,152,159,22,416,169,145,329,441,101,68,408,325,53,340,106,235,84,372,278,81,404,469,54,471,375,238,176,339,82,87,271,354,123,201,91,345,303,299,50,237,280,429,304,451,335,125,258,189,212,323,403,28,450,128,426,287,423,3,46,118,135,474,79,398,359,39,432,436,415,75,283,174,292,44,419,401,92,98,62,427,223,182,301,365,86,116,444,390,268,262,254,369,279,417,406,129,166,112,249,31,141,257,71,236,181,74,366,464,250,180,371,151,440,136,445,36,60,321,334,33,231,407,239,349,255,460,17,338,225,198,186,244,21,192,24,197,138,448,119,103,49,95,149,66,263,78,425,120,107,226,161,158,405,312,256,388,52,64,210,73,168,16,18,57,202,234,205,121,165,435,477,0,368,438,56,475,122,453,108,190,382,42,19,308,410,242,412,392,411,422,219,302,284,111,48,131,362,381,102,172,143,473,109,63,437,23,326,9,246,188,163,289,467,277,360,331,394,184,397,69,330,370,214,206,148,185,413,383,93,85,12,195,396,376,456,41,452,243,346,316,83,177,146,253,395,266,199,80,105,97,65,217,391,307,240,40,25,373,264,88,431,245,300,117,115,30,203,20,252,94,173,275,291,294,34,332,465,320,328,305,89,380,319,10,470,220,6,32,156,479,43,298,215,2,282,114,260,297,211,273,251,293,38,358,155,428,100,351,341,418,45,196,247,110,353,424,457,139,104,224,295,228,433,463,276,367,357,313,439,337,347,1,29,288,420,67,430,478,272,317,204,208,150,241,162,153,355,11,37,55,356,318,324,352,77,421,350,309,384,5,209,154,311,286,142,227,466,386,207,137,193,322,378,13,147,130,259,459,72,336,379]","arrowleft","0","8","96","480","[""0049_N0480_K0096_CLIQUE"",""0033_N0480_K0096_NOCLIQUE""]",""
"","audio-keyboard-response","110","1202896","0.0-60.3-0.3-1.3","","","","","","","","","","","","","","","","","","null","audio_feedback/shuffles/shuffle01.mp3","null","","","0","8","96","480","[""0049_N0480_K0096_CLIQUE"",""0033_N0480_K0096_NOCLIQUE""]",""
"","canvas-keyboard-response","111","1207772","0.0-60.4-0.4-0.4","","","","","","","","","","","","","","","","","","4759","","arrowleft","[120,473,141,148,375,323,409,60,318,238,225,50,334,410,316,354,442,412,138,455,370,350,322,222,403,103,419,91,426,359,285,433,47,365,333,358,89,416,55,92,306,258,130,257,232,470,95,392,194,184,308,104,349,465,84,344,476,186,24,185,383,26,57,98,156,181,126,135,348,293,134,264,313,244,117,193,42,450,326,418,337,363,216,298,304,20,14,376,431,347,128,361,154,460,290,351,180,477,475,252,479,281,171,144,445,284,119,41,227,393,277,66,124,39,210,38,390,192,113,6,272,174,315,451,346,83,63,260,401,405,236,158,268,289,381,36,319,411,295,202,0,448,314,10,276,226,94,456,64,421,305,242,108,291,167,425,100,213,207,96,398,3,224,114,48,274,407,261,312,173,33,233,147,106,247,204,430,45,269,179,149,429,73,364,71,273,265,127,31,212,56,172,121,251,317,8,229,394,17,196,25,205,1,220,248,332,169,166,336,118,335,58,441,157,110,152,19,218,32,142,379,309,51,382,228,160,391,355,469,68,195,432,420,458,384,217,230,189,327,294,467,206,437,449,82,414,439,356,231,12,280,101,85,288,208,143,199,198,250,52,270,137,46,408,388,4,385,362,301,292,28,203,61,279,438,16,373,197,267,163,90,54,417,463,331,387,221,75,59,35,107,155,80,339,353,112,40,21,234,76,397,235,452,53,374,367,49,423,136,402,328,443,343,307,453,436,27,9,447,255,191,70,109,237,422,140,78,253,7,282,240,133,259,378,478,201,325,263,2,125,415,99,132,97,413,386,366,286,214,472,471,30,320,67,161,329,22,5,215,34,77,404,223,360,11,86,81,345,44,182,338,245,69,372,168,474,151,324,271,131,462,183,266,468,145,278,188,446,459,389,87,406,241,457,190,396,153,310,176,461,23,211,321,299,72,380,175,43,440,65,434,296,283,102,129,342,262,371,464,105,249,444,424,79,352,111,369,15,428,340,115,116,243,275,93,122,139,400,435,187,254,287,178,18,246,311,88,200,74,165,164,62,159,300,341,297,150,162,357,219,330,209,256,146,399,13,427,377,454,302,29,395,368,177,170,37,303,239,466,123]","arrowleft","0","8","96","480","[""0049_N0480_K0096_CLIQUE"",""0033_N0480_K0096_NOCLIQUE""]","true"
"","audio-keyboard-response","112","1208797","0.0-60.4-0.4-1.4","","","","","","","","","","","","","","","","","","null","audio_feedback/right/coin01.mp3","null","","","0","8","96","480","[""0049_N0480_K0096_CLIQUE"",""0033_N0480_K0096_NOCLIQUE""]",""
"","canvas-keyboard-response","113","1210246","0.0-61.0-0.0-0.0","","","","","","","","","","","","","","","","","","1075",""," ","[401,351,359,352,12,33,341,280,408,273,270,355,200,19,246,256,169,440,302,195,96,437,365,444,330,236,385,260,384,29,127,88,23,247,335,424,212,92,158,53,389,210,242,373,423,141,477,318,90,190,325,1,390,322,412,420,40,66,85,152,382,3,164,95,379,239,285,133,309,350,397,306,80,237,224,60,331,353,76,462,430,30,130,199,419,463,160,183,86,347,203,128,459,415,375,151,348,381,297,63,368,225,344,2,222,376,268,257,240,165,232,155,400,193,146,271,303,218,425,208,453,157,159,312,475,31,119,55,135,293,202,282,279,57,134,332,249,106,258,48,435,394,148,305,374,94,313,122,105,354,139,455,221,451,58,24,227,89,363,479,234,286,207,361,272,406,216,107,442,211,456,434,292,315,290,79,18,43,356,370,307,294,337,448,138,0,32,110,46,396,102,334,17,251,405,235,113,450,175,321,417,77,392,377,269,460,250,367,217,108,100,91,214,143,4,167,324,366,310,402,21,120,5,38,241,187,452,189,410,360,298,457,238,403,346,432,111,278,387,428,288,471,276,349,140,188,10,244,275,205,254,78,274,22,182,228,15,49,223,185,266,52,319,121,473,65,454,383,59,87,197,468,72,398,112,467,427,39,340,74,123,168,149,11,129,201,145,445,449,50,323,264,25,150,464,476,117,42,431,357,422,469,327,391,171,118,198,259,438,388,317,342,75,413,314,194,296,45,433,14,28,439,116,263,34,304,301,267,399,362,36,179,184,172,51,26,162,177,230,255,261,93,299,245,147,295,54,421,371,336,378,393,252,386,372,338,281,153,226,163,358,181,103,369,37,186,204,9,6,339,174,316,326,414,426,62,466,27,126,233,68,277,137,99,166,209,114,436,83,115,82,229,283,333,132,73,380,35,173,104,416,41,124,101,144,13,81,47,411,98,70,429,56,71,404,458,142,446,44,441,97,345,284,243,196,20,308,125,478,291,69,176,215,206,192,265,67,329,64,154,178,364,156,170,7,16,131,289,231,253,61,447,472,320,262,343,287,443,418,220,180,328,191,407,109,84,395,8,409,219,461,136,248,465,474,213,311,470,300,161]","arrowleft","0","9","96","480","[""0081_N0480_K0096_CLIQUE"",""0014_N0480_K0096_NOCLIQUE""]",""
"","audio-keyboard-response","114","1211317","0.0-61.0-0.0-1.0","","","","","","","","","","","","","","","","","","null","audio_feedback/shuffles/shuffle01.mp3","null","","","0","9","96","480","[""0081_N0480_K0096_CLIQUE"",""0014_N0480_K0096_NOCLIQUE""]",""
"","canvas-keyboard-response","115","1215080","0.0-61.1-0.1-0.1","","","","","","","","","","","","","","","","","","3645",""," ","[28,351,412,202,56,42,1,227,379,86,109,358,196,285,448,104,247,400,64,244,77,29,3,284,12,91,303,180,94,363,6,438,214,321,402,126,288,102,51,391,362,101,153,472,296,191,276,67,173,167,124,335,98,53,324,154,361,55,272,317,348,147,209,289,18,262,88,107,267,444,356,342,7,184,24,264,122,89,139,66,68,282,399,452,159,224,301,405,475,380,320,190,277,427,248,238,212,246,423,319,382,5,108,235,386,308,242,121,216,210,43,54,113,116,117,90,454,457,146,297,103,365,330,148,337,446,132,130,407,466,189,65,150,469,329,273,410,134,239,265,465,328,197,409,408,440,199,353,425,127,20,112,451,411,52,111,33,304,374,401,131,76,252,236,75,63,47,13,371,245,403,168,468,141,393,59,181,237,259,434,72,347,156,177,310,333,207,136,397,436,355,332,206,360,287,135,172,279,38,105,25,293,217,176,241,69,417,326,225,253,138,339,477,280,327,292,170,92,283,406,240,23,142,447,74,57,291,336,270,432,174,22,27,222,456,151,211,368,311,114,213,183,231,9,82,4,387,229,34,369,331,133,309,473,254,99,255,79,458,281,31,346,128,205,215,233,16,204,316,359,158,459,395,40,194,261,58,474,430,100,450,26,50,15,185,188,160,318,163,373,81,383,123,41,39,307,389,478,32,340,234,441,471,294,455,226,428,256,275,119,71,10,258,218,8,461,315,460,467,78,370,305,338,93,243,106,390,344,96,269,140,49,322,208,198,14,60,367,388,46,278,442,87,30,300,155,193,396,462,343,166,271,295,95,414,290,449,118,165,80,83,221,0,45,341,345,70,418,385,268,161,357,143,73,313,422,203,220,404,435,249,257,420,186,325,470,349,413,223,61,164,381,11,378,463,84,2,36,145,314,312,201,415,120,144,464,453,85,286,354,298,426,398,377,152,48,424,352,21,437,366,416,419,230,110,195,19,364,306,372,232,439,323,200,182,187,392,169,219,162,429,192,125,149,179,37,443,394,299,375,263,433,302,266,260,384,476,175,97,62,350,171,431,334,445,17,137,44,250,479,421,178,228,274,376,115,35,129,251,157]","arrowleft","0","9","96","480","[""0081_N0480_K0096_CLIQUE"",""0014_N0480_K0096_NOCLIQUE""]",""
"","audio-keyboard-response","116","1216157","0.0-61.1-0.1-1.1","","","","","","","","","","","","","","","","","","null","audio_feedback/shuffles/shuffle01.mp3","null","","","0","9","96","480","[""0081_N0480_K0096_CLIQUE"",""0014_N0480_K0096_NOCLIQUE""]",""
"","canvas-keyboard-response","117","1218002","0.0-61.2-0.2-0.2","","","","","","","","","","","","","","","","","","1474",""," ","[86,272,126,415,404,27,296,294,271,287,59,194,236,254,7,370,111,250,393,41,61,190,416,204,363,221,359,401,355,230,450,267,311,31,72,398,298,24,151,237,224,437,38,25,470,378,356,122,143,187,96,367,275,399,371,54,36,438,163,278,9,161,285,171,245,435,177,457,185,101,266,40,146,430,220,260,73,135,142,215,53,323,258,11,45,328,22,52,158,18,429,385,243,339,90,88,354,201,110,172,62,87,74,432,92,329,82,349,150,325,113,238,297,56,389,207,462,324,466,318,395,231,209,464,469,286,340,408,114,39,170,414,320,381,347,332,479,189,181,300,334,176,369,134,331,344,255,76,253,259,249,137,30,246,16,33,409,183,99,247,157,373,168,5,380,365,28,17,274,270,346,472,478,166,411,242,269,425,188,396,476,439,465,148,301,115,153,364,413,434,117,15,313,131,333,219,405,456,436,303,79,352,403,94,319,140,366,214,23,184,288,460,308,13,200,453,391,208,125,375,47,104,312,295,141,374,239,212,382,445,186,248,179,130,120,10,420,291,433,175,284,377,57,6,386,461,12,169,164,422,341,160,58,43,348,441,282,455,342,14,89,383,85,77,232,165,155,156,95,477,252,109,321,451,49,402,292,407,192,307,421,263,368,392,0,360,19,121,343,191,452,327,345,458,46,474,3,471,84,107,463,256,119,149,428,222,277,136,229,310,80,228,218,144,78,410,362,145,304,379,35,427,330,361,206,210,353,468,127,444,351,337,128,406,317,123,316,26,147,459,174,205,106,376,223,233,357,167,390,180,257,417,234,440,139,279,133,467,34,264,241,358,289,305,116,196,182,71,336,424,42,448,302,65,70,418,426,235,97,216,394,93,60,197,473,138,98,102,132,281,273,227,412,199,262,397,350,81,265,446,276,299,225,195,2,64,63,314,44,66,8,447,226,217,384,129,50,159,178,100,193,83,335,326,388,306,280,240,20,419,213,203,431,48,29,68,108,423,67,69,400,387,443,442,261,4,198,338,21,322,51,162,202,32,268,103,55,372,112,105,309,37,454,124,1,173,449,283,290,475,152,251,315,244,211,118,91,75,293,154]","arrowleft","0","9","96","480","[""0081_N0480_K0096_CLIQUE"",""0014_N0480_K0096_NOCLIQUE""]",""
"","audio-keyboard-response","118","1219077","0.0-61.2-0.2-1.2","","","","","","","","","","","","","","","","","","null","audio_feedback/shuffles/shuffle01.mp3","null","","","0","9","96","480","[""0081_N0480_K0096_CLIQUE"",""0014_N0480_K0096_NOCLIQUE""]",""
"","canvas-keyboard-response","119","1223762","0.0-61.3-0.3-0.3","","","","","","","","","","","","","","","","","","4581","","arrowleft","[362,449,39,58,11,410,365,381,325,52,463,242,220,243,28,19,224,391,43,436,331,158,26,45,397,405,262,98,307,206,423,180,363,455,281,409,326,213,232,335,204,57,132,171,244,44,415,360,18,403,296,454,165,119,135,273,141,137,260,393,460,14,181,170,5,252,104,215,108,110,245,475,42,420,458,451,336,395,376,385,359,227,197,139,406,467,94,255,310,462,127,72,270,68,151,120,304,266,448,55,284,191,91,189,392,216,233,185,319,79,265,63,350,179,122,356,199,214,8,234,25,479,235,21,294,75,168,142,102,341,9,129,73,16,431,196,424,370,358,323,297,474,148,174,369,154,249,138,60,222,37,268,80,86,432,6,382,257,172,282,82,450,218,113,237,400,439,398,4,407,441,372,109,276,241,347,468,464,93,155,164,288,156,411,286,134,147,112,317,66,78,298,238,279,62,184,459,300,30,394,230,3,69,375,472,427,145,408,74,311,105,470,36,131,368,173,285,278,202,106,153,377,84,274,321,364,210,114,15,178,327,161,453,77,412,401,292,290,354,47,226,324,67,41,35,203,159,248,379,269,476,466,124,29,399,373,169,386,116,92,81,264,303,367,444,186,396,188,309,416,150,225,418,157,388,12,0,97,443,353,456,318,211,329,338,10,283,258,24,50,316,417,440,223,312,251,54,320,51,236,195,231,305,85,182,342,348,61,322,308,293,445,366,163,38,13,99,343,96,378,428,413,344,160,337,143,277,177,280,437,289,374,217,435,126,209,340,1,40,349,187,111,383,291,31,250,271,247,438,334,59,246,65,263,471,352,193,287,83,20,87,118,272,183,228,332,357,48,149,64,34,136,162,33,384,123,201,259,478,107,46,207,414,219,267,133,314,465,389,380,345,32,346,200,22,90,128,140,205,452,190,115,130,425,121,313,240,125,433,469,430,446,404,56,71,256,17,23,434,330,176,429,253,144,371,76,212,95,351,261,7,390,88,339,27,146,457,333,239,301,426,473,152,2,447,302,166,387,221,355,295,299,402,442,101,419,175,361,70,53,192,117,254,229,103,89,275,421,315,100,198,328,422,49,208,477,194,461,306,167]","arrowleft","0","9","96","480","[""0081_N0480_K0096_CLIQUE"",""0014_N0480_K0096_NOCLIQUE""]","true"
"","audio-keyboard-response","120","1224757","0.0-61.3-0.3-1.3","","","","","","","","","","","","","","","","","","null","audio_feedback/right/coin01.mp3","null","","","0","9","96","480","[""0081_N0480_K0096_CLIQUE"",""0014_N0480_K0096_NOCLIQUE""]",""
