"width","height","webaudio","browser","browser_version","mobile","os","fullscreen","vsync_rate","webcam","microphone","trial_type","trial_index","time_elapsed","internal_node_id","value","success","timeout","failed_images","failed_audio","failed_video","view_history","rt","stimulus","response","nodes_order","correct_response","correct","block_index","presentation_index","clique_size","graph_size","graphs_names"
"1440","731","true","chrome","133.0.0","false","Windows 10","true","60.7","true","true","browser-check","0","991","0.0-0.0","","","","","","","","","","","","","","","","","",""
"","","","","","","","","","","","call-function","1","1002","0.0-1.0","","","","","","","","","","","","","","","","","",""
"","","","","","","","","","","","preload","2","1055","0.0-2.0","","true","false","[]","[]","[]","","","","","","","","","","","",""
"","","","","","","","","","","","pavlovia","3","1339","0.0-3.0","","","","","","","","","","","","","","","","","",""
"","","","","","","","","","","","instructions","4","2231","0.0-4.0","","","","","","","[{""page_index"":0,""viewing_time"":746},{""page_index"":1,""viewing_time"":145}]","891","","","","","","","","","",""
"","","","","","","","","","","","html-keyboard-response","5","3560","0.0-5.0-0.0","","","","","","","","1327","By accepting to participate in this study, you confirm:
                <p style='text-align:left'>
                    - That I have carefully read the explanations regarding this study and the entire experimental procedure;<br>
                    - That I have been informed about the aims and objectives of this research;<br>
                    - That I am aware of the inconveniences, if any, caused by the experiment;<br>
                    - That I have received satisfactory assurances regarding the confidentiality of the information obtained from the examination of my own person; <br>
                    - That I am aware that I can withdraw at any stage of the study.
                <p>
                <span style=""color: #808080"">
                    Press [Y] to <strong>accept</strong>.
                </span> <br>
                <span style=""color: #808080"">
                    Press [N] to <strong>refuse</strong>.
                </span>","y","","","","","","","",""
"","","","","","","","","","","","survey-html-form","6","6913","0.0-6.0","","","","","","","","3351","","{""gender"":""male"",""age"":""23""}","","","","","","","",""
"","","","","","","","","","","","preload","7","7243","0.0-7.0","","true","false","[]","[]","[]","","","","","","","","","","","",""
"","","","","","","","","","","","instructions","8","15319","0.0-8.0","","","","","","","[{""page_index"":0,""viewing_time"":715},{""page_index"":1,""viewing_time"":162},{""page_index"":2,""viewing_time"":110},{""page_index"":3,""viewing_time"":128},{""page_index"":4,""viewing_time"":113},{""page_index"":5,""viewing_time"":128},{""page_index"":6,""viewing_time"":80},{""page_index"":7,""viewing_time"":239},{""page_index"":8,""viewing_time"":113},{""page_index"":9,""viewing_time"":144},{""page_index"":10,""viewing_time"":128},{""page_index"":11,""viewing_time"":113},{""page_index"":12,""viewing_time"":144},{""page_index"":13,""viewing_time"":127},{""page_index"":14,""viewing_time"":97},{""page_index"":15,""viewing_time"":127},{""page_index"":16,""viewing_time"":161},{""page_index"":17,""viewing_time"":146},{""page_index"":18,""viewing_time"":206},{""page_index"":19,""viewing_time"":128},{""page_index"":20,""viewing_time"":225},{""page_index"":21,""viewing_time"":95},{""page_index"":22,""viewing_time"":112},{""page_index"":23,""viewing_time"":335},{""page_index"":24,""viewing_time"":176},{""page_index"":25,""viewing_time"":225},{""page_index"":26,""viewing_time"":127},{""page_index"":27,""viewing_time"":144},{""page_index"":28,""viewing_time"":128},{""page_index"":29,""viewing_time"":128},{""page_index"":30,""viewing_time"":129},{""page_index"":31,""viewing_time"":160},{""page_index"":32,""viewing_time"":143},{""page_index"":33,""viewing_time"":129},{""page_index"":34,""viewing_time"":112},{""page_index"":35,""viewing_time"":160},{""page_index"":36,""viewing_time"":130},{""page_index"":37,""viewing_time"":160},{""page_index"":38,""viewing_time"":126},{""page_index"":39,""viewing_time"":145},{""page_index"":40,""viewing_time"":129},{""page_index"":41,""viewing_time"":95},{""page_index"":42,""viewing_time"":145},{""page_index"":43,""viewing_time"":128},{""page_index"":44,""viewing_time"":176},{""page_index"":45,""viewing_time"":127},{""page_index"":46,""viewing_time"":143},{""page_index"":47,""viewing_time"":144},{""page_index"":48,""viewing_time"":144},{""page_index"":49,""viewing_time"":161},{""page_index"":50,""viewing_time"":144},{""page_index"":51,""viewing_time"":143}]","8076","","","","","","","","","",""
"","","","","","","","","","","","instructions","9","15990","0.0-9.0","","","","","","","[{""page_index"":0,""viewing_time"":671}]","671","","","","","","","","","",""
"","","","","","","","","","","","preload","10","16349","0.0-10.0","","true","false","[]","[]","[]","","","","","","","","","","","",""
"","","","","","","","","","","","image-keyboard-response","11","16502","0.0-11.0","","","","","","","","151","tutorial/p_reduce/task_familiarization_images/part 1/01_N160_K90_cliqueRight_question1.PNG"," ","","","","","","","",""
"","","","","","","","","","","","image-keyboard-response","12","16743","0.0-12.0","","","","","","","","239","tutorial/p_reduce/task_familiarization_images/part 1/02_N160_K90_cliqueRight_question2.PNG"," ","","","","","","","",""
"","","","","","","","","","","","image-keyboard-response","13","17047","0.0-13.0","","","","","","","","301","tutorial/p_reduce/task_familiarization_images/part 1/03_N160_K90_cliqueRight_question3.PNG","arrowright","","","","","","","",""
"","","","","","","","","","","","image-keyboard-response","14","17254","0.0-14.0","","","","","","","","205","tutorial/p_reduce/task_familiarization_images/part 1/04_N160_K90_cliqueRight_solution.PNG"," ","","","","","","","",""
"","","","","","","","","","","","image-keyboard-response","15","17511","0.0-15.0","","","","","","","","255","tutorial/p_reduce/task_familiarization_images/part 1/05_N160_K65_cliqueRight_question1.PNG"," ","","","","","","","",""
"","","","","","","","","","","","image-keyboard-response","16","17944","0.0-16.0","","","","","","","","432","tutorial/p_reduce/task_familiarization_images/part 1/06_N160_K65_cliqueRight_question2.PNG"," ","","","","","","","",""
"","","","","","","","","","","","image-keyboard-response","17","18631","0.0-17.0","","","","","","","","685","tutorial/p_reduce/task_familiarization_images/part 1/07_N160_K65_cliqueRight_question3.PNG","arrowleft","","","","","","","",""
"","","","","","","","","","","","image-keyboard-response","18","18839","0.0-18.0","","","","","","","","206","tutorial/p_reduce/task_familiarization_images/part 1/08_N160_K65_cliqueRight_solution.PNG"," ","","","","","","","",""
"","","","","","","","","","","","image-keyboard-response","19","19096","0.0-19.0","","","","","","","","254","tutorial/p_reduce/task_familiarization_images/part 1/09_N160_K50_cliqueLeft_question1.PNG"," ","","","","","","","",""
"","","","","","","","","","","","image-keyboard-response","20","19352","0.0-20.0","","","","","","","","254","tutorial/p_reduce/task_familiarization_images/part 1/10_N160_K50_cliqueLeft_question2.PNG"," ","","","","","","","",""
"","","","","","","","","","","","image-keyboard-response","21","19417","0.0-21.0","","","","","","","","61","tutorial/p_reduce/task_familiarization_images/part 1/11_N160_K50_cliqueLeft_question3.PNG","arrowleft","","","","","","","",""
"","","","","","","","","","","","image-keyboard-response","22","19574","0.0-22.0","","","","","","","","155","tutorial/p_reduce/task_familiarization_images/part 1/12_N160_K50_cliqueLeft_solution.PNG"," ","","","","","","","",""
"","","","","","","","","","","","image-keyboard-response","23","20039","0.0-23.0","","","","","","","","464","tutorial/p_reduce/task_familiarization_images/part 1/13_N160_K80_cliqueLeft_question1.PNG"," ","","","","","","","",""
"","","","","","","","","","","","image-keyboard-response","24","20311","0.0-24.0","","","","","","","","271","tutorial/p_reduce/task_familiarization_images/part 1/14_N160_K80_cliqueLeft_question2.PNG"," ","","","","","","","",""
"","","","","","","","","","","","image-keyboard-response","25","20327","0.0-25.0","","","","","","","","14","tutorial/p_reduce/task_familiarization_images/part 1/15_N160_K80_cliqueLeft_question3.PNG","arrowleft","","","","","","","",""
"","","","","","","","","","","","image-keyboard-response","26","20584","0.0-26.0","","","","","","","","256","tutorial/p_reduce/task_familiarization_images/part 1/16_N160_K80_cliqueLeft_solution.PNG"," ","","","","","","","",""
"","","","","","","","","","","","image-keyboard-response","27","20806","0.0-27.0","","","","","","","","221","tutorial/p_reduce/task_familiarization_images/part 1/17_N160_K40_cliqueRight_question1.PNG"," ","","","","","","","",""
"","","","","","","","","","","","image-keyboard-response","28","21047","0.0-28.0","","","","","","","","239","tutorial/p_reduce/task_familiarization_images/part 1/18_N160_K40_cliqueRight_question2.PNG"," ","","","","","","","",""
"","","","","","","","","","","","image-keyboard-response","29","21142","0.0-29.0","","","","","","","","94","tutorial/p_reduce/task_familiarization_images/part 1/19_N160_K40_cliqueRight_question3.PNG","arrowright","","","","","","","",""
"","","","","","","","","","","","image-keyboard-response","30","21318","0.0-30.0","","","","","","","","175","tutorial/p_reduce/task_familiarization_images/part 1/20_N160_K40_cliqueRight_solution.PNG"," ","","","","","","","",""
"","","","","","","","","","","","image-keyboard-response","31","21574","0.0-31.0","","","","","","","","255","tutorial/p_reduce/task_familiarization_images/part 1/21_N160_K70_cliqueLeft_question1.PNG"," ","","","","","","","",""
"","","","","","","","","","","","image-keyboard-response","32","21782","0.0-32.0","","","","","","","","206","tutorial/p_reduce/task_familiarization_images/part 1/22_N160_K70_cliqueLeft_question2.PNG"," ","","","","","","","",""
"","","","","","","","","","","","image-keyboard-response","33","21959","0.0-33.0","","","","","","","","177","tutorial/p_reduce/task_familiarization_images/part 1/23_N160_K70_cliqueLeft_question3.PNG","arrowleft","","","","","","","",""
"","","","","","","","","","","","image-keyboard-response","34","22327","0.0-34.0","","","","","","","","366","tutorial/p_reduce/task_familiarization_images/part 1/24_N160_K70_cliqueLeft_solution.PNG"," ","","","","","","","",""
"","","","","","","","","","","","preload","35","22571","0.0-35.0","","true","false","[]","[]","[]","","","","","","","","","","","",""
"","","","","","","","","","","","image-keyboard-response","36","22904","0.0-36.0","","","","","","","","331","tutorial/p_reduce/task_familiarization_images/part 2/01_N160_K80_cliqueLeft_withFeedback_1.PNG"," ","","","","","","","",""
"","","","","","","","","","","","image-keyboard-response","37","23177","0.0-37.0","","","","","","","","270","tutorial/p_reduce/task_familiarization_images/part 2/02_N160_K80_cliqueLeft_withFeedback_2.PNG"," ","","","","","","","",""
"","","","","","","","","","","","image-keyboard-response","38","23216","0.0-38.0","","","","","","","","37","tutorial/p_reduce/task_familiarization_images/part 2/03_N160_K80_cliqueLeft_withFeedback_3.PNG","arrowright","","","","","","","",""
"","","","","","","","","","","","image-keyboard-response","39","23495","0.0-39.0","","","","","","","","277","tutorial/p_reduce/task_familiarization_images/part 2/04_N160_K80_cliqueLeft_withFeedback_wrong.PNG"," ","","","","","","","",""
"","","","","","","","","","","","image-keyboard-response","40","23768","0.0-40.0","","","","","","","","271","tutorial/p_reduce/task_familiarization_images/part 2/05_N160_K55_cliqueRight_withFeedback_1.PNG"," ","","","","","","","",""
"","","","","","","","","","","","image-keyboard-response","41","24088","0.0-41.0","","","","","","","","318","tutorial/p_reduce/task_familiarization_images/part 2/06_N160_K55_cliqueRight_withFeedback_2.PNG"," ","","","","","","","",""
"","","","","","","","","","","","image-keyboard-response","42","24774","0.0-42.0","","","","","","","","684","tutorial/p_reduce/task_familiarization_images/part 2/07_N160_K55_cliqueRight_withFeedback_3.PNG","arrowleft","","","","","","","",""
"","","","","","","","","","","","image-keyboard-response","43","24887","0.0-43.0","","","","","","","","110","tutorial/p_reduce/task_familiarization_images/part 2/08_N160_K55_cliqueRight_withFeedback_wrong.PNG"," ","","","","","","","",""
"","","","","","","","","","","","image-keyboard-response","44","25367","0.0-44.0","","","","","","","","478","tutorial/p_reduce/task_familiarization_images/part 2/09_N160_K70_cliqueLeft_withFeedback_1.PNG"," ","","","","","","","",""
"","","","","","","","","","","","image-keyboard-response","45","25510","0.0-45.0","","","","","","","","142","tutorial/p_reduce/task_familiarization_images/part 2/10_N160_K70_cliqueLeft_withFeedback_2.PNG"," ","","","","","","","",""
"","","","","","","","","","","","image-keyboard-response","46","25766","0.0-46.0","","","","","","","","255","tutorial/p_reduce/task_familiarization_images/part 2/11_N160_K70_cliqueLeft_withFeedback_3.PNG","arrowleft","","","","","","","",""
"","","","","","","","","","","","image-keyboard-response","47","26073","0.0-47.0","","","","","","","","305","tutorial/p_reduce/task_familiarization_images/part 2/12_N160_K70_cliqueLeft_withFeedback_correct.PNG"," ","","","","","","","",""
"","","","","","","","","","","","preload","48","26367","0.0-48.0","","true","false","[]","[]","[]","","","","","","","","","","","",""
"","","","","","","","","","","","instructions","49","26998","0.0-49.0","","","","","","","[{""page_index"":0,""viewing_time"":630}]","630","","","","","","","","","",""
"","","","","","","","","","","","fullscreen","50","30177","0.0-51.0","","true","","","","","","","","","","","","","","","",""
"","","","","","","","","","","","canvas-keyboard-response","51","33142","0.0-52.0-0.0-0.0","","","","","","","","2839","","arrowright","[238,429,230,192,330,265,95,465,218,380,203,371,116,358,403,336,51,189,134,48,366,30,108,398,257,195,417,100,176,415,248,137,86,283,14,234,339,32,262,77,41,389,444,457,281,326,426,240,138,182,206,142,376,258,214,433,439,249,232,180,351,427,166,270,272,23,458,421,416,28,325,303,27,90,167,115,18,5,354,479,181,327,388,204,264,101,193,473,54,355,369,187,392,372,307,165,451,475,199,250,445,8,154,208,55,324,420,61,183,139,288,133,469,384,102,11,255,377,294,124,26,353,456,466,239,328,374,110,314,298,395,119,201,236,159,387,89,356,373,297,91,284,245,462,460,342,310,66,157,447,344,323,16,209,81,97,93,224,144,379,276,334,454,210,300,409,179,143,440,242,0,476,146,171,111,83,25,104,34,73,107,63,401,391,145,163,247,106,164,412,217,285,273,295,268,375,57,316,396,113,305,468,338,220,343,399,360,407,31,141,60,329,241,400,308,131,130,190,437,431,109,267,438,471,367,38,225,212,349,70,96,185,170,287,261,413,306,46,35,196,406,44,309,39,211,422,256,68,233,136,151,40,21,92,229,346,103,50,478,177,442,42,47,219,200,162,58,156,299,65,7,147,213,15,37,423,12,435,348,149,114,252,174,333,52,410,243,368,1,202,378,235,19,370,29,10,350,441,345,419,347,293,470,362,45,186,246,127,140,126,112,94,304,357,432,184,121,82,313,411,99,168,122,436,24,125,194,251,20,22,71,49,341,216,335,428,277,17,289,169,62,315,383,152,461,340,263,128,221,254,117,191,160,359,280,173,331,43,197,153,463,402,332,74,188,205,474,75,226,148,448,253,69,123,393,352,311,198,118,464,150,443,80,418,178,363,446,79,222,53,290,404,302,76,434,301,98,382,223,88,259,158,260,364,318,105,381,3,120,228,467,408,129,135,172,455,84,231,459,405,337,320,36,33,312,87,6,430,271,292,278,266,85,215,2,56,472,449,227,453,394,321,450,279,452,274,155,207,317,275,424,132,425,59,67,291,477,72,397,286,322,296,361,385,237,269,244,175,64,414,319,9,78,4,13,386,282,161,365,390]","arrowright","true","0","0","144","480","[""0001_N0480_K0144_NOCLIQUE"",""0032_N0480_K0144_CLIQUE""]"
"","","","","","","","","","","","audio-keyboard-response","52","34159","0.0-52.0-0.0-1.0","","","","","","","","null","audio_feedback/right/coin01.mp3","null","","","","0","0","144","480","[""0001_N0480_K0144_NOCLIQUE"",""0032_N0480_K0144_CLIQUE""]"
"","","","","","","","","","","","canvas-keyboard-response","53","35062","0.0-53.0-0.0-0.0","","","","","","","","748","","arrowright","[131,466,18,207,79,473,269,479,444,162,271,325,337,74,406,457,11,112,377,245,342,147,282,35,376,38,139,41,417,455,361,368,278,295,449,126,39,97,301,407,153,84,448,209,145,42,192,405,212,66,360,56,388,319,341,358,460,76,179,25,261,213,163,399,0,375,64,311,183,438,297,412,196,419,410,338,268,154,378,362,300,62,100,365,345,381,333,80,52,389,103,73,116,394,152,121,219,214,208,299,96,352,171,111,13,241,364,304,249,106,393,355,63,98,229,292,61,19,17,82,218,234,464,418,335,120,33,181,201,427,155,81,53,197,426,433,289,12,452,385,288,334,263,332,257,227,290,397,45,312,36,383,185,459,50,277,408,115,32,349,164,178,70,194,372,86,127,266,118,193,239,176,359,262,370,104,40,430,175,9,167,224,148,350,366,21,158,78,264,313,369,233,57,244,187,94,401,55,440,125,141,331,252,58,110,223,202,8,428,353,226,77,89,85,34,348,184,293,379,471,344,146,281,65,431,88,170,443,328,305,306,256,310,318,102,432,442,105,250,287,200,93,228,28,198,119,435,254,477,60,220,49,374,283,142,117,265,409,429,1,424,188,468,238,272,330,24,136,434,157,232,390,166,43,396,95,37,463,302,303,308,470,10,465,46,26,329,267,44,384,339,279,260,242,159,109,284,168,315,351,14,205,203,371,354,450,130,469,454,149,276,169,27,48,69,322,458,258,415,243,215,247,16,253,75,144,143,382,320,180,92,398,296,71,404,236,400,3,321,133,29,275,5,134,285,356,2,402,380,87,461,151,478,280,68,182,161,274,20,15,451,99,177,475,195,456,422,128,314,309,391,30,90,476,122,392,138,31,160,47,173,191,150,206,445,316,108,416,217,446,437,248,386,4,326,23,83,340,324,186,421,327,204,140,190,113,403,259,317,210,165,453,413,199,395,298,221,240,101,237,6,137,251,114,174,474,255,135,436,411,441,216,347,124,387,367,270,439,273,67,91,231,286,51,420,373,343,132,291,246,472,462,7,211,357,156,323,447,22,336,123,222,363,59,54,235,129,230,467,189,294,346,414,423,225,107,307,172,72,425]","arrowright","true","0","1","144","480","[""0043_N0480_K0144_NOCLIQUE"",""0100_N0480_K0144_CLIQUE""]"
"","","","","","","","","","","","audio-keyboard-response","54","36058","0.0-53.0-0.0-1.0","","","","","","","","null","audio_feedback/right/coin01.mp3","null","","","","0","1","144","480","[""0043_N0480_K0144_NOCLIQUE"",""0100_N0480_K0144_CLIQUE""]"
"","","","","","","","","","","","canvas-keyboard-response","55","37062","0.0-54.0-0.0-0.0","","","","","","","","634","","arrowleft","[451,304,54,361,400,393,474,441,322,110,354,459,372,199,351,80,47,163,316,114,164,255,276,344,169,358,346,231,433,428,109,366,413,166,13,206,377,408,58,137,350,86,147,259,225,157,94,453,204,121,445,452,461,212,192,267,104,293,479,438,173,306,134,161,299,300,87,303,476,218,449,83,399,426,179,423,397,407,41,75,68,242,389,371,23,175,71,70,136,458,233,258,28,184,55,330,251,197,266,168,411,291,478,142,466,470,403,286,92,381,65,56,270,181,115,167,327,318,172,279,375,148,60,359,209,275,310,42,437,436,89,380,207,471,309,463,349,464,382,140,77,475,66,119,183,152,378,162,457,419,50,336,421,158,5,144,176,334,220,139,331,237,234,340,108,138,112,102,7,347,404,195,244,429,248,263,444,333,3,10,384,81,193,473,357,29,278,295,352,125,61,18,9,36,146,321,98,74,17,273,455,51,440,31,454,477,460,0,247,339,131,271,203,133,215,62,111,348,398,217,290,189,326,342,281,99,105,396,409,170,34,187,264,223,230,250,205,450,374,311,16,186,341,44,88,462,298,320,285,120,154,171,19,373,143,117,213,446,328,363,416,420,126,385,190,82,338,360,305,32,202,57,64,201,63,180,367,337,324,222,388,2,97,191,323,53,236,22,287,235,4,376,67,468,427,430,308,135,85,156,249,301,386,185,443,345,122,442,405,46,283,24,383,128,6,402,307,224,369,415,49,198,313,91,256,72,43,253,90,280,130,106,435,425,100,315,153,177,364,292,52,424,48,129,116,229,39,302,132,221,241,467,434,252,200,365,368,59,268,174,269,84,387,390,79,254,282,40,469,335,15,422,456,296,243,211,448,159,294,21,392,265,141,26,262,418,447,277,103,101,410,113,194,356,219,123,274,394,118,232,30,95,20,317,332,417,325,196,155,69,38,96,319,145,391,412,151,216,284,272,312,314,27,165,246,1,73,353,228,431,370,261,160,362,355,472,124,401,188,178,35,289,226,45,238,78,208,210,432,150,93,127,245,343,379,25,182,406,149,240,465,439,395,14,12,329,107,33,414,297,11,214,37,288,239,227,257,8,76,260]","arrowleft","true","0","2","128","480","[""0027_N0480_K0128_CLIQUE"",""0094_N0480_K0128_NOCLIQUE""]"
"","","","","","","","","","","","audio-keyboard-response","56","38059","0.0-54.0-0.0-1.0","","","","","","","","null","audio_feedback/right/coin01.mp3","null","","","","0","2","128","480","[""0027_N0480_K0128_CLIQUE"",""0094_N0480_K0128_NOCLIQUE""]"
"","","","","","","","","","","","canvas-keyboard-response","57","38918","0.0-55.0-0.0-0.0","","","","","","","","724","","arrowright","[425,375,84,407,259,329,250,299,461,317,93,215,290,424,47,74,83,272,238,300,359,113,85,167,152,284,32,134,283,160,464,81,437,174,390,190,31,412,307,469,442,249,164,410,107,159,219,251,429,79,347,252,41,109,244,157,60,70,175,184,144,224,49,76,148,465,479,185,191,240,415,217,86,156,99,163,353,358,445,368,455,378,100,454,305,453,311,318,130,471,65,146,295,315,126,435,9,458,123,108,457,142,63,88,120,400,344,447,263,340,133,449,459,296,401,229,78,44,271,325,20,239,118,94,197,357,328,475,96,319,1,231,211,39,36,393,345,2,213,470,281,33,335,389,247,129,198,369,268,178,173,201,360,308,387,293,423,172,15,7,166,370,192,399,466,441,462,212,326,414,147,136,336,385,182,87,264,436,42,124,273,391,187,21,104,183,274,80,4,352,64,226,472,206,77,275,332,188,339,289,381,322,278,111,432,62,362,235,242,373,257,292,367,433,473,321,254,456,25,55,294,176,189,119,297,348,170,417,431,0,291,137,125,320,149,285,468,286,460,19,194,34,3,280,8,103,363,128,243,304,355,237,452,337,404,181,180,98,248,202,186,208,262,22,69,227,26,451,409,330,200,207,110,29,265,392,68,158,18,193,419,260,154,384,282,140,342,450,438,106,91,112,114,216,406,324,221,73,57,298,30,396,169,301,474,408,277,162,225,372,443,214,72,258,302,418,334,356,161,365,38,222,61,177,448,253,386,434,333,430,341,199,394,95,236,230,132,90,444,338,463,306,382,58,476,246,127,50,6,303,276,40,376,261,43,416,350,48,45,374,232,477,165,388,279,5,46,171,220,56,17,89,427,478,361,354,343,428,121,13,139,153,179,402,117,371,267,23,116,233,245,210,266,364,349,75,143,331,270,467,327,366,269,287,35,52,24,115,71,413,380,346,54,439,203,82,228,27,59,316,67,151,218,241,379,205,377,10,16,314,421,351,288,398,12,204,131,92,312,105,440,135,323,37,53,11,422,234,196,102,66,405,101,28,155,446,395,209,150,14,313,411,141,145,255,138,403,310,97,168,397,223,256,426,383,420,122,309,51,195]","arrowright","true","0","3","128","480","[""0051_N0480_K0128_NOCLIQUE"",""0022_N0480_K0128_CLIQUE""]"
"","","","","","","","","","","","audio-keyboard-response","58","39918","0.0-55.0-0.0-1.0","","","","","","","","null","audio_feedback/right/coin01.mp3","null","","","","0","3","128","480","[""0051_N0480_K0128_NOCLIQUE"",""0022_N0480_K0128_CLIQUE""]"
"","","","","","","","","","","","canvas-keyboard-response","59","40888","0.0-56.0-0.0-0.0","","","","","","","","557","","arrowleft","[436,434,404,180,0,197,372,43,75,3,438,242,313,148,301,379,34,127,257,83,370,315,174,280,39,19,292,195,440,105,20,125,415,341,339,360,151,203,164,79,320,413,290,133,147,449,115,382,193,23,213,306,381,247,96,319,101,273,201,2,330,9,6,187,54,29,111,356,202,1,71,166,468,403,384,289,427,479,11,16,168,322,447,342,66,128,37,112,131,205,336,390,416,260,72,232,364,432,385,55,454,424,157,422,165,358,279,139,296,327,426,217,270,473,355,114,462,206,277,221,377,155,56,410,41,24,429,108,207,208,219,85,297,57,65,412,288,159,236,44,12,122,393,163,334,262,311,107,407,106,239,74,86,10,40,375,169,49,317,120,437,309,5,64,53,402,304,229,235,223,285,476,68,215,350,254,282,328,409,17,357,130,321,466,182,300,138,295,303,145,256,269,362,28,405,271,457,371,275,199,188,373,323,171,227,298,268,92,134,36,76,194,293,113,231,258,93,347,228,308,173,103,425,167,460,204,161,450,395,136,332,222,88,351,152,264,445,110,421,59,291,185,124,80,278,461,210,42,261,140,243,418,349,286,31,27,198,451,119,272,234,89,252,226,455,26,178,307,302,156,367,241,406,400,18,444,469,245,196,331,73,299,150,144,305,428,398,326,408,378,21,123,189,104,237,143,87,397,192,249,263,365,98,401,170,162,90,51,417,265,179,33,338,238,61,47,69,335,452,84,283,186,446,259,396,212,419,233,316,314,333,435,118,392,463,48,471,354,329,324,359,467,30,81,70,369,22,209,470,411,318,475,477,458,13,14,391,361,67,253,218,244,216,25,184,52,132,225,340,387,337,353,15,149,230,363,474,224,420,117,32,160,442,214,158,276,430,126,8,348,46,456,459,346,172,376,246,135,294,472,465,4,176,266,82,383,211,63,240,255,250,50,78,116,146,431,190,220,77,38,181,368,94,439,344,325,121,443,109,281,267,142,91,310,414,175,380,374,388,153,284,60,97,464,99,62,343,366,394,137,248,95,35,389,129,441,154,312,274,287,183,345,423,386,352,433,7,251,100,478,58,399,102,45,191,177,453,141,200,448]","arrowleft","true","0","4","112","480","[""0080_N0480_K0112_CLIQUE"",""0078_N0480_K0112_NOCLIQUE""]"
"","","","","","","","","","","","audio-keyboard-response","60","41879","0.0-56.0-0.0-1.0","","","","","","","","null","audio_feedback/right/coin01.mp3","null","","","","0","4","112","480","[""0080_N0480_K0112_CLIQUE"",""0078_N0480_K0112_NOCLIQUE""]"
"","","","","","","","","","","","canvas-keyboard-response","61","43350","0.0-57.0-0.0-0.0","","","","","","","","1024","","arrowleft","[91,156,226,291,445,290,176,71,281,423,448,39,339,394,96,270,33,456,303,49,173,155,75,111,439,317,76,343,399,146,65,274,261,469,267,380,179,183,18,37,420,462,69,105,5,125,396,19,209,306,444,57,24,102,11,351,203,62,357,284,177,188,419,442,298,374,378,407,472,296,333,238,151,38,338,329,344,58,379,416,214,468,228,241,368,222,109,286,192,144,259,40,350,475,147,70,353,250,360,476,234,367,122,97,283,363,82,83,428,169,47,196,240,148,94,88,55,202,438,174,426,411,201,304,194,454,465,152,300,208,22,21,277,247,79,181,279,108,451,470,60,434,459,154,437,30,159,249,449,77,9,51,99,225,429,345,457,215,391,170,36,35,143,115,450,320,233,299,288,251,314,322,392,386,64,28,458,467,242,123,187,347,110,130,136,302,124,324,404,85,352,362,268,287,266,323,319,421,44,262,373,107,460,410,59,113,327,295,56,161,273,381,190,390,206,134,13,473,435,358,52,278,321,265,150,366,121,74,309,355,370,223,204,8,452,116,2,294,432,165,217,197,276,232,29,335,385,471,383,257,182,415,310,464,455,221,346,477,200,229,90,184,133,135,72,53,398,193,436,227,413,341,293,211,272,406,397,418,224,342,280,478,260,68,264,308,326,431,269,316,43,216,263,118,312,205,417,401,461,330,180,275,297,253,171,81,369,372,112,479,403,128,328,172,120,400,433,239,3,356,337,213,158,41,175,235,405,185,4,198,189,382,371,393,246,336,167,402,364,106,301,117,34,384,219,46,466,98,243,95,142,54,32,186,395,15,230,315,218,318,388,236,289,412,430,168,163,359,375,17,307,376,166,66,131,440,254,80,23,138,377,212,27,48,255,50,245,191,425,45,354,84,16,361,332,126,149,422,140,443,447,331,153,207,463,132,474,408,231,78,87,349,157,305,414,119,10,25,92,195,311,389,20,104,282,114,178,86,164,101,0,427,271,256,220,162,348,258,14,42,334,73,453,63,127,139,137,365,12,387,325,61,103,26,446,141,313,210,1,285,248,292,199,441,31,340,6,93,100,129,160,409,252,67,244,89,145,237,7,424]","arrowleft","true","0","5","112","480","[""0069_N0480_K0112_CLIQUE"",""0084_N0480_K0112_NOCLIQUE""]"
"","","","","","","","","","","","audio-keyboard-response","62","44338","0.0-57.0-0.0-1.0","","","","","","","","null","audio_feedback/right/coin01.mp3","null","","","","0","5","112","480","[""0069_N0480_K0112_CLIQUE"",""0084_N0480_K0112_NOCLIQUE""]"
"","","","","","","","","","","","canvas-keyboard-response","63","45494","0.0-58.0-0.0-0.0","","","","","","","","763","","arrowleft","[458,358,442,437,175,61,72,459,379,347,1,476,55,163,56,47,449,307,148,360,181,319,129,272,78,311,341,232,119,21,293,182,244,355,410,186,448,107,201,40,189,431,470,36,234,400,286,246,298,432,102,113,423,373,222,247,371,363,364,242,338,39,122,267,25,270,397,315,406,48,10,398,184,132,361,187,422,428,63,66,264,473,134,377,297,116,149,151,259,467,258,426,121,26,353,62,466,157,27,64,317,290,174,154,216,440,330,312,170,127,137,416,188,205,455,420,280,44,146,436,79,173,150,314,97,308,13,49,392,160,238,454,131,203,387,51,128,204,252,277,115,425,282,268,474,105,434,42,335,74,120,126,167,289,389,33,464,164,359,71,396,450,429,243,114,451,469,22,65,4,325,233,145,278,166,340,475,214,334,424,57,368,84,471,168,197,239,303,304,172,219,223,37,30,221,17,390,136,46,309,19,159,403,212,81,468,24,337,59,273,34,210,91,443,87,236,419,291,357,366,343,356,351,462,206,350,82,89,413,152,54,76,153,130,198,96,226,383,269,202,14,342,263,344,435,124,452,300,427,237,369,111,288,407,393,169,180,177,112,281,138,68,83,375,331,372,328,43,123,415,362,18,3,185,144,352,135,411,67,109,207,98,365,35,140,430,80,472,463,178,305,376,349,191,220,456,250,99,439,332,414,418,382,367,251,199,209,333,9,92,94,404,478,31,230,285,320,147,296,117,388,235,193,161,438,370,77,108,354,283,447,374,479,380,224,190,446,327,323,133,253,345,23,11,465,336,378,183,217,29,324,310,32,225,16,52,50,394,241,399,6,110,262,86,292,208,313,385,339,461,299,284,348,142,53,155,276,139,100,391,386,395,322,433,171,211,444,318,103,93,441,294,0,412,329,248,301,460,408,200,5,227,256,260,143,215,192,265,274,104,229,213,245,2,176,381,12,156,228,8,326,38,60,106,41,279,179,384,90,70,295,445,218,73,118,194,266,306,95,196,45,321,261,457,271,254,75,302,162,409,421,249,405,257,231,453,7,275,165,346,401,58,28,125,15,477,85,287,20,101,141,240,255,316,158,402,417,69,195,88]","arrowleft","true","0","6","104","480","[""0015_N0480_K0104_CLIQUE"",""0038_N0480_K0104_NOCLIQUE""]"
"","","","","","","","","","","","audio-keyboard-response","64","46478","0.0-58.0-0.0-1.0","","","","","","","","null","audio_feedback/right/coin01.mp3","null","","","","0","6","104","480","[""0015_N0480_K0104_CLIQUE"",""0038_N0480_K0104_NOCLIQUE""]"
"","","","","","","","","","","","canvas-keyboard-response","65","47654","0.0-59.0-0.0-0.0","","","","","","","","1036","","arrowleft","[100,39,425,357,406,140,404,217,196,300,172,33,68,370,459,48,127,13,438,78,241,303,257,464,329,325,1,42,118,334,227,244,204,177,185,260,299,422,423,133,32,253,82,58,433,167,232,437,145,445,479,361,292,395,383,376,150,132,343,379,412,428,222,270,390,99,89,447,339,454,427,206,386,101,267,69,110,391,176,195,224,294,73,369,207,188,453,54,238,44,202,88,214,351,476,219,392,223,279,16,348,417,295,0,345,161,318,139,74,41,105,104,398,247,259,81,415,315,328,338,421,47,43,340,181,336,124,216,389,405,321,346,265,254,94,208,393,122,402,316,466,350,407,5,146,198,306,76,373,71,49,243,312,324,371,135,203,283,126,55,159,429,311,448,449,455,38,30,228,242,250,394,209,186,323,411,183,290,431,90,469,352,388,284,452,262,4,304,307,293,86,381,215,120,113,63,410,192,22,131,114,98,62,362,97,263,236,396,268,274,320,64,266,286,333,475,468,226,282,245,197,17,158,121,281,12,10,194,59,83,142,264,166,178,225,95,424,378,18,160,108,251,20,182,473,77,102,138,305,205,297,252,256,9,187,313,400,278,409,65,397,163,180,463,349,401,443,478,52,416,80,234,460,119,380,220,375,103,441,382,442,107,239,21,56,61,75,302,248,365,53,363,337,446,155,60,164,115,403,355,384,237,341,342,462,128,173,85,149,301,168,169,125,477,137,11,308,45,8,230,29,314,330,23,112,322,359,184,358,109,385,331,387,360,444,27,193,273,271,57,6,46,435,258,414,335,35,347,367,154,24,175,277,408,136,344,141,67,130,200,147,289,419,123,213,210,153,296,366,364,439,171,179,461,157,285,276,28,287,255,471,212,106,40,372,432,34,309,87,3,26,129,434,450,116,96,174,66,92,134,84,235,2,458,456,418,31,319,15,275,72,436,199,430,249,156,470,272,211,191,189,377,240,221,143,472,231,246,70,148,317,413,451,170,7,354,356,144,368,465,50,327,79,288,190,25,298,291,261,440,19,117,269,14,399,280,36,37,93,353,218,229,165,51,91,326,457,162,467,151,420,310,233,332,374,474,111,152,201,426]","arrowleft","true","0","7","104","480","[""0035_N0480_K0104_CLIQUE"",""0010_N0480_K0104_NOCLIQUE""]"
"","","","","","","","","","","","audio-keyboard-response","66","48639","0.0-59.0-0.0-1.0","","","","","","","","null","audio_feedback/right/coin01.mp3","null","","","","0","7","104","480","[""0035_N0480_K0104_CLIQUE"",""0010_N0480_K0104_NOCLIQUE""]"
"","","","","","","","","","","","canvas-keyboard-response","67","49766","0.0-60.0-0.0-0.0","","","","","","","","623","","arrowright","[247,458,42,15,272,236,440,57,459,78,422,195,344,317,411,159,248,260,384,133,183,398,161,189,473,138,172,77,423,163,99,34,225,45,456,12,158,143,141,56,33,213,415,269,396,266,273,3,383,366,196,293,211,334,410,6,96,394,4,291,212,243,179,335,139,41,322,298,347,97,338,218,164,402,116,90,37,52,55,331,299,341,136,153,461,130,122,191,320,129,354,346,324,421,360,460,202,68,86,428,88,173,61,470,215,71,154,128,274,477,102,387,146,170,316,319,364,126,142,376,420,187,357,246,467,194,140,209,145,127,264,455,349,48,30,204,287,321,405,361,450,471,63,281,391,162,297,120,479,438,174,304,155,199,131,353,447,469,465,468,284,222,93,255,177,210,0,332,283,382,254,157,424,121,251,89,435,14,101,26,413,362,81,137,311,85,452,43,448,409,231,31,238,365,315,168,188,39,208,165,105,32,24,103,17,301,75,328,16,193,282,462,53,186,60,185,339,412,95,279,318,240,379,235,417,310,8,294,216,414,206,393,76,214,381,401,425,220,385,19,107,306,295,47,73,408,98,178,443,373,268,123,234,434,108,83,371,20,351,312,219,29,437,28,7,276,395,36,176,147,463,82,35,472,368,239,74,345,262,192,392,227,134,40,160,278,475,343,175,201,286,309,230,197,466,378,110,288,432,330,148,59,64,358,70,399,418,135,27,464,337,355,403,416,263,308,407,25,427,233,369,11,106,389,265,277,5,285,271,51,113,433,430,171,114,296,87,380,100,307,356,46,200,207,290,406,325,65,229,442,166,451,237,313,124,38,118,303,474,363,150,50,292,22,314,117,253,156,226,375,388,190,431,436,49,445,350,181,270,217,169,2,167,300,66,152,18,198,241,149,242,476,261,184,336,232,72,370,203,10,397,333,111,223,348,258,132,327,13,372,125,275,44,84,404,144,453,228,180,119,182,245,224,400,367,21,244,252,257,250,259,80,67,79,429,457,340,439,289,419,359,1,58,91,256,92,386,104,62,454,151,109,9,377,115,69,326,323,54,441,94,342,329,390,23,374,205,449,426,478,305,302,112,446,280,444,267,249,221,352]","arrowright","true","0","8","96","480","[""0038_N0480_K0096_NOCLIQUE"",""0011_N0480_K0096_CLIQUE""]"
"","","","","","","","","","","","audio-keyboard-response","68","50758","0.0-60.0-0.0-1.0","","","","","","","","null","audio_feedback/right/coin01.mp3","null","","","","0","8","96","480","[""0038_N0480_K0096_NOCLIQUE"",""0011_N0480_K0096_CLIQUE""]"
"","","","","","","","","","","","canvas-keyboard-response","69","51944","0.0-61.0-0.0-0.0","","","","","","","","873","","arrowright","[105,119,121,94,99,66,205,12,2,190,135,388,42,434,72,267,477,254,124,102,15,370,25,427,471,394,250,338,169,441,335,155,188,50,59,324,41,201,3,104,87,1,227,245,225,58,353,452,38,457,30,55,416,443,475,85,426,325,281,408,363,404,54,132,440,156,114,279,242,62,300,315,183,197,468,20,479,264,445,73,16,5,239,297,243,143,130,214,357,333,103,29,369,84,63,165,224,392,278,306,301,424,222,111,412,96,322,327,26,221,289,362,453,98,107,81,411,375,356,385,466,463,448,47,340,364,168,380,226,418,337,179,414,371,210,303,396,53,164,451,474,176,376,60,462,271,166,438,106,100,65,147,296,292,202,314,203,339,366,330,341,360,212,19,21,52,460,6,405,280,423,277,316,175,90,174,345,413,456,238,349,383,75,449,261,283,431,282,0,127,112,328,329,273,44,206,308,293,23,80,317,323,158,251,187,35,14,386,450,374,288,401,9,113,45,257,177,355,217,406,260,346,33,152,284,51,240,428,232,465,192,435,125,69,122,265,228,359,149,442,129,204,268,40,365,39,88,387,233,372,131,286,437,313,459,458,173,248,274,198,120,236,18,326,167,4,220,241,215,78,255,331,79,409,266,319,91,378,295,421,189,230,162,101,153,191,270,172,216,390,193,476,402,436,199,299,128,64,213,181,342,89,244,478,77,407,163,57,310,27,256,185,473,361,332,461,305,137,195,432,247,410,348,467,141,444,123,334,24,36,108,7,252,302,118,171,136,86,110,207,294,140,83,464,439,397,92,115,194,126,311,10,148,109,139,272,389,320,144,354,170,154,275,159,70,68,157,17,309,298,43,32,116,269,358,134,430,415,56,34,138,200,97,22,263,13,142,291,391,150,417,470,429,182,28,420,262,145,395,304,234,368,377,259,209,8,447,160,367,446,76,398,237,161,399,219,151,11,321,343,382,218,454,285,246,186,287,379,196,373,253,425,229,455,352,419,307,74,133,95,422,249,49,93,46,82,469,403,318,384,180,61,48,235,276,350,336,146,472,351,184,290,223,208,178,31,344,393,37,400,231,71,117,67,211,433,381,347,258,312]","arrowright","true","0","9","96","480","[""0045_N0480_K0096_NOCLIQUE"",""0074_N0480_K0096_CLIQUE""]"
"","","","","","","","","","","","audio-keyboard-response","70","52938","0.0-61.0-0.0-1.0","","","","","","","","null","audio_feedback/right/coin01.mp3","null","","","","0","9","96","480","[""0045_N0480_K0096_NOCLIQUE"",""0074_N0480_K0096_CLIQUE""]"
"","","","","","","","","","","","canvas-keyboard-response","71","54279","0.0-62.0-0.0-0.0","","","","","","","","866","","arrowleft","[231,248,346,37,317,59,366,67,92,121,307,10,292,173,468,106,438,467,389,338,354,245,151,411,336,152,90,224,91,77,11,372,46,9,1,364,335,283,108,132,262,253,94,172,54,430,334,35,282,33,95,374,381,415,7,234,159,68,361,104,80,378,22,153,115,154,343,39,289,72,209,150,452,62,353,47,278,193,426,386,139,130,243,79,97,178,17,255,425,431,168,207,113,396,384,356,258,120,15,18,208,263,176,420,272,195,434,41,78,322,440,476,21,264,28,365,238,437,427,148,131,270,23,58,213,469,250,390,257,371,296,20,36,458,291,14,223,71,350,125,86,340,293,358,370,167,453,299,259,49,165,239,83,470,202,57,375,200,379,170,313,126,290,194,98,461,297,236,328,392,380,134,308,109,199,368,352,281,260,275,218,465,369,184,436,102,233,85,205,228,169,242,65,190,206,443,144,472,42,181,118,416,261,70,337,149,450,362,112,301,286,230,459,81,175,4,252,398,402,13,280,306,50,342,93,124,447,419,188,373,377,399,397,316,211,212,60,88,314,442,432,348,43,422,413,232,186,157,111,105,265,119,351,24,321,277,418,471,138,387,385,100,433,6,331,288,201,446,246,444,225,44,305,31,197,19,103,16,87,409,183,140,180,171,267,360,53,221,235,355,394,423,5,48,137,383,445,147,110,349,271,146,217,285,464,8,122,269,315,439,324,302,401,421,287,276,174,249,136,407,182,55,75,462,29,448,463,344,473,145,312,210,393,254,455,161,127,320,61,424,237,323,241,435,219,133,403,391,198,405,222,160,40,229,34,460,339,345,311,400,326,284,129,155,214,63,429,73,191,298,51,441,404,74,310,12,329,412,274,187,376,114,227,359,251,454,475,189,76,279,204,177,64,156,135,123,357,116,333,449,466,294,84,25,332,26,216,367,226,319,2,163,244,300,327,32,162,479,128,203,256,179,477,30,363,96,107,478,318,141,27,295,451,417,143,101,117,303,3,220,428,268,414,382,215,395,273,388,166,456,304,45,192,457,247,410,406,330,240,82,89,56,69,266,309,185,66,142,408,474,325,158,52,341,99,164,347,196,0,38]","arrowleft","true","0","10","88","480","[""0088_N0480_K0088_CLIQUE"",""0087_N0480_K0088_NOCLIQUE""]"
"","","","","","","","","","","","audio-keyboard-response","72","55279","0.0-62.0-0.0-1.0","","","","","","","","null","audio_feedback/right/coin01.mp3","null","","","","0","10","88","480","[""0088_N0480_K0088_CLIQUE"",""0087_N0480_K0088_NOCLIQUE""]"
"","","","","","","","","","","","canvas-keyboard-response","73","56150","0.0-63.0-0.0-0.0","","","","","","","","752","","arrowright","[56,332,389,112,445,134,408,349,366,71,140,211,401,450,26,268,398,307,165,459,136,204,212,234,142,338,300,54,277,214,20,379,302,424,365,420,406,163,413,94,323,42,48,425,226,88,329,312,270,473,356,108,77,436,310,257,383,205,434,8,378,470,148,220,375,170,235,31,46,0,304,474,460,65,58,244,364,386,256,193,421,184,86,200,239,414,391,161,267,158,4,172,457,209,449,333,103,120,466,232,78,265,468,442,201,228,269,104,185,50,90,330,297,231,255,451,334,412,156,109,43,262,374,461,141,359,113,126,259,298,168,61,210,107,251,80,127,133,273,84,437,173,306,25,324,40,344,93,3,106,83,271,253,247,305,187,23,353,291,59,213,154,318,164,241,222,152,129,68,407,243,282,352,320,455,17,370,143,79,97,37,27,1,315,87,252,432,45,38,221,411,439,223,11,117,405,275,254,2,102,114,342,325,145,6,76,260,10,180,288,448,348,390,75,274,135,308,409,371,350,418,341,179,24,453,5,47,446,339,402,319,419,198,105,208,427,89,144,431,380,36,82,299,197,215,248,91,336,447,233,160,263,29,9,433,363,118,322,327,64,472,100,278,429,469,376,224,369,162,202,373,266,397,476,242,426,53,236,435,311,191,229,361,167,203,354,388,150,85,294,237,147,7,95,335,181,394,417,57,477,21,321,34,283,462,246,355,367,438,19,219,309,317,74,121,340,328,293,303,280,35,279,284,96,399,131,358,346,423,345,137,155,471,285,385,217,51,316,16,479,465,62,430,206,250,116,15,404,381,475,30,289,225,125,464,230,392,478,189,372,14,176,384,188,130,458,122,111,422,175,276,216,441,60,166,52,99,326,174,393,249,440,218,190,400,416,119,18,207,123,110,347,33,296,157,69,63,192,194,49,153,301,240,22,295,245,39,456,403,290,159,199,182,124,258,186,377,28,387,287,463,12,178,44,351,264,313,73,452,292,368,13,331,138,139,428,196,362,195,32,101,151,128,177,98,343,337,55,67,415,357,66,41,281,70,238,410,360,395,286,396,92,261,132,314,149,454,169,72,146,115,382,171,183,227,467,444,81,272,443]","arrowright","true","0","11","88","480","[""0011_N0480_K0088_NOCLIQUE"",""0090_N0480_K0088_CLIQUE""]"
"","","","","","","","","","","","audio-keyboard-response","74","57138","0.0-63.0-0.0-1.0","","","","","","","","null","audio_feedback/right/coin01.mp3","null","","","","0","11","88","480","[""0011_N0480_K0088_NOCLIQUE"",""0090_N0480_K0088_CLIQUE""]"
"","","","","","","","","","","","canvas-keyboard-response","75","58646","0.0-64.0-0.0-0.0","","","","","","","","1122","","arrowright","[85,325,387,226,29,337,439,477,386,234,28,104,326,298,195,330,183,129,131,266,225,143,454,148,137,224,465,58,469,291,466,191,49,221,302,235,450,31,19,269,40,419,240,170,451,18,135,13,7,23,71,412,185,150,380,105,79,408,363,404,173,168,301,93,228,26,327,223,476,448,73,307,78,189,190,378,405,63,50,311,55,437,276,274,329,268,69,65,305,51,362,394,11,208,106,34,122,210,242,373,388,315,433,213,264,37,473,46,153,470,399,138,232,376,418,372,248,324,134,157,265,120,334,8,4,464,162,339,374,141,41,379,187,364,442,336,252,47,201,102,341,0,313,241,478,203,126,416,421,299,64,5,389,118,295,207,312,293,246,124,398,216,229,344,121,452,370,163,188,411,67,22,218,220,251,166,424,262,440,239,45,128,94,12,114,391,383,231,66,110,304,186,331,445,155,152,289,462,30,272,145,205,144,279,441,35,74,449,429,260,38,414,322,107,89,296,283,75,343,222,125,267,297,420,256,286,300,382,83,80,237,21,367,130,238,385,177,206,422,357,88,127,214,198,182,400,44,355,54,455,359,158,27,353,217,245,314,392,468,236,175,377,76,281,81,62,350,169,254,456,284,323,151,184,384,309,365,3,356,24,415,436,119,348,77,292,97,96,14,306,371,167,459,39,149,60,409,397,196,117,381,165,200,258,403,92,193,161,335,243,346,347,333,275,10,425,247,174,253,197,479,270,460,86,160,172,427,308,338,159,332,2,84,113,91,406,199,20,438,6,32,375,17,402,112,57,1,42,33,164,72,342,393,261,444,430,98,434,53,52,401,257,426,271,16,277,146,321,48,15,139,288,212,215,95,285,43,396,70,360,250,204,407,68,431,345,263,340,410,368,457,255,474,103,82,453,227,116,211,87,156,461,358,209,100,395,417,244,351,259,458,99,219,423,303,123,142,109,319,446,179,115,111,133,310,9,180,273,413,136,282,171,132,349,328,56,249,435,278,154,194,428,447,192,361,90,59,230,101,140,280,25,318,61,181,390,176,287,366,475,467,352,36,432,369,354,178,472,317,320,316,443,108,294,471,202,463,233,290,147]","arrowright","true","0","12","80","480","[""0044_N0480_K0080_NOCLIQUE"",""0025_N0480_K0080_CLIQUE""]"
"","","","","","","","","","","","audio-keyboard-response","76","59638","0.0-64.0-0.0-1.0","","","","","","","","null","audio_feedback/right/coin01.mp3","null","","","","0","12","80","480","[""0044_N0480_K0080_NOCLIQUE"",""0025_N0480_K0080_CLIQUE""]"
"","","","","","","","","","","","canvas-keyboard-response","77","60838","0.0-65.0-0.0-0.0","","","","","","","","1074","","arrowright","[341,26,29,197,86,207,371,287,111,205,159,307,95,155,140,311,214,265,175,172,128,438,6,110,435,247,260,293,280,353,457,5,392,343,22,460,100,359,59,262,277,112,68,372,407,195,152,378,188,434,153,447,462,478,84,443,432,374,43,63,458,330,200,448,97,410,384,2,254,158,77,398,125,399,94,377,232,470,49,213,192,1,414,404,367,363,418,269,424,162,259,286,253,115,193,413,263,57,428,461,16,350,243,223,117,234,217,143,104,15,346,65,41,408,313,271,334,194,177,169,472,345,183,386,456,291,394,224,310,109,178,173,326,231,208,202,419,324,211,226,416,130,60,347,139,239,454,107,360,401,294,463,157,102,82,400,300,373,37,316,322,46,356,415,236,354,268,93,225,279,218,42,106,442,196,91,276,167,18,230,383,339,370,237,233,304,61,479,389,147,120,66,342,113,246,248,436,258,295,388,275,25,459,427,13,412,323,270,430,315,137,144,12,380,171,411,220,98,473,305,296,89,87,402,166,47,14,96,79,146,264,361,425,235,105,185,88,417,331,285,391,244,365,67,203,30,245,306,78,450,221,466,76,288,118,219,138,206,421,299,355,53,160,131,101,27,477,266,74,364,474,50,444,441,70,335,48,187,464,423,165,31,250,409,357,445,390,366,328,393,56,127,132,108,0,116,446,337,452,17,242,136,336,75,255,186,387,181,10,317,298,114,124,180,385,449,440,274,198,90,476,3,163,301,329,382,437,134,273,281,212,455,148,191,170,54,216,39,19,362,348,465,433,201,24,284,58,179,168,453,129,319,338,426,332,184,154,189,395,35,468,182,475,199,333,292,249,141,471,133,318,252,325,320,64,85,81,36,62,257,71,164,381,368,420,321,469,376,303,312,451,344,241,283,99,161,209,121,267,289,119,429,8,150,126,251,73,282,272,11,52,297,278,33,7,351,190,149,135,142,9,34,403,349,151,174,358,238,51,210,240,145,69,92,405,83,229,45,314,379,228,156,256,309,28,222,308,340,406,422,369,4,227,44,375,431,327,55,21,80,215,467,439,204,72,32,176,103,261,396,40,123,20,290,352,302,23,397,38,122]","arrowright","true","0","13","80","480","[""0038_N0480_K0080_NOCLIQUE"",""0089_N0480_K0080_CLIQUE""]"
"","","","","","","","","","","","audio-keyboard-response","78","61838","0.0-65.0-0.0-1.0","","","","","","","","null","audio_feedback/right/coin01.mp3","null","","","","0","13","80","480","[""0038_N0480_K0080_NOCLIQUE"",""0089_N0480_K0080_CLIQUE""]"
"","","","","","","","","","","","canvas-keyboard-response","79","63638","0.0-66.0-0.0-0.0","","","","","","","","1396","","arrowleft","[444,81,290,314,448,125,69,99,21,62,78,123,165,332,177,223,277,398,476,235,32,206,318,244,30,392,176,52,148,80,195,207,450,421,189,416,276,342,260,11,429,196,308,83,387,101,88,171,354,186,316,359,358,198,296,306,246,149,0,311,453,140,405,57,234,385,44,333,472,134,420,336,419,382,47,175,435,341,317,114,236,283,459,25,335,393,147,89,51,346,222,38,68,352,7,423,449,297,242,249,214,139,321,118,274,474,141,91,12,323,136,16,258,439,75,402,304,239,364,138,137,305,257,132,215,322,208,183,193,154,26,213,105,330,394,471,37,262,40,261,251,173,115,269,403,60,399,117,185,339,266,374,302,159,462,377,192,428,404,252,33,5,319,225,371,281,433,315,365,48,384,55,436,255,1,63,275,271,324,219,349,221,35,284,31,128,157,96,373,163,28,312,4,396,343,155,390,338,9,438,355,64,168,18,287,458,231,188,442,227,131,443,76,237,87,351,270,475,203,446,298,10,98,82,401,194,161,27,43,288,254,121,456,272,313,464,291,406,310,119,380,478,299,71,447,407,388,22,309,347,162,142,334,164,210,293,179,217,473,238,240,434,145,457,152,226,93,248,29,328,112,108,65,39,135,146,36,199,6,301,300,212,130,104,468,432,366,245,307,376,337,369,84,410,97,61,66,72,357,106,389,111,150,181,250,218,361,326,467,286,331,13,368,469,285,282,229,350,45,187,441,129,3,24,172,67,151,182,124,445,116,103,400,463,375,320,427,127,41,8,397,461,122,170,289,391,344,167,327,144,228,280,386,23,440,430,102,454,470,156,408,19,247,479,209,205,241,348,166,158,295,230,451,92,191,243,77,253,180,259,49,329,109,417,201,395,113,477,353,190,58,422,431,95,362,50,256,437,370,345,426,2,34,20,465,425,184,204,107,54,363,381,79,100,42,372,409,367,46,216,74,279,294,86,73,415,220,110,232,360,202,133,94,211,90,413,418,340,292,265,70,197,143,17,264,233,263,178,273,378,267,268,278,383,153,120,174,14,412,59,85,325,224,126,460,53,452,303,379,356,169,424,411,15,455,466,160,200,56,414]","arrowleft","true","0","14","72","480","[""0099_N0480_K0072_CLIQUE"",""0077_N0480_K0072_NOCLIQUE""]"
"","","","","","","","","","","","audio-keyboard-response","80","64639","0.0-66.0-0.0-1.0","","","","","","","","null","audio_feedback/right/coin01.mp3","null","","","","0","14","72","480","[""0099_N0480_K0072_CLIQUE"",""0077_N0480_K0072_NOCLIQUE""]"
"","","","","","","","","","","","canvas-keyboard-response","81","65829","0.0-67.0-0.0-0.0","","","","","","","","1076","","arrowleft","[267,460,238,428,280,405,283,51,309,44,294,105,15,19,241,13,457,420,358,258,31,330,198,329,199,306,472,297,319,360,208,190,477,458,119,376,427,314,150,4,372,196,212,317,299,401,352,404,296,142,225,318,76,183,334,408,134,454,453,21,410,270,362,431,234,236,172,422,182,82,143,417,301,101,315,87,122,308,117,113,418,350,28,381,365,239,354,455,446,254,336,304,230,282,99,268,62,94,367,81,120,396,469,138,151,349,409,41,332,252,193,95,29,192,434,7,393,264,83,426,110,61,211,17,402,288,415,287,100,162,66,32,229,20,346,312,356,169,321,359,168,67,307,378,423,328,12,124,371,300,461,439,310,259,55,249,451,425,27,186,432,289,375,88,357,18,221,140,214,250,380,125,102,303,383,59,14,305,16,228,373,116,133,123,146,206,400,139,419,456,71,8,136,343,184,231,278,35,175,170,53,93,65,80,2,22,361,463,45,6,261,90,202,194,147,382,79,253,413,157,233,389,215,448,98,188,391,395,345,342,204,295,160,436,195,115,131,148,392,3,366,144,97,326,23,200,118,476,351,218,92,141,474,155,106,135,203,232,459,333,243,290,320,104,58,219,42,274,226,248,237,433,323,112,353,57,114,197,341,398,39,34,369,424,364,429,245,216,442,285,48,324,279,255,217,344,257,96,430,130,127,185,325,385,70,467,379,0,397,387,128,337,335,78,276,165,293,137,311,72,435,403,187,450,348,246,107,441,386,399,121,445,26,56,273,449,171,68,49,180,471,272,173,394,156,269,74,271,126,111,340,52,38,47,298,158,242,479,109,452,281,265,470,240,275,412,213,355,209,24,322,25,251,286,159,166,390,235,277,77,179,256,247,75,473,377,163,50,40,468,167,154,103,207,9,30,178,466,11,152,37,416,260,227,292,220,33,440,54,91,263,86,291,132,368,302,339,84,444,205,414,189,89,363,407,327,191,153,177,73,149,161,262,164,284,224,1,201,108,222,174,338,10,210,176,313,465,374,438,464,64,60,46,69,43,411,36,388,475,223,5,421,181,244,447,443,370,266,129,145,316,347,437,63,384,85,462,406,331,478]","arrowright","false","0","15","72","480","[""0059_N0480_K0072_NOCLIQUE"",""0090_N0480_K0072_CLIQUE""]"
"","","","","","","","","","","","audio-keyboard-response","82","66839","0.0-67.0-0.0-1.0","","","","","","","","null","audio_feedback/wrong/error01.mp3","null","","","","0","15","72","480","[""0059_N0480_K0072_NOCLIQUE"",""0090_N0480_K0072_CLIQUE""]"
"","","","","","","","","","","","canvas-keyboard-response","83","68037","0.0-68.0-0.0-0.0","","","","","","","","707","","arrowleft","[310,222,342,283,228,289,83,230,469,339,460,126,430,151,326,239,87,432,436,409,458,327,120,45,250,269,417,335,343,440,20,132,313,216,90,56,416,203,424,270,477,69,195,443,188,92,390,147,410,421,26,401,219,157,99,33,29,325,158,34,226,122,32,468,104,280,427,225,13,232,423,193,53,94,462,236,17,183,75,476,457,255,71,472,451,205,47,374,11,314,80,392,286,105,377,384,214,207,208,479,278,266,86,276,62,355,262,448,328,296,215,405,91,43,434,329,373,37,6,179,422,135,96,194,23,370,143,382,361,202,267,254,288,110,346,60,186,114,88,456,408,2,218,360,455,379,7,174,404,139,68,371,172,173,437,352,119,155,338,199,356,376,331,246,447,303,70,292,347,264,317,97,54,85,441,431,25,118,0,426,391,365,204,61,84,159,136,213,165,109,223,433,134,221,65,463,348,473,333,287,212,301,73,396,315,341,59,167,116,300,446,231,378,454,44,240,306,171,406,247,412,380,117,210,344,302,281,52,238,367,399,243,184,260,291,330,48,394,265,175,319,248,444,145,95,140,124,478,51,398,196,242,217,428,418,211,279,435,389,81,467,388,419,452,359,252,154,397,1,251,235,229,206,21,36,459,72,275,125,123,108,351,189,383,57,375,129,149,16,350,24,161,403,294,285,256,31,191,445,153,103,345,249,3,387,67,113,39,79,181,386,415,393,273,89,197,141,368,298,178,474,311,253,439,284,332,177,180,78,237,438,14,224,144,227,274,121,152,107,241,357,364,334,130,316,49,318,168,233,366,465,131,259,425,464,187,93,160,263,363,337,234,413,295,381,322,169,41,76,200,77,40,128,277,101,182,369,411,358,470,362,185,353,63,164,420,9,66,244,258,201,8,46,12,102,261,30,64,170,112,142,461,466,22,308,38,98,15,163,323,429,146,162,18,372,166,198,475,111,106,450,10,192,55,290,297,407,127,304,299,305,4,5,82,282,449,268,471,150,156,19,336,453,50,349,414,148,176,74,245,209,220,442,115,272,309,293,271,138,354,58,395,190,324,133,400,35,257,28,100,402,307,385,321,320,42,137,312,340,27]","arrowleft","true","0","16","64","480","[""0063_N0480_K0064_CLIQUE"",""0090_N0480_K0064_NOCLIQUE""]"
"","","","","","","","","","","","audio-keyboard-response","84","69038","0.0-68.0-0.0-1.0","","","","","","","","null","audio_feedback/right/coin01.mp3","null","","","","0","16","64","480","[""0063_N0480_K0064_CLIQUE"",""0090_N0480_K0064_NOCLIQUE""]"
"","","","","","","","","","","","canvas-keyboard-response","85","70087","0.0-69.0-0.0-0.0","","","","","","","","665","","arrowleft","[119,270,70,40,245,348,451,459,279,212,389,278,316,440,453,337,95,36,92,232,307,464,200,346,162,0,369,373,49,224,446,63,250,390,13,256,399,129,363,358,271,417,220,142,370,382,115,155,385,290,447,396,28,78,468,242,47,100,334,362,74,367,466,65,54,191,249,210,2,355,25,317,118,318,3,165,179,16,312,221,340,457,305,458,156,23,107,86,140,111,426,398,268,195,432,239,187,314,204,436,263,416,80,378,185,31,56,106,71,273,137,266,144,418,269,37,35,229,415,258,322,149,357,18,154,26,421,93,225,152,186,180,431,166,339,380,46,34,472,313,192,430,11,251,433,387,67,161,329,101,409,394,42,217,282,372,350,48,338,188,376,477,402,41,218,308,79,478,420,323,183,293,138,206,450,235,405,198,443,62,190,330,437,87,7,452,17,176,284,325,77,354,219,51,68,470,182,252,122,381,189,295,141,310,85,475,360,386,454,203,6,116,223,113,97,30,422,98,246,345,247,208,177,351,439,264,181,404,461,148,99,21,288,146,365,331,342,157,135,134,124,59,277,172,32,151,214,130,429,300,379,81,243,120,349,435,83,127,388,91,233,319,201,73,89,238,361,57,29,257,132,445,103,24,438,64,403,283,228,449,377,456,272,169,126,343,391,265,227,143,356,353,45,66,384,39,163,383,374,474,419,299,12,274,303,301,69,215,406,411,76,289,393,341,441,145,213,153,44,424,207,193,255,321,184,194,244,117,159,168,104,448,335,261,253,428,292,234,160,173,110,407,414,205,5,240,297,248,352,10,27,158,128,423,171,465,286,413,178,276,467,479,121,231,150,400,167,309,88,332,50,311,359,469,442,296,315,471,427,473,444,174,202,131,327,125,112,267,82,4,52,175,260,281,463,395,328,102,108,302,336,462,147,199,401,285,236,410,287,96,460,259,344,75,209,196,333,397,425,434,109,275,22,105,133,94,306,9,364,136,392,241,211,84,408,8,33,262,43,366,320,254,38,123,324,114,371,72,14,90,20,55,412,170,280,53,226,326,216,19,1,294,164,237,291,139,197,61,15,375,222,58,304,455,298,347,368,60,230,476]","arrowleft","true","0","17","64","480","[""0083_N0480_K0064_CLIQUE"",""0057_N0480_K0064_NOCLIQUE""]"
"","","","","","","","","","","","audio-keyboard-response","86","71079","0.0-69.0-0.0-1.0","","","","","","","","null","audio_feedback/right/coin01.mp3","null","","","","0","17","64","480","[""0083_N0480_K0064_CLIQUE"",""0057_N0480_K0064_NOCLIQUE""]"
"","","","","","","","","","","","canvas-keyboard-response","87","72631","0.0-70.0-0.0-0.0","","","","","","","","1218","","arrowleft","[256,227,196,326,407,99,48,299,240,348,212,464,100,88,110,199,352,24,390,230,140,225,82,247,252,269,347,478,141,429,346,368,197,26,104,113,16,329,102,418,354,466,416,137,467,435,13,276,162,341,226,237,136,451,430,392,474,4,248,193,52,201,207,6,92,119,38,19,440,328,160,241,366,333,134,255,236,42,220,382,254,70,182,415,164,65,273,218,463,411,39,68,36,308,344,32,364,408,80,334,446,288,66,155,40,458,145,14,264,431,245,195,18,393,384,173,96,372,71,374,51,445,351,296,345,412,246,166,231,77,62,307,27,30,360,470,202,262,387,211,259,169,150,198,473,158,471,402,284,213,171,194,277,172,472,396,453,271,234,441,306,179,379,373,50,274,148,350,371,376,120,385,203,85,293,395,303,7,151,450,391,149,454,83,189,35,156,117,302,324,235,266,97,108,0,161,427,34,405,176,442,168,404,323,81,69,280,239,154,447,105,185,58,433,12,437,73,389,222,54,216,465,159,76,278,126,449,214,228,67,180,139,388,439,221,56,270,60,355,109,249,31,337,232,129,320,8,115,318,44,3,312,424,21,357,353,409,428,84,57,369,399,475,311,127,359,253,204,331,291,281,317,420,356,321,187,460,98,332,361,123,191,459,268,250,335,461,436,310,342,33,295,315,434,190,448,397,261,1,9,322,419,184,375,49,5,343,305,358,410,265,336,55,183,130,260,426,41,106,10,251,25,468,208,86,279,414,297,443,107,340,313,131,89,181,143,314,2,456,272,377,398,233,200,370,74,128,79,432,175,301,367,135,205,285,29,292,118,219,242,45,153,165,90,61,53,401,177,444,43,455,94,215,72,103,338,258,477,378,63,267,330,316,132,17,186,46,28,243,319,349,206,257,125,147,11,457,400,174,263,116,381,64,421,289,298,87,124,244,152,157,479,101,209,178,339,22,403,217,192,238,20,423,23,283,438,93,386,167,133,95,476,223,290,142,362,59,286,304,229,188,144,287,327,406,365,294,47,146,282,417,37,91,111,75,138,210,452,462,170,363,469,383,114,275,15,394,163,380,224,300,121,413,122,112,425,78,422,309,325]","arrowleft","true","0","18","56","480","[""0017_N0480_K0056_CLIQUE"",""0006_N0480_K0056_NOCLIQUE""]"
"","","","","","","","","","","","audio-keyboard-response","88","73619","0.0-70.0-0.0-1.0","","","","","","","","null","audio_feedback/right/coin01.mp3","null","","","","0","18","56","480","[""0017_N0480_K0056_CLIQUE"",""0006_N0480_K0056_NOCLIQUE""]"
"","","","","","","","","","","","canvas-keyboard-response","89","74358","0.0-71.0-0.0-0.0","","","","","","","","319","","arrowright","[110,122,145,227,253,23,209,72,103,417,74,65,177,182,463,131,155,306,176,369,87,18,298,380,257,184,476,304,384,201,421,239,52,350,407,468,359,186,433,336,220,237,442,436,377,373,61,416,11,357,124,392,236,466,15,126,254,393,376,139,394,309,443,166,115,22,224,287,339,469,395,6,439,38,47,91,144,108,434,117,75,223,333,289,116,404,415,399,136,401,185,349,8,351,241,46,173,66,138,372,368,168,179,212,467,307,49,84,464,81,71,261,320,424,215,140,402,303,449,413,111,41,203,143,360,477,107,150,213,408,266,452,316,462,156,406,282,231,400,228,460,54,221,296,383,305,471,86,319,159,59,448,270,69,323,235,332,281,284,63,410,385,210,42,444,422,14,286,370,217,112,331,85,420,33,190,233,294,34,24,386,121,475,255,244,250,205,214,423,285,279,2,232,300,62,276,99,104,148,30,322,127,134,246,73,135,277,56,454,363,129,164,197,396,474,327,152,451,411,229,293,256,163,364,50,188,26,39,264,153,456,106,20,158,21,12,271,440,133,352,4,102,403,272,267,48,40,44,366,353,328,247,427,479,242,149,459,17,341,432,245,317,274,55,450,238,329,419,382,342,101,194,473,171,80,208,278,165,414,465,161,345,425,365,13,441,312,64,57,478,196,356,447,252,154,265,405,19,340,172,330,472,88,70,446,346,455,105,288,457,216,269,109,381,311,157,435,295,89,132,470,251,219,191,243,344,453,90,202,10,0,347,418,211,437,204,142,141,354,67,45,174,53,299,297,362,5,343,130,200,225,358,461,83,291,79,27,37,398,313,146,226,180,324,162,412,338,175,263,249,31,378,35,429,371,95,318,181,301,36,29,260,119,7,445,280,259,334,3,374,428,160,113,310,128,32,68,170,426,337,283,379,275,92,268,96,76,367,123,178,290,199,438,25,355,218,1,314,43,391,206,326,321,348,240,183,234,16,120,187,292,315,387,325,118,98,389,169,302,248,60,58,262,390,94,375,9,100,397,335,167,192,51,409,151,97,230,78,195,198,114,77,430,258,147,82,458,207,193,361,189,28,431,308,137,388,273,125,222,93]","arrowright","true","0","19","56","480","[""0088_N0480_K0056_NOCLIQUE"",""0056_N0480_K0056_CLIQUE""]"
"","","","","","","","","","","","audio-keyboard-response","90","75358","0.0-71.0-0.0-1.0","","","","","","","","null","audio_feedback/right/coin01.mp3","null","","","","0","19","56","480","[""0088_N0480_K0056_NOCLIQUE"",""0056_N0480_K0056_CLIQUE""]"
"","","","","","","","","","","","canvas-keyboard-response","91","75960","0.0-72.0-0.0-0.0","","","","","","","","475","","arrowleft","[72,424,67,125,247,421,376,412,159,2,157,198,303,40,405,477,262,385,120,136,251,352,53,168,447,229,296,86,24,354,391,278,48,77,78,448,60,335,23,394,105,433,358,27,124,283,187,219,346,189,196,83,227,149,140,233,302,209,182,221,248,478,430,462,379,426,446,240,273,342,284,49,402,210,353,155,88,111,310,62,369,344,99,316,192,282,322,365,293,311,94,465,163,258,142,471,129,184,370,309,180,382,355,386,188,141,8,71,384,28,22,39,439,416,415,191,345,133,361,400,237,314,32,95,395,199,427,25,304,328,89,56,127,43,404,363,339,214,401,387,59,123,381,459,288,456,299,279,452,440,44,33,270,460,122,217,153,106,35,245,228,272,325,154,255,81,10,144,175,336,287,397,14,98,429,281,241,166,64,137,236,466,70,431,91,193,411,267,17,211,102,73,305,205,116,213,3,195,223,178,479,29,373,230,207,263,443,356,90,264,97,156,454,359,338,101,315,367,173,65,186,473,294,390,265,422,457,368,161,38,467,183,41,131,349,218,200,275,388,300,224,317,21,347,12,34,475,351,377,42,162,461,420,301,66,257,260,389,234,297,169,52,366,197,374,383,378,330,138,403,20,177,151,458,194,396,318,132,276,307,216,47,380,256,202,319,357,334,0,179,290,259,103,68,312,222,30,327,176,26,36,417,204,393,442,208,167,113,220,128,134,152,333,413,474,364,181,269,362,295,146,174,371,104,69,170,115,423,226,419,360,158,321,286,110,61,31,148,445,96,85,326,324,323,145,160,79,242,171,274,428,409,15,254,126,114,212,418,375,285,5,16,280,84,119,4,235,392,434,425,117,112,320,82,80,108,332,343,135,337,372,253,399,451,249,472,190,436,37,215,298,432,455,243,76,63,139,464,450,407,231,463,406,147,203,261,225,57,313,470,329,289,453,306,185,398,291,441,410,435,292,271,6,11,100,164,87,444,55,118,232,438,246,244,150,331,45,93,340,18,51,469,121,165,92,13,7,449,341,437,201,50,238,408,308,266,350,1,109,250,107,414,54,19,46,468,143,75,277,239,130,172,206,9,58,74,476,252,268,348]","arrowleft","true","0","20","48","480","[""0086_N0480_K0048_CLIQUE"",""0062_N0480_K0048_NOCLIQUE""]"
"","","","","","","","","","","","audio-keyboard-response","92","76959","0.0-72.0-0.0-1.0","","","","","","","","null","audio_feedback/right/coin01.mp3","null","","","","0","20","48","480","[""0086_N0480_K0048_CLIQUE"",""0062_N0480_K0048_NOCLIQUE""]"
"","","","","","","","","","","","canvas-keyboard-response","93","77382","0.0-73.0-0.0-0.0","","","","","","","","48","","arrowleft","[244,205,193,101,48,446,216,371,56,293,120,291,188,161,379,55,140,401,287,70,31,212,307,357,139,3,143,196,259,221,404,433,443,157,416,315,403,130,406,440,224,417,41,272,456,318,338,176,262,271,80,132,342,147,9,102,411,33,428,434,390,365,0,159,91,178,160,230,184,329,104,68,6,453,124,175,468,395,241,36,153,301,125,236,115,445,309,39,145,331,269,60,393,118,279,313,408,381,368,353,471,450,195,285,35,425,479,430,391,83,247,228,240,119,396,392,464,292,18,171,383,107,87,459,200,127,348,58,339,314,409,289,211,467,219,67,337,278,249,242,201,30,372,312,73,52,111,45,264,181,325,47,89,38,234,42,61,370,81,473,354,44,59,345,65,1,277,330,166,62,99,113,163,34,335,94,346,310,25,116,232,462,148,151,324,133,274,476,472,108,98,10,174,275,152,265,204,185,444,454,399,63,305,432,316,96,20,294,220,364,326,199,255,66,374,146,273,268,458,169,134,138,413,349,76,103,439,477,386,243,84,334,288,245,214,457,206,112,117,226,183,304,321,126,298,290,97,369,22,361,387,333,317,194,415,380,424,51,405,257,463,355,158,358,466,418,203,352,296,261,431,359,106,394,270,266,213,186,144,388,308,306,168,410,311,207,267,436,246,284,197,16,350,475,276,135,397,142,478,299,302,4,57,198,322,12,229,366,217,360,407,254,75,72,37,192,455,347,156,170,209,78,136,182,189,40,74,155,86,218,252,215,85,320,77,414,100,187,88,32,470,28,328,343,421,190,336,465,17,319,332,461,15,227,427,263,420,5,385,423,14,340,426,251,419,356,300,297,71,11,286,281,376,173,378,402,323,123,90,253,150,327,248,2,141,239,164,27,43,7,114,438,167,95,223,400,154,105,382,422,191,238,237,23,235,26,233,179,165,258,21,131,172,79,202,13,250,256,451,377,449,375,260,122,46,69,280,362,93,351,225,429,441,210,231,367,82,19,474,29,437,121,110,389,283,373,129,398,452,448,109,442,363,282,344,303,295,222,64,177,54,162,412,460,469,128,180,435,53,137,341,447,92,49,24,384,8,149,208,50]","arrowleft","true","0","21","48","480","[""0063_N0480_K0048_CLIQUE"",""0064_N0480_K0048_NOCLIQUE""]"
"","","","","","","","","","","","audio-keyboard-response","94","78379","0.0-73.0-0.0-1.0","","","","","","","","null","audio_feedback/right/coin01.mp3","null","","","","0","21","48","480","[""0063_N0480_K0048_CLIQUE"",""0064_N0480_K0048_NOCLIQUE""]"
"","","","","","","","","","","","canvas-keyboard-response","95","78678","0.0-74.0-0.0-0.0","","","","","","","","182","","arrowleft","[383,8,464,374,299,132,418,285,25,80,417,454,126,239,312,91,419,17,351,170,73,156,456,22,277,177,246,224,204,311,138,219,77,89,87,236,163,434,184,471,324,181,412,333,191,411,142,437,35,196,284,93,447,399,213,448,378,317,433,403,408,222,300,164,384,315,74,476,50,279,401,158,286,33,405,198,474,79,3,153,52,349,46,66,356,190,103,221,468,92,251,137,396,58,76,377,69,5,90,335,309,334,421,6,39,169,12,95,113,354,40,293,192,436,218,465,166,350,133,353,270,425,16,336,355,294,306,120,443,463,272,200,255,64,11,373,23,37,339,159,98,199,0,70,72,427,43,260,415,157,54,34,75,205,118,84,291,361,259,297,320,209,207,174,2,375,121,94,131,275,235,165,178,217,313,431,343,409,127,386,301,292,38,274,392,363,125,148,29,439,358,167,278,430,269,187,24,99,426,27,414,283,391,256,139,41,154,281,250,296,13,370,71,212,102,337,432,240,249,20,107,78,429,62,321,65,326,252,428,322,48,455,186,372,128,314,393,160,86,225,257,201,104,4,445,188,273,42,364,469,67,145,228,124,332,307,220,237,130,290,88,111,371,388,316,352,461,303,230,223,327,271,116,31,323,338,390,398,150,195,227,149,143,458,446,129,106,265,68,56,215,382,288,328,233,203,362,452,114,119,53,379,473,96,302,146,449,478,385,85,319,161,423,413,134,422,435,242,268,438,21,253,101,441,263,168,100,248,407,318,330,381,182,258,206,197,136,210,325,15,310,347,122,140,247,245,231,360,175,115,185,331,171,444,267,173,460,380,179,276,9,262,14,60,97,109,365,152,241,83,216,45,229,287,304,472,36,214,475,410,194,261,234,28,63,295,49,172,32,211,232,376,244,357,397,59,81,457,254,305,135,346,341,47,459,202,18,10,1,144,369,155,51,57,368,280,451,416,180,450,367,238,61,30,348,470,226,7,110,55,141,424,329,189,359,208,366,440,176,26,420,193,44,147,394,108,342,105,466,117,406,162,467,183,123,19,344,264,442,389,82,345,395,308,282,400,289,462,387,477,402,151,404,479,112,340,266,243,298,453]","arrowright","false","0","22","40","480","[""0045_N0480_K0040_NOCLIQUE"",""0098_N0480_K0040_CLIQUE""]"
"","","","","","","","","","","","audio-keyboard-response","96","79679","0.0-74.0-0.0-1.0","","","","","","","","null","audio_feedback/wrong/error01.mp3","null","","","","0","22","40","480","[""0045_N0480_K0040_NOCLIQUE"",""0098_N0480_K0040_CLIQUE""]"
"","","","","","","","","","","","canvas-keyboard-response","97","80071","0.0-75.0-0.0-0.0","","","","","","","","1","","arrowright","[59,71,109,398,459,370,50,102,110,289,211,233,190,239,278,382,293,129,449,143,372,262,477,240,189,80,134,2,463,72,34,198,44,401,42,205,460,264,35,180,324,204,33,0,39,434,43,266,133,420,347,150,345,170,365,259,160,355,348,260,319,349,410,32,97,185,6,244,118,456,431,268,207,359,336,48,177,368,210,84,471,435,62,362,256,303,366,154,108,317,60,467,138,95,162,203,45,277,19,157,272,414,280,416,194,116,130,267,169,360,465,265,425,464,224,246,418,46,380,227,57,103,255,243,451,261,399,475,457,88,397,74,122,332,10,378,100,443,432,16,403,310,417,93,276,83,132,286,440,304,237,386,238,307,429,323,55,221,462,202,374,29,27,376,472,252,186,163,184,41,299,70,181,478,121,363,149,3,291,250,208,86,422,263,474,164,148,466,120,193,142,153,113,168,117,405,63,352,448,275,388,222,179,404,223,325,300,290,196,136,242,436,24,195,254,105,141,176,156,379,220,354,253,430,52,309,206,408,15,40,216,473,188,18,454,61,335,442,409,328,215,236,155,371,182,321,364,279,373,7,128,358,78,4,82,470,228,453,171,166,173,161,53,351,415,427,339,313,258,232,144,249,11,76,107,308,218,287,296,333,413,342,99,298,230,1,17,137,458,343,245,152,229,344,468,393,396,66,37,402,14,98,23,87,305,361,123,200,183,187,419,47,101,51,334,375,36,231,316,292,395,81,112,424,318,421,341,104,38,338,127,217,26,437,446,282,75,201,58,356,251,124,274,369,22,226,384,294,407,125,151,295,139,314,353,212,248,191,247,271,257,69,284,20,346,145,331,315,68,241,444,381,469,140,350,158,281,159,73,302,326,192,64,178,172,96,452,385,115,77,337,433,377,146,79,329,197,476,411,111,439,445,426,119,441,8,175,106,306,214,90,423,94,12,49,209,412,320,383,31,199,392,235,327,391,479,147,450,13,455,461,85,387,297,301,322,5,89,135,30,269,447,394,131,219,390,28,21,357,65,25,311,167,92,367,67,234,91,225,312,428,54,438,340,288,9,126,330,273,270,165,114,283,406,213,389,285,400,56,174]","arrowright","true","0","23","40","480","[""0073_N0480_K0040_NOCLIQUE"",""0086_N0480_K0040_CLIQUE""]"
"","","","","","","","","","","","audio-keyboard-response","98","81059","0.0-75.0-0.0-1.0","","","","","","","","null","audio_feedback/right/coin01.mp3","null","","","","0","23","40","480","[""0073_N0480_K0040_NOCLIQUE"",""0086_N0480_K0040_CLIQUE""]"
"","","","","","","","","","","","canvas-keyboard-response","99","81469","0.0-76.0-0.0-0.0","","","","","","","","299","","arrowleft","[250,57,456,451,464,55,122,411,296,433,75,22,74,19,302,457,377,219,295,330,249,154,429,110,14,119,193,56,251,240,399,147,35,447,391,77,286,227,418,380,45,310,439,58,135,53,270,69,349,44,417,430,446,256,473,416,367,293,372,373,73,415,346,89,277,340,329,356,345,190,51,333,50,423,465,94,160,17,226,149,209,462,217,187,231,467,134,442,344,371,86,301,269,317,85,178,448,233,42,388,16,210,196,260,421,201,18,321,322,93,1,232,426,332,10,305,454,475,412,398,161,164,169,278,120,186,407,163,281,436,3,353,197,351,216,247,248,237,152,183,84,427,2,268,263,213,68,33,112,324,96,287,70,370,468,445,98,470,124,245,403,323,474,107,460,414,342,276,54,140,206,127,13,194,350,235,243,71,311,21,435,383,357,420,259,87,175,341,65,397,471,6,315,319,179,145,274,131,331,238,379,347,200,204,60,113,466,117,261,431,402,220,4,24,242,173,125,239,393,479,139,378,90,387,82,12,66,410,441,188,47,36,105,72,336,424,202,453,214,364,9,146,273,334,290,308,126,312,215,222,7,300,362,39,25,150,224,374,11,195,320,458,43,401,76,461,5,158,386,229,199,443,234,306,304,67,207,29,246,294,264,81,455,339,189,258,325,478,20,80,151,375,159,208,118,352,106,142,284,390,137,27,434,283,167,62,316,428,121,262,314,203,59,181,223,255,40,363,38,385,282,318,116,406,358,78,143,265,111,422,133,326,288,95,101,37,49,138,254,365,170,395,303,299,218,176,292,102,28,432,267,355,477,437,198,156,32,291,275,155,309,128,41,165,280,381,172,389,382,404,230,182,88,144,236,327,472,83,129,46,476,26,31,450,48,425,285,52,64,297,114,166,15,157,307,452,136,79,132,162,459,185,366,328,360,141,123,369,115,440,191,23,298,394,313,205,241,212,279,368,225,174,221,354,392,348,0,100,272,109,228,444,384,192,30,148,438,413,337,266,91,253,130,257,108,184,177,405,103,252,92,271,180,34,168,211,463,289,63,104,338,343,396,97,376,408,449,361,244,335,8,61,409,400,419,469,171,359,153,99]","arrowright","false","0","24","32","480","[""0049_N0480_K0032_NOCLIQUE"",""0031_N0480_K0032_CLIQUE""]"
"","","","","","","","","","","","audio-keyboard-response","100","82459","0.0-76.0-0.0-1.0","","","","","","","","null","audio_feedback/wrong/error01.mp3","null","","","","0","24","32","480","[""0049_N0480_K0032_NOCLIQUE"",""0031_N0480_K0032_CLIQUE""]"
"","","","","","","","","","","","canvas-keyboard-response","101","83351","0.0-77.0-0.0-0.0","","","","","","","","463","","arrowleft","[450,200,419,209,60,85,358,129,301,208,61,47,337,66,398,374,194,169,210,238,275,336,257,437,315,244,268,372,453,39,176,380,13,171,213,93,319,218,118,222,432,331,24,187,230,105,124,286,179,178,381,108,42,256,123,408,220,444,317,107,157,236,241,163,77,255,375,363,435,227,120,117,277,418,272,225,346,471,111,251,148,207,224,318,316,114,359,58,451,237,388,401,420,265,29,436,266,349,98,189,160,193,3,81,295,84,180,186,304,338,5,472,452,285,126,65,342,344,165,305,321,366,459,368,289,467,409,382,115,141,292,348,370,202,293,113,334,133,110,438,387,291,203,96,377,182,284,442,430,478,122,88,73,307,333,371,425,378,314,274,35,57,434,345,9,352,216,119,226,146,296,350,89,170,191,298,106,166,395,290,44,138,6,456,72,362,406,394,288,271,297,51,457,199,414,211,242,341,232,429,195,300,14,223,426,351,128,250,460,10,327,306,134,184,130,75,21,52,23,390,63,427,417,49,330,405,205,339,446,449,328,144,150,74,391,16,175,41,249,162,399,145,431,424,476,462,302,397,46,212,48,443,240,253,181,386,247,90,229,0,303,407,373,192,97,25,71,33,67,79,68,356,27,215,246,173,112,1,149,340,137,469,369,40,234,34,325,267,152,45,403,402,69,196,448,28,269,59,261,100,204,294,125,62,140,243,385,299,422,264,55,233,155,197,219,239,324,231,20,400,312,18,332,99,87,174,287,15,412,80,92,221,463,260,50,254,455,458,473,308,188,53,135,393,91,164,22,136,54,127,322,262,217,361,143,158,30,4,78,167,94,416,447,147,142,273,198,201,367,190,384,103,159,95,474,11,102,252,276,26,461,168,396,235,43,479,156,475,228,270,161,76,376,310,116,172,282,309,421,389,37,248,83,153,465,32,259,466,413,82,364,454,343,428,12,279,323,353,433,470,36,131,2,477,8,347,104,56,383,329,439,121,441,154,281,357,278,464,440,132,31,206,404,139,365,468,423,185,70,7,280,86,258,283,392,183,64,355,101,379,354,410,263,445,415,19,214,177,17,311,411,326,245,360,109,313,335,38,320,151]","arrowleft","true","0","25","32","480","[""0033_N0480_K0032_CLIQUE"",""0050_N0480_K0032_NOCLIQUE""]"
"","","","","","","","","","","","audio-keyboard-response","102","84339","0.0-77.0-0.0-1.0","","","","","","","","null","audio_feedback/right/coin01.mp3","null","","","","0","25","32","480","[""0033_N0480_K0032_CLIQUE"",""0050_N0480_K0032_NOCLIQUE""]"
"","","","","","","","","","","","canvas-keyboard-response","103","84805","0.0-78.0-0.0-0.0","","","","","","","","65","","arrowright","[311,264,456,323,232,189,125,300,34,222,173,109,328,239,131,477,437,461,329,172,24,379,341,371,212,45,320,105,395,0,214,266,178,3,153,407,106,255,303,294,209,322,86,72,318,115,386,134,331,119,38,242,142,421,409,337,265,400,167,195,62,35,233,237,5,442,398,138,75,241,156,363,248,359,436,287,414,162,360,99,450,218,475,82,27,107,283,147,224,394,49,399,473,476,56,309,240,183,361,292,77,79,133,432,346,127,132,113,87,452,403,69,67,203,63,419,90,306,420,160,344,130,78,267,453,260,192,383,32,52,347,284,280,319,348,26,408,365,13,271,474,245,244,180,364,315,326,313,377,96,83,128,270,441,135,391,197,60,249,19,98,314,23,380,238,46,269,289,307,295,227,449,257,416,85,194,282,378,175,261,366,411,223,373,158,297,291,185,274,457,204,362,250,217,305,342,301,21,304,273,430,184,325,187,415,402,101,210,288,92,31,91,33,324,390,219,236,93,4,7,51,410,208,343,335,353,174,65,155,41,117,201,68,140,186,14,89,336,179,321,413,53,118,148,9,256,164,468,308,374,285,345,429,278,339,251,22,54,448,55,216,97,381,196,276,30,211,330,123,384,230,59,431,443,349,479,412,10,458,8,145,272,388,418,246,1,262,424,351,42,459,370,467,298,433,439,277,191,80,225,76,281,389,376,290,11,94,150,478,460,465,121,112,252,423,146,446,205,166,310,144,122,375,74,190,372,84,406,401,15,141,385,181,340,466,392,393,110,428,445,111,234,159,434,66,369,215,463,275,253,317,17,396,193,302,358,163,40,116,81,355,316,25,469,332,263,43,39,397,247,182,356,161,64,18,102,286,367,352,95,47,229,61,454,243,202,327,103,472,228,29,268,447,100,435,120,177,462,104,108,207,188,44,165,37,470,354,299,279,438,444,427,28,139,338,6,387,350,213,137,231,126,426,169,451,198,171,440,226,235,464,176,258,114,357,58,20,143,157,221,471,168,404,50,16,70,36,259,405,200,220,417,88,71,312,455,206,57,149,382,334,48,425,136,152,170,254,129,333,2,422,293,124,73,12,199,151,368,296,154]","arrowright","true","0","26","24","480","[""0069_N0480_K0024_NOCLIQUE"",""0064_N0480_K0024_CLIQUE""]"
"","","","","","","","","","","","audio-keyboard-response","104","85799","0.0-78.0-0.0-1.0","","","","","","","","null","audio_feedback/right/coin01.mp3","null","","","","0","26","24","480","[""0069_N0480_K0024_NOCLIQUE"",""0064_N0480_K0024_CLIQUE""]"
"","","","","","","","","","","","canvas-keyboard-response","105","86197","0.0-79.0-0.0-0.0","","","","","","","","2","","arrowleft","[404,228,353,466,397,245,324,31,334,171,392,13,264,112,418,447,152,125,303,34,101,199,55,145,186,465,281,113,271,329,393,128,214,250,304,257,187,248,129,89,287,389,54,249,461,114,222,126,64,58,4,225,43,188,140,81,315,231,198,429,302,378,444,255,157,317,191,244,467,161,210,454,3,12,380,21,307,415,459,39,274,213,224,56,471,60,1,2,280,22,14,174,256,235,215,425,352,73,72,262,200,48,127,167,472,464,29,173,52,462,311,344,253,445,289,358,181,314,239,143,422,384,474,290,399,120,218,36,346,115,212,430,349,455,110,130,362,50,460,49,385,246,345,365,236,77,109,189,183,5,368,123,41,261,88,312,270,263,240,282,355,342,379,470,409,295,359,320,273,45,296,204,116,100,65,80,179,407,137,267,119,381,297,35,332,135,185,427,223,328,433,25,229,147,18,139,15,86,63,19,203,316,153,227,10,202,458,84,473,348,90,396,431,416,376,28,426,432,105,411,325,70,85,155,243,217,95,78,475,277,258,79,98,182,208,176,403,168,437,294,138,335,232,417,333,141,170,340,298,192,364,387,82,306,388,400,87,412,99,293,156,206,159,17,279,288,354,83,395,436,131,237,254,209,374,247,177,24,313,46,341,104,207,272,375,30,357,75,323,361,371,47,414,330,154,276,453,162,134,160,216,27,71,468,93,251,195,150,96,439,252,476,69,477,319,408,343,42,372,419,92,456,74,413,230,238,220,278,196,438,363,102,435,434,67,360,479,478,356,424,7,33,144,211,370,20,111,308,285,382,299,108,339,291,284,136,16,221,118,164,377,62,148,165,401,318,172,406,66,259,398,300,53,441,241,449,107,242,394,103,321,373,175,97,234,133,44,226,391,450,269,38,6,11,410,190,8,37,51,402,286,169,59,0,146,292,197,326,443,265,132,423,9,194,151,32,163,350,91,309,178,367,390,448,149,310,260,94,327,233,383,193,347,440,121,405,266,336,106,369,446,421,219,124,351,68,452,142,386,338,268,337,57,23,305,283,420,201,428,442,26,184,463,76,61,158,205,469,122,166,322,366,275,117,331,301,180,40,451,457]","arrowleft","true","0","27","24","480","[""0014_N0480_K0024_CLIQUE"",""0053_N0480_K0024_NOCLIQUE""]"
"","","","","","","","","","","","audio-keyboard-response","106","87200","0.0-79.0-0.0-1.0","","","","","","","","null","audio_feedback/right/coin01.mp3","null","","","","0","27","24","480","[""0014_N0480_K0024_CLIQUE"",""0053_N0480_K0024_NOCLIQUE""]"
"","","","","","","","","","","","canvas-keyboard-response","107","87680","0.0-80.0-0.0-0.0","","","","","","","","1","","arrowright","[125,213,390,319,306,395,124,209,233,404,167,339,389,432,67,49,358,373,409,80,66,257,16,268,171,155,251,457,340,391,283,327,157,288,63,191,330,314,370,354,76,421,102,278,379,159,64,21,140,228,38,344,255,336,442,71,2,438,403,221,15,22,479,305,65,68,347,458,335,121,337,61,360,431,179,260,224,6,182,461,134,97,377,235,176,362,292,393,117,42,164,317,141,78,415,361,293,387,475,133,232,110,88,200,447,178,281,34,321,446,70,437,428,254,89,17,165,422,219,426,177,48,237,430,465,35,427,298,359,350,190,119,216,326,152,136,188,346,469,128,296,243,289,277,194,36,108,12,32,299,274,19,226,381,332,440,4,144,77,153,186,375,271,129,355,172,399,148,50,183,193,351,207,120,368,94,103,27,301,467,51,160,62,162,225,101,59,127,37,106,249,331,443,449,231,276,464,91,472,173,352,451,131,244,396,252,285,132,250,90,363,348,31,84,342,265,135,334,73,184,156,420,318,217,223,187,400,313,98,256,13,433,398,476,407,241,411,417,376,214,365,324,345,436,456,43,333,46,142,204,1,175,369,384,5,468,266,452,439,267,218,72,75,471,322,248,150,394,323,460,295,205,402,56,434,192,302,282,349,303,372,163,383,401,147,463,208,338,60,416,197,259,405,284,96,53,239,380,0,170,382,290,105,198,262,419,118,161,26,81,230,169,166,329,316,410,308,100,229,435,29,82,151,477,309,174,28,246,189,18,212,149,424,138,104,92,20,126,109,10,264,40,195,3,423,25,181,45,356,54,199,386,11,269,397,385,99,114,139,111,273,57,315,143,137,222,9,453,85,215,473,116,304,374,196,448,234,357,240,202,41,247,203,310,220,414,328,112,312,39,366,206,24,408,263,242,270,87,146,450,30,245,466,201,406,320,185,113,7,291,123,69,444,454,115,168,236,210,280,79,180,55,145,227,470,286,474,95,158,154,52,371,425,261,412,459,258,300,429,392,388,272,58,297,367,74,462,86,311,418,364,23,413,107,44,325,253,343,33,353,122,455,287,47,238,279,93,378,211,83,445,14,441,294,8,307,130,275,478,341]","arrowright","true","0","28","16","480","[""0089_N0480_K0016_NOCLIQUE"",""0094_N0480_K0016_CLIQUE""]"
"","","","","","","","","","","","audio-keyboard-response","108","88680","0.0-80.0-0.0-1.0","","","","","","","","null","audio_feedback/right/coin01.mp3","null","","","","0","28","16","480","[""0089_N0480_K0016_NOCLIQUE"",""0094_N0480_K0016_CLIQUE""]"
"","","","","","","","","","","","canvas-keyboard-response","109","89176","0.0-81.0-0.0-0.0","","","","","","","","158","","arrowright","[175,105,47,82,69,251,456,266,24,335,428,126,86,172,102,447,117,33,336,287,211,351,205,163,449,472,294,254,289,100,275,85,453,373,311,187,142,228,89,183,149,395,198,36,331,185,356,286,44,350,154,68,76,248,408,145,212,355,58,123,48,27,465,405,54,202,38,15,209,206,204,454,152,367,151,440,392,214,234,221,469,1,122,460,394,0,2,412,25,417,148,45,364,199,280,43,358,282,284,176,389,244,319,278,299,349,213,390,291,398,70,285,227,55,264,74,192,383,439,87,22,56,66,224,426,339,121,222,432,23,46,451,343,379,477,62,125,139,71,216,103,31,61,170,268,273,72,269,381,5,240,298,208,397,316,65,146,313,359,169,226,466,137,462,181,422,147,393,407,434,64,35,124,101,386,255,98,461,354,448,277,109,270,155,188,17,153,203,174,279,28,442,247,201,230,106,380,97,463,73,178,427,114,93,400,51,63,425,309,438,250,443,329,96,295,79,53,77,150,467,322,292,312,310,92,414,374,388,378,406,120,263,111,382,261,372,194,14,171,138,315,143,306,281,441,252,308,371,396,332,217,387,59,334,30,140,333,88,296,445,50,115,446,223,305,450,41,215,229,361,475,276,271,413,436,3,29,26,297,259,274,423,473,52,186,457,399,162,415,60,321,325,200,218,301,130,404,184,193,18,129,416,365,326,384,113,81,337,424,225,421,158,411,173,20,189,132,357,307,233,157,347,67,257,110,253,207,104,401,39,272,191,262,330,107,99,197,49,161,468,366,348,283,182,75,131,338,324,37,479,141,239,21,437,195,304,452,430,10,323,160,464,368,346,290,32,180,317,352,459,474,318,476,128,243,410,418,156,340,83,232,458,267,302,385,353,320,190,303,341,241,119,210,165,236,13,179,328,7,327,6,470,478,260,256,362,237,435,108,288,444,90,9,363,4,300,258,344,429,238,409,375,455,345,112,133,246,242,235,166,159,19,377,265,167,134,419,57,177,376,80,8,40,168,91,144,245,34,219,220,314,403,127,135,118,231,94,42,95,136,360,420,431,196,249,293,369,402,370,342,16,164,433,12,78,471,391,84,11,116]","arrowright","true","0","29","16","480","[""0050_N0480_K0016_NOCLIQUE"",""0043_N0480_K0016_CLIQUE""]"
"","","","","","","","","","","","audio-keyboard-response","110","90178","0.0-81.0-0.0-1.0","","","","","","","","null","audio_feedback/right/coin01.mp3","null","","","","0","29","16","480","[""0050_N0480_K0016_NOCLIQUE"",""0043_N0480_K0016_CLIQUE""]"
"","","","","","","","","","","","instructions","111","90856","0.0-82.0","","","","","","","[{""page_index"":0,""viewing_time"":675}]","676","","","","","","","","","",""
"","","","","","","","","","","","fullscreen","112","90858","0.0-83.0","","true","","","","","","","","","","","","","","","",""
