"success","timeout","failed_images","failed_audio","failed_video","trial_type","trial_index","time_elapsed","internal_node_id","view_history","rt","stimulus","response","nodes_order","correct_response","block_index","presentation_index","clique_size","graph_size","graphs_names","graphs_couple","accuracy"
"true","false","[]","[]","[]","preload","0","66","0.0-0.0","","","","","","","","","","","","",""
"","","","","","pavlovia","1","436","0.0-1.0","","","","","","","","","","","","",""
"","","","","","instructions","2","7538","0.0-2.0","[{""page_index"":0,""viewing_time"":4007},{""page_index"":1,""viewing_time"":3087}]","7094","","","","","","","","","","",""
"true","false","[]","[]","[]","preload","3","8127","0.0-3.0","","","","","","","","","","","","",""
"","","","","","instructions","4","655021","0.0-4.0","[{""page_index"":0,""viewing_time"":5579},{""page_index"":1,""viewing_time"":3481},{""page_index"":2,""viewing_time"":3660},{""page_index"":3,""viewing_time"":7608},{""page_index"":4,""viewing_time"":9988},{""page_index"":5,""viewing_time"":5473},{""page_index"":6,""viewing_time"":2120},{""page_index"":7,""viewing_time"":4176},{""page_index"":8,""viewing_time"":4068},{""page_index"":9,""viewing_time"":5686},{""page_index"":10,""viewing_time"":3515},{""page_index"":11,""viewing_time"":2548},{""page_index"":12,""viewing_time"":2780},{""page_index"":13,""viewing_time"":3178},{""page_index"":14,""viewing_time"":1041},{""page_index"":15,""viewing_time"":1273},{""page_index"":16,""viewing_time"":2180},{""page_index"":17,""viewing_time"":1536},{""page_index"":18,""viewing_time"":953},{""page_index"":19,""viewing_time"":2419},{""page_index"":20,""viewing_time"":1952},{""page_index"":21,""viewing_time"":852},{""page_index"":22,""viewing_time"":2450},{""page_index"":23,""viewing_time"":2067},{""page_index"":24,""viewing_time"":2141},{""page_index"":25,""viewing_time"":2509},{""page_index"":26,""viewing_time"":5673},{""page_index"":27,""viewing_time"":5830},{""page_index"":28,""viewing_time"":9579},{""page_index"":29,""viewing_time"":2739},{""page_index"":30,""viewing_time"":766},{""page_index"":31,""viewing_time"":3958},{""page_index"":32,""viewing_time"":10502},{""page_index"":33,""viewing_time"":24792},{""page_index"":34,""viewing_time"":3194},{""page_index"":35,""viewing_time"":10423},{""page_index"":36,""viewing_time"":13515},{""page_index"":37,""viewing_time"":6959},{""page_index"":38,""viewing_time"":4804},{""page_index"":39,""viewing_time"":8669},{""page_index"":40,""viewing_time"":3252},{""page_index"":41,""viewing_time"":3947},{""page_index"":42,""viewing_time"":4984},{""page_index"":43,""viewing_time"":8310},{""page_index"":44,""viewing_time"":6261},{""page_index"":45,""viewing_time"":20528},{""page_index"":44,""viewing_time"":1057},{""page_index"":43,""viewing_time"":1197},{""page_index"":42,""viewing_time"":643},{""page_index"":43,""viewing_time"":177064},{""page_index"":42,""viewing_time"":2525},{""page_index"":43,""viewing_time"":16650},{""page_index"":42,""viewing_time"":692},{""page_index"":43,""viewing_time"":716},{""page_index"":44,""viewing_time"":19563},{""page_index"":45,""viewing_time"":135468},{""page_index"":46,""viewing_time"":5557},{""page_index"":47,""viewing_time"":2992},{""page_index"":48,""viewing_time"":8421},{""page_index"":49,""viewing_time"":4573},{""page_index"":50,""viewing_time"":17208},{""page_index"":51,""viewing_time"":8647}]","646892","","","","","","","","","","",""
"","","","","","instructions","5","664302","0.0-5.0","[{""page_index"":0,""viewing_time"":9278}]","9279","","","","","","","","","","",""
"true","false","[]","[]","[]","preload","6","665336","0.0-6.0","","","","","","","","","","","","",""
"","","","","","image-keyboard-response","7","679641","0.0-7.0","","14270","tutorial/task_familiarization_images/part 1/01_N160_K90_cliqueRight_question1.PNG"," ","","","","","","","","",""
"","","","","","image-keyboard-response","8","685053","0.0-8.0","","5389","tutorial/task_familiarization_images/part 1/02_N160_K90_cliqueRight_question2.PNG"," ","","","","","","","","",""
"","","","","","image-keyboard-response","9","689652","0.0-9.0","","4576","tutorial/task_familiarization_images/part 1/03_N160_K90_cliqueRight_question3.PNG","arrowright","","","","","","","","",""
"","","","","","image-keyboard-response","10","692407","0.0-10.0","","2734","tutorial/task_familiarization_images/part 1/04_N160_K90_cliqueRight_solution.PNG"," ","","","","","","","","",""
"","","","","","image-keyboard-response","11","697200","0.0-11.0","","4771","tutorial/task_familiarization_images/part 1/05_N160_K65_cliqueRight_question1.PNG"," ","","","","","","","","",""
"","","","","","image-keyboard-response","12","700120","0.0-12.0","","2898","tutorial/task_familiarization_images/part 1/06_N160_K65_cliqueRight_question2.PNG"," ","","","","","","","","",""
"","","","","","image-keyboard-response","13","704097","0.0-13.0","","3951","tutorial/task_familiarization_images/part 1/07_N160_K65_cliqueRight_question3.PNG","arrowright","","","","","","","","",""
"","","","","","image-keyboard-response","14","705366","0.0-14.0","","1244","tutorial/task_familiarization_images/part 1/08_N160_K65_cliqueRight_solution.PNG"," ","","","","","","","","",""
"","","","","","image-keyboard-response","15","713039","0.0-15.0","","7651","tutorial/task_familiarization_images/part 1/09_N160_K50_cliqueLeft_question1.PNG"," ","","","","","","","","",""
"","","","","","image-keyboard-response","16","715760","0.0-16.0","","2697","tutorial/task_familiarization_images/part 1/10_N160_K50_cliqueLeft_question2.PNG"," ","","","","","","","","",""
"","","","","","image-keyboard-response","17","721055","0.0-17.0","","5275","tutorial/task_familiarization_images/part 1/11_N160_K50_cliqueLeft_question3.PNG","arrowleft","","","","","","","","",""
"","","","","","image-keyboard-response","18","723542","0.0-18.0","","2465","tutorial/task_familiarization_images/part 1/12_N160_K50_cliqueLeft_solution.PNG"," ","","","","","","","","",""
"","","","","","image-keyboard-response","19","730868","0.0-19.0","","7300","tutorial/task_familiarization_images/part 1/13_N160_K80_cliqueLeft_question1.PNG"," ","","","","","","","","",""
"","","","","","image-keyboard-response","20","735884","0.0-20.0","","4994","tutorial/task_familiarization_images/part 1/14_N160_K80_cliqueLeft_question2.PNG"," ","","","","","","","","",""
"","","","","","image-keyboard-response","21","738262","0.0-21.0","","2352","tutorial/task_familiarization_images/part 1/15_N160_K80_cliqueLeft_question3.PNG","arrowleft","","","","","","","","",""
"","","","","","image-keyboard-response","22","739157","0.0-22.0","","875","tutorial/task_familiarization_images/part 1/16_N160_K80_cliqueLeft_solution.PNG"," ","","","","","","","","",""
"","","","","","image-keyboard-response","23","745707","0.0-23.0","","6526","tutorial/task_familiarization_images/part 1/17_N160_K40_cliqueRight_question1.PNG"," ","","","","","","","","",""
"","","","","","image-keyboard-response","24","751670","0.0-24.0","","5940","tutorial/task_familiarization_images/part 1/18_N160_K40_cliqueRight_question2.PNG"," ","","","","","","","","",""
"","","","","","image-keyboard-response","25","754180","0.0-25.0","","2489","tutorial/task_familiarization_images/part 1/19_N160_K40_cliqueRight_question3.PNG","arrowright","","","","","","","","",""
"","","","","","image-keyboard-response","26","755236","0.0-26.0","","1035","tutorial/task_familiarization_images/part 1/20_N160_K40_cliqueRight_solution.PNG"," ","","","","","","","","",""
"","","","","","image-keyboard-response","27","759234","0.0-27.0","","3973","tutorial/task_familiarization_images/part 1/21_N160_K70_cliqueLeft_question1.PNG"," ","","","","","","","","",""
"","","","","","image-keyboard-response","28","762697","0.0-28.0","","3442","tutorial/task_familiarization_images/part 1/22_N160_K70_cliqueLeft_question2.PNG"," ","","","","","","","","",""
"","","","","","image-keyboard-response","29","764413","0.0-29.0","","1695","tutorial/task_familiarization_images/part 1/23_N160_K70_cliqueLeft_question3.PNG","arrowleft","","","","","","","","",""
"","","","","","image-keyboard-response","30","765260","0.0-30.0","","825","tutorial/task_familiarization_images/part 1/24_N160_K70_cliqueLeft_solution.PNG"," ","","","","","","","","",""
"true","false","[]","[]","[]","preload","31","765974","0.0-31.0","","","","","","","","","","","","",""
"","","","","","image-keyboard-response","32","778665","0.0-32.0","","12658","tutorial/task_familiarization_images/part 2/01_160_80_cliqueLeft_withFeedback_1.PNG"," ","","","","","","","","",""
"","","","","","image-keyboard-response","33","784982","0.0-33.0","","6281","tutorial/task_familiarization_images/part 2/02_160_80_cliqueLeft_withFeedback_1.PNG"," ","","","","","","","","",""
"","","","","","image-keyboard-response","34","789421","0.0-34.0","","4402","tutorial/task_familiarization_images/part 2/03_160_80_cliqueLeft_withFeedback_3.PNG","arrowleft","","","","","","","","",""
"","","","","","image-keyboard-response","35","792473","0.0-35.0","","3016","tutorial/task_familiarization_images/part 2/04_160_80_cliqueLeft_withFeedback_correct.PNG"," ","","","","","","","","",""
"","","","","","image-keyboard-response","36","805080","0.0-36.0","","12568","tutorial/task_familiarization_images/part 2/05_160_55_cliqueRight_withFeedback_1.PNG"," ","","","","","","","","",""
"","","","","","image-keyboard-response","37","814071","0.0-37.0","","8955","tutorial/task_familiarization_images/part 2/06_160_55_cliqueRight_withFeedback_2.PNG"," ","","","","","","","","",""
"","","","","","image-keyboard-response","38","816394","0.0-38.0","","2285","tutorial/task_familiarization_images/part 2/07_160_55_cliqueRight_withFeedback_3.PNG","arrowright","","","","","","","","",""
"","","","","","image-keyboard-response","39","818285","0.0-39.0","","1852","tutorial/task_familiarization_images/part 2/08_160_55_cliqueRight_withFeedback_correct.PNG"," ","","","","","","","","",""
"","","","","","image-keyboard-response","40","826083","0.0-40.0","","7758","tutorial/task_familiarization_images/part 2/09_160_70_cliqueLeft_withFeedback_1.PNG"," ","","","","","","","","",""
"","","","","","image-keyboard-response","41","829100","0.0-41.0","","2981","tutorial/task_familiarization_images/part 2/10_160_70_cliqueLeft_withFeedback_2.PNG"," ","","","","","","","","",""
"","","","","","image-keyboard-response","42","830564","0.0-42.0","","1429","tutorial/task_familiarization_images/part 2/11_160_70_cliqueLeft_withFeedback_3.PNG","arrowleft","","","","","","","","",""
"","","","","","image-keyboard-response","43","832069","0.0-43.0","","1471","tutorial/task_familiarization_images/part 2/12_160_70_cliqueLeft_withFeedback_correct.PNG"," ","","","","","","","","",""
"","","","","","survey-html-form","44","840145","0.0-44.0","","8074","","{""gender"":""female"",""age"":""28""}","","","","","","","","",""
"","","","","","instructions","45","842504","0.0-45.0","[{""page_index"":0,""viewing_time"":2356}]","2357","","","","","","","","","","",""
"true","","","","","fullscreen","46","847024","0.0-47.0","","","","","","","","","","","","",""
"","","","","","canvas-keyboard-response","47","855722","0.0-48.0-0.0-0.0","","8493",""," ","[138,226,213,32,56,140,293,200,44,260,45,116,234,112,161,129,93,175,81,121,194,180,265,246,220,228,167,299,78,64,163,247,218,153,185,255,164,159,208,14,144,248,29,261,182,35,169,223,289,267,263,283,187,115,157,206,227,239,254,273,237,119,152,266,125,233,103,215,238,128,296,141,204,274,114,222,62,55,162,42,84,21,229,85,280,122,15,72,252,107,24,131,271,94,30,22,68,146,88,76,132,276,46,31,59,230,285,39,110,58,176,117,73,134,0,34,47,191,6,148,28,156,8,275,197,291,96,297,3,221,183,193,170,61,173,38,287,232,126,83,178,292,89,137,53,160,236,75,139,26,113,244,205,240,16,133,19,294,243,250,199,258,192,13,57,251,12,91,149,90,278,166,111,23,177,188,298,105,36,279,4,211,253,67,1,87,109,71,202,155,80,106,102,43,154,151,179,168,190,74,120,77,135,231,18,52,224,196,5,277,127,37,165,225,290,198,86,92,60,108,63,69,201,118,171,51,214,181,219,172,97,295,269,20,174,54,242,40,33,256,11,262,282,70,66,241,48,79,95,264,272,288,98,184,7,245,150,281,17,249,124,268,259,257,27,130,136,82,270,158,210,235,189,2,142,65,209,216,9,25,41,104,50,143,145,207,10,217,49,123,101,212,195,284,100,147,99,203,286,186]","arrowleft","0","0","90","300","[""0016_N0300_K0090_CLIQUE"",""0080_N0300_K0090_NOCLIQUE""]","",""
"","","","","","audio-keyboard-response","48","856600","0.0-48.0-0.0-1.0","","null","audio_feedback/shuffles/shuffle01.mp3","null","","","0","0","90","300","[""0016_N0300_K0090_CLIQUE"",""0080_N0300_K0090_NOCLIQUE""]","",""
"","","","","","canvas-keyboard-response","49","861576","0.0-48.1-0.1-0.1","","4828",""," ","[253,191,52,39,62,165,60,23,263,241,218,117,118,227,203,112,265,64,102,272,107,204,99,250,46,67,282,35,156,223,222,292,101,163,225,229,176,88,293,220,21,43,93,77,193,89,59,167,198,209,8,180,11,170,140,221,183,131,7,128,48,103,70,92,6,268,162,108,66,205,174,31,115,15,3,152,208,122,16,182,297,27,80,91,295,49,226,188,106,194,125,110,78,69,83,114,172,57,252,71,9,181,2,192,202,134,109,242,249,283,133,261,0,290,150,259,136,185,26,123,161,126,230,37,276,95,215,87,135,251,228,260,58,53,84,267,196,287,236,51,190,281,96,160,247,214,206,243,189,149,121,244,262,171,216,120,232,289,298,82,186,238,178,139,151,44,148,47,65,90,200,166,104,145,13,4,130,138,5,207,17,10,1,32,74,54,137,299,173,271,279,100,278,246,245,12,201,20,127,24,277,68,231,235,197,29,56,169,76,97,129,41,266,72,269,168,45,142,177,63,158,187,50,159,98,240,147,124,270,86,164,213,19,75,199,79,237,94,73,132,40,18,144,210,239,14,275,233,273,30,217,286,155,256,291,294,280,212,154,211,195,34,288,143,284,22,257,61,254,38,113,119,105,42,81,264,116,28,111,224,157,146,274,184,33,55,25,153,85,255,258,285,248,179,234,141,175,36,219,296]","arrowleft","0","0","90","300","[""0016_N0300_K0090_CLIQUE"",""0080_N0300_K0090_NOCLIQUE""]","",""
"","","","","","audio-keyboard-response","50","862347","0.0-48.1-0.1-1.1","","null","audio_feedback/shuffles/shuffle01.mp3","null","","","0","0","90","300","[""0016_N0300_K0090_CLIQUE"",""0080_N0300_K0090_NOCLIQUE""]","",""
"","","","","","canvas-keyboard-response","51","864765","0.0-48.2-0.2-0.2","","2274",""," ","[74,137,4,171,191,237,0,226,291,38,205,279,252,142,132,234,20,156,33,67,6,295,37,83,166,126,150,242,105,269,131,157,199,22,207,298,241,181,88,63,240,219,144,73,52,107,148,173,89,23,202,159,212,42,143,243,286,208,287,112,115,62,141,95,223,66,45,228,91,102,92,12,5,43,216,187,51,64,153,72,120,238,294,135,203,55,293,54,125,9,77,185,151,180,277,227,93,3,21,138,117,278,188,14,280,213,40,75,248,11,17,56,178,108,86,164,13,44,16,296,104,290,70,84,53,49,71,32,121,129,127,172,134,268,48,288,109,282,158,15,222,244,160,224,174,145,190,47,1,114,50,217,232,210,106,168,257,289,249,271,192,204,183,251,274,76,225,68,270,201,69,110,30,197,221,123,258,193,250,155,60,211,267,200,8,170,259,215,253,111,161,154,214,19,130,116,25,169,140,2,61,230,152,194,18,246,256,113,122,231,233,266,218,27,195,236,128,65,10,29,272,262,82,78,94,87,229,103,36,96,80,136,46,26,167,97,292,124,162,198,263,176,182,41,58,196,119,283,255,59,39,31,149,99,276,281,118,175,206,235,260,35,98,273,239,147,299,90,177,275,261,7,101,284,146,179,165,220,245,24,81,28,133,85,285,163,209,57,79,100,247,265,297,254,184,189,264,186,34,139]","arrowleft","0","0","90","300","[""0016_N0300_K0090_CLIQUE"",""0080_N0300_K0090_NOCLIQUE""]","",""
"","","","","","audio-keyboard-response","52","865540","0.0-48.2-0.2-1.2","","null","audio_feedback/shuffles/shuffle01.mp3","null","","","0","0","90","300","[""0016_N0300_K0090_CLIQUE"",""0080_N0300_K0090_NOCLIQUE""]","",""
"","","","","","canvas-keyboard-response","53","868049","0.0-48.3-0.3-0.3","","2368",""," ","[209,173,26,285,294,221,216,47,251,203,229,183,225,298,244,180,9,287,124,4,291,39,181,21,197,278,99,42,282,259,246,205,156,119,160,295,32,113,215,91,234,48,33,88,148,120,144,141,288,146,252,206,208,247,63,299,275,223,289,189,70,55,57,179,49,276,89,238,51,81,67,265,207,174,284,297,290,43,95,279,171,170,266,184,166,92,167,105,193,18,111,133,122,61,104,93,101,80,65,196,35,237,202,255,204,273,153,186,130,235,10,109,30,14,263,293,20,74,296,267,200,142,172,1,41,157,185,86,248,38,97,269,75,250,129,254,191,155,143,154,3,82,78,190,6,187,98,151,110,79,257,28,136,239,123,201,262,53,140,52,102,60,233,73,54,169,71,198,37,195,168,137,103,217,210,68,227,50,165,126,15,34,228,212,192,280,277,139,127,281,8,107,163,77,64,134,31,214,90,241,58,224,36,222,152,161,46,59,272,218,270,240,19,24,116,256,199,27,135,87,149,115,131,23,145,175,249,292,264,258,220,211,62,147,17,12,85,76,44,243,114,286,25,159,108,11,2,232,242,117,56,271,22,226,162,40,72,219,274,121,84,0,45,16,177,66,164,7,83,253,112,261,29,150,231,268,283,69,245,178,213,176,128,96,125,182,188,13,158,118,132,138,94,260,106,5,100,194,236,230]","arrowleft","0","0","90","300","[""0016_N0300_K0090_CLIQUE"",""0080_N0300_K0090_NOCLIQUE""]","",""
"","","","","","audio-keyboard-response","54","868828","0.0-48.3-0.3-1.3","","null","audio_feedback/shuffles/shuffle01.mp3","null","","","0","0","90","300","[""0016_N0300_K0090_CLIQUE"",""0080_N0300_K0090_NOCLIQUE""]","",""
"","","","","","canvas-keyboard-response","55","869863","0.0-48.4-0.4-0.4","","857","","arrowleft","[241,248,233,94,1,32,198,67,207,230,234,60,22,47,282,137,147,212,296,225,176,253,87,106,149,283,151,101,217,119,113,257,56,30,124,191,213,133,174,6,139,136,256,34,199,19,66,164,142,255,271,127,154,3,89,269,274,105,29,17,140,193,267,200,178,263,180,83,125,295,65,55,284,13,111,169,23,238,70,208,270,81,216,77,103,167,141,15,68,45,166,153,132,219,69,76,10,218,52,215,157,287,59,173,183,134,116,5,228,266,150,64,221,203,288,291,246,163,272,109,239,112,44,50,131,78,41,130,245,185,91,155,43,107,260,197,99,74,231,110,192,122,58,186,264,135,265,243,108,237,224,71,281,40,123,268,235,51,84,80,172,188,144,289,126,273,98,35,222,14,286,148,18,196,12,138,4,294,276,152,11,210,93,118,250,184,159,2,61,79,86,299,62,211,252,72,33,277,161,96,194,115,214,240,227,97,226,8,201,204,146,75,92,63,262,145,156,165,42,114,73,9,49,247,220,285,117,16,21,120,168,236,128,7,290,189,202,280,190,278,0,46,27,261,100,26,223,37,121,38,292,249,28,258,279,20,102,54,160,143,25,158,85,195,242,175,209,181,293,275,104,205,298,254,53,24,182,297,162,48,88,232,177,82,31,187,90,57,259,129,251,171,179,170,206,39,244,95,36,229]","arrowleft","0","0","90","300","[""0016_N0300_K0090_CLIQUE"",""0080_N0300_K0090_NOCLIQUE""]","","true"
"","","","","","audio-keyboard-response","56","870487","0.0-48.4-0.4-1.4","","null","audio_feedback/right/coin01.mp3","null","","","0","0","90","300","[""0016_N0300_K0090_CLIQUE"",""0080_N0300_K0090_NOCLIQUE""]","",""
"","","","","","canvas-keyboard-response","57","893949","0.0-49.0-0.0-0.0","","23277",""," ","[266,120,161,115,50,269,194,84,16,165,110,210,181,193,65,157,13,280,153,248,160,232,28,39,145,135,166,274,55,185,2,155,290,46,201,85,154,107,179,38,44,126,187,148,33,198,69,89,191,99,171,213,104,1,224,47,35,74,173,261,180,250,225,264,36,147,5,7,175,288,257,151,31,42,78,100,112,72,30,262,17,0,118,21,291,168,137,63,272,140,152,170,131,141,285,24,217,186,229,190,94,235,159,199,60,86,182,226,214,27,20,95,103,273,67,93,258,149,58,3,271,53,144,41,281,139,221,62,172,228,192,119,117,129,202,244,236,238,298,57,292,240,242,4,79,37,22,233,286,253,219,255,12,276,296,40,143,265,134,196,132,195,25,252,169,122,56,88,6,208,234,18,82,215,59,76,127,263,128,294,174,279,101,188,123,66,10,68,178,64,114,71,251,218,222,138,106,15,246,207,92,26,54,184,73,295,87,275,249,45,211,243,91,111,227,245,81,146,116,142,108,70,19,136,164,223,284,176,167,270,109,113,283,105,61,239,96,14,297,241,156,158,200,51,278,293,216,80,220,282,177,204,197,203,231,75,23,256,29,267,206,48,162,209,212,90,268,130,254,34,259,9,11,98,189,237,43,8,289,205,52,287,97,121,49,247,260,125,77,150,124,183,299,83,102,133,32,163,230,277]","arrowleft","0","1","90","300","[""0091_N0300_K0090_CLIQUE"",""0094_N0300_K0090_NOCLIQUE""]","",""
"","","","","","audio-keyboard-response","58","894823","0.0-49.0-0.0-1.0","","null","audio_feedback/shuffles/shuffle01.mp3","null","","","0","1","90","300","[""0091_N0300_K0090_CLIQUE"",""0094_N0300_K0090_NOCLIQUE""]","",""
"","","","","","canvas-keyboard-response","59","896397","0.0-49.1-0.1-0.1","","1398",""," ","[171,123,24,26,101,293,298,165,149,194,132,131,28,175,55,23,51,247,43,14,278,246,120,271,210,57,17,179,248,38,199,119,281,141,114,150,136,31,144,287,213,105,27,243,201,128,133,137,54,0,286,81,185,288,48,212,88,151,5,158,180,44,283,292,87,152,196,236,124,250,231,139,100,240,254,211,56,167,12,129,97,143,7,237,154,202,239,200,25,255,156,40,91,291,266,162,170,80,161,94,256,53,111,3,264,238,126,218,178,73,277,216,186,227,182,232,153,13,147,2,229,9,65,190,253,220,10,109,140,92,86,116,299,134,289,16,37,192,50,174,235,46,1,21,205,260,20,259,265,280,191,90,214,252,273,60,89,164,225,39,67,272,146,208,282,258,197,79,78,59,34,118,96,290,173,75,18,296,195,166,221,176,284,121,177,203,226,294,113,262,69,181,249,234,242,35,4,228,66,193,52,145,207,61,62,64,285,295,49,19,241,224,206,122,223,84,187,32,274,215,68,47,30,209,95,82,112,138,275,22,233,77,99,98,279,83,6,245,263,125,270,72,222,130,11,155,257,188,204,45,157,172,169,269,41,268,108,33,102,160,217,71,198,163,244,168,189,103,276,104,63,15,85,159,127,184,230,117,76,251,267,142,219,36,148,106,70,58,29,42,8,115,74,183,261,107,135,297,110,93]","arrowleft","0","1","90","300","[""0091_N0300_K0090_CLIQUE"",""0094_N0300_K0090_NOCLIQUE""]","",""
"","","","","","audio-keyboard-response","60","897180","0.0-49.1-0.1-1.1","","null","audio_feedback/shuffles/shuffle01.mp3","null","","","0","1","90","300","[""0091_N0300_K0090_CLIQUE"",""0094_N0300_K0090_NOCLIQUE""]","",""
"","","","","","canvas-keyboard-response","61","899618","0.0-49.2-0.2-0.2","","2282","","arrowleft","[45,60,17,80,175,245,291,79,108,268,128,105,71,30,227,146,40,178,256,232,196,212,204,100,150,194,156,48,293,163,173,215,270,49,296,67,74,133,285,148,112,131,265,27,33,39,16,154,116,238,34,129,187,298,279,205,28,31,70,224,290,53,271,113,21,138,223,287,130,297,197,280,180,2,144,274,263,222,15,167,59,240,262,295,182,65,123,101,78,85,231,6,118,213,294,209,151,210,25,35,7,202,47,155,219,203,90,159,4,137,81,56,104,260,66,139,51,37,255,136,91,32,58,44,106,55,140,22,234,75,218,282,46,23,239,186,98,165,132,120,24,272,3,179,228,183,257,198,225,26,157,233,94,42,143,174,54,283,172,8,269,278,64,217,189,135,184,107,284,38,36,246,235,77,288,199,236,19,83,158,242,292,9,162,248,192,273,160,207,109,166,195,181,220,13,226,93,171,110,267,95,122,161,149,121,261,82,243,41,191,20,258,97,43,177,145,230,126,254,14,247,88,73,216,200,229,211,111,102,57,152,117,69,127,10,87,115,276,185,147,253,29,214,61,206,266,62,277,264,134,50,176,52,169,188,124,208,170,141,251,250,168,249,1,76,286,259,153,68,237,99,275,0,103,92,11,96,299,114,142,289,84,221,252,12,18,63,244,241,125,193,190,5,119,201,164,281,86,72,89]","arrowleft","0","1","90","300","[""0091_N0300_K0090_CLIQUE"",""0094_N0300_K0090_NOCLIQUE""]","","true"
"","","","","","audio-keyboard-response","62","900243","0.0-49.2-0.2-1.2","","null","audio_feedback/right/coin01.mp3","null","","","0","1","90","300","[""0091_N0300_K0090_CLIQUE"",""0094_N0300_K0090_NOCLIQUE""]","",""
"","","","","","canvas-keyboard-response","63","905671","0.0-50.0-0.0-0.0","","5269",""," ","[151,249,233,137,56,246,205,253,10,175,29,290,122,103,272,120,54,24,188,150,34,86,127,254,206,268,297,270,41,222,5,104,278,183,76,208,105,39,218,18,211,124,19,126,75,153,282,47,90,44,279,299,0,167,172,281,163,8,245,53,171,57,136,87,59,38,132,135,186,11,261,32,198,187,119,235,28,114,214,65,115,267,16,89,266,223,168,64,259,288,191,51,107,83,291,2,236,144,220,143,248,238,161,139,200,62,131,82,242,118,179,207,21,239,45,37,263,221,217,213,252,116,296,276,14,170,133,229,68,155,280,264,102,203,289,193,177,40,50,27,134,273,212,173,7,258,232,271,31,113,180,42,20,1,98,142,152,178,79,251,146,184,269,13,67,81,36,66,92,9,3,30,78,4,199,262,145,23,195,283,148,166,196,292,60,210,22,110,77,241,243,157,100,201,194,15,63,237,174,189,294,298,125,97,72,71,197,96,128,88,101,49,111,160,274,73,149,277,33,215,108,106,48,129,80,182,17,6,84,141,43,202,293,121,250,147,46,169,138,130,94,231,226,93,140,69,156,159,25,162,176,228,230,255,55,240,219,99,117,26,192,123,225,265,256,70,181,95,52,74,244,112,216,224,35,165,61,58,109,158,91,154,12,85,286,287,257,260,204,164,275,284,190,285,209,295,227,185,234,247]","arrowright","0","2","80","300","[""0026_N0300_K0080_NOCLIQUE"",""0098_N0300_K0080_CLIQUE""]","",""
"","","","","","audio-keyboard-response","64","906450","0.0-50.0-0.0-1.0","","null","audio_feedback/shuffles/shuffle01.mp3","null","","","0","2","80","300","[""0026_N0300_K0080_NOCLIQUE"",""0098_N0300_K0080_CLIQUE""]","",""
"","","","","","canvas-keyboard-response","65","909822","0.0-50.1-0.1-0.1","","3227",""," ","[173,175,95,282,222,144,224,219,188,65,55,106,293,273,261,70,131,30,220,42,184,227,18,208,58,32,257,156,50,168,52,59,28,137,267,126,167,218,254,180,87,234,103,223,82,280,288,105,142,148,36,2,100,133,264,33,236,78,49,230,215,195,210,146,120,299,287,17,154,141,102,251,4,5,84,270,74,181,110,88,165,129,153,93,54,249,27,204,39,163,43,290,198,138,289,63,240,190,157,80,47,73,145,89,76,116,38,260,246,239,201,255,291,268,69,170,238,155,24,83,265,174,203,130,114,124,79,262,37,107,61,178,294,85,194,151,292,98,51,29,200,31,92,9,162,3,71,248,152,283,182,211,111,179,228,53,128,199,237,14,60,252,212,296,94,159,6,23,12,242,269,34,109,26,108,286,150,185,99,187,0,274,25,276,35,117,243,41,1,271,298,64,149,166,132,177,113,225,209,192,214,164,121,118,272,258,232,244,241,281,67,207,68,97,297,143,123,147,233,13,86,266,115,48,172,183,277,20,135,263,193,229,176,169,186,104,16,11,202,217,101,160,91,139,285,40,171,259,189,75,90,72,77,245,235,45,66,134,10,231,279,216,213,81,196,56,44,96,158,275,15,136,161,295,206,256,247,62,22,284,250,21,7,191,46,140,127,19,226,221,278,119,122,57,112,205,125,197,253,8]","arrowright","0","2","80","300","[""0026_N0300_K0080_NOCLIQUE"",""0098_N0300_K0080_CLIQUE""]","",""
"","","","","","audio-keyboard-response","66","910597","0.0-50.1-0.1-1.1","","null","audio_feedback/shuffles/shuffle01.mp3","null","","","0","2","80","300","[""0026_N0300_K0080_NOCLIQUE"",""0098_N0300_K0080_CLIQUE""]","",""
"","","","","","canvas-keyboard-response","67","913089","0.0-50.2-0.2-0.2","","2348",""," ","[130,20,39,122,152,78,225,213,2,75,160,115,206,194,271,134,42,253,166,234,199,165,150,30,185,153,175,181,238,133,57,148,31,179,110,159,266,262,167,265,204,0,259,276,200,186,125,284,257,121,198,222,28,112,269,178,59,217,111,229,114,215,233,47,45,4,231,242,26,41,244,218,129,299,156,86,105,94,12,123,102,235,294,54,88,65,85,64,19,247,76,60,293,291,80,232,79,250,104,142,37,18,268,81,17,281,106,154,5,15,171,51,6,236,151,292,182,50,69,127,230,277,149,140,92,155,161,89,214,290,192,251,190,7,55,22,67,170,120,285,91,77,237,279,168,209,9,10,205,169,113,27,245,11,174,56,297,195,14,72,193,274,141,288,143,287,210,272,241,203,146,177,164,97,63,70,99,36,239,16,282,163,34,48,254,196,49,116,117,128,246,52,289,184,71,131,8,201,21,228,191,126,61,296,252,40,108,139,260,98,256,243,46,24,53,144,83,173,96,211,258,224,208,74,295,107,58,101,138,263,73,62,207,3,286,43,33,103,44,93,219,189,220,188,221,145,172,176,278,147,216,23,261,157,87,25,35,13,298,32,162,136,270,66,137,82,119,38,95,202,280,187,275,180,249,84,273,197,135,1,132,109,240,264,283,118,29,267,100,183,90,68,248,226,124,158,227,223,212,255]","arrowright","0","2","80","300","[""0026_N0300_K0080_NOCLIQUE"",""0098_N0300_K0080_CLIQUE""]","",""
"","","","","","audio-keyboard-response","68","913862","0.0-50.2-0.2-1.2","","null","audio_feedback/shuffles/shuffle01.mp3","null","","","0","2","80","300","[""0026_N0300_K0080_NOCLIQUE"",""0098_N0300_K0080_CLIQUE""]","",""
"","","","","","canvas-keyboard-response","69","915163","0.0-50.3-0.3-0.3","","1146",""," ","[0,214,120,148,90,93,163,29,89,191,270,171,229,146,264,238,96,87,168,5,101,197,119,83,30,228,32,52,192,130,278,181,64,233,49,296,205,6,44,132,43,280,174,67,53,46,189,114,261,200,285,207,138,48,59,244,17,88,252,141,45,211,11,111,82,236,224,123,8,178,295,259,73,277,61,23,150,222,36,172,287,221,62,235,68,2,110,162,126,63,4,193,281,210,65,84,275,206,186,219,35,234,50,255,241,124,282,293,262,107,263,196,74,109,212,125,75,195,81,113,42,179,215,209,21,149,157,177,60,218,92,297,230,180,71,190,99,135,147,268,7,152,117,279,31,227,145,185,33,202,187,283,76,56,155,291,85,19,237,156,86,18,39,16,175,136,97,213,164,203,290,243,298,51,144,173,128,248,55,14,257,103,184,9,246,115,139,208,54,176,151,276,204,254,273,142,91,15,250,240,40,225,160,258,266,269,78,10,94,217,267,1,77,104,188,183,194,272,260,137,154,153,25,28,143,274,116,37,294,159,22,249,182,26,198,167,105,286,12,121,108,13,34,232,41,133,239,289,158,72,98,57,166,102,140,27,161,70,169,38,134,299,170,245,80,95,129,69,226,165,66,58,223,112,292,256,3,122,201,247,271,20,231,220,100,284,24,288,216,251,265,79,253,131,199,47,118,127,106,242]","arrowright","0","2","80","300","[""0026_N0300_K0080_NOCLIQUE"",""0098_N0300_K0080_CLIQUE""]","",""
"","","","","","audio-keyboard-response","70","915934","0.0-50.3-0.3-1.3","","null","audio_feedback/shuffles/shuffle01.mp3","null","","","0","2","80","300","[""0026_N0300_K0080_NOCLIQUE"",""0098_N0300_K0080_CLIQUE""]","",""
"","","","","","canvas-keyboard-response","71","918742","0.0-50.4-0.4-0.4","","2659","","arrowright","[52,230,168,19,17,297,136,144,112,114,167,290,137,51,263,282,277,75,13,62,57,166,284,60,295,180,198,175,233,165,194,45,77,37,221,248,213,195,104,16,219,209,42,245,218,7,18,103,123,267,289,217,208,255,27,228,253,128,46,189,149,88,292,246,279,256,204,178,241,269,186,73,285,153,205,74,32,76,71,11,288,223,151,101,160,299,181,0,201,113,280,120,239,250,154,124,206,12,131,152,270,193,94,36,197,129,262,214,5,157,174,158,173,296,65,81,161,80,232,187,110,240,150,119,276,147,227,79,238,58,159,286,106,23,33,264,143,275,185,222,4,15,10,182,87,281,176,14,244,63,43,258,39,211,117,291,148,190,164,3,224,21,130,242,141,203,91,68,247,212,202,274,61,9,25,261,72,115,260,271,254,95,278,156,127,54,215,83,155,138,140,196,84,257,53,252,98,20,96,70,268,85,272,116,298,82,172,237,26,293,97,145,294,22,225,24,283,234,108,30,78,170,44,226,35,171,210,231,67,40,139,235,266,200,177,6,105,28,118,100,122,99,188,64,89,47,133,1,251,92,183,146,102,125,55,48,66,135,132,162,50,243,109,107,86,121,220,142,259,192,90,59,2,38,216,236,93,56,229,8,179,69,29,31,163,199,265,34,41,49,126,207,249,134,169,287,273,191,184,111]","arrowright","0","2","80","300","[""0026_N0300_K0080_NOCLIQUE"",""0098_N0300_K0080_CLIQUE""]","","true"
"","","","","","audio-keyboard-response","72","919366","0.0-50.4-0.4-1.4","","null","audio_feedback/right/coin01.mp3","null","","","0","2","80","300","[""0026_N0300_K0080_NOCLIQUE"",""0098_N0300_K0080_CLIQUE""]","",""
"","","","","","canvas-keyboard-response","73","923608","0.0-51.0-0.0-0.0","","4098",""," ","[288,82,249,120,13,14,53,68,113,43,70,177,3,115,37,284,134,158,297,90,104,169,135,17,148,50,128,152,248,299,254,295,106,285,294,79,31,186,228,266,142,207,38,59,281,212,147,287,40,154,83,208,279,80,126,232,150,29,119,292,62,256,214,168,2,257,263,118,51,20,271,16,189,46,269,124,246,76,230,211,226,173,170,77,49,268,4,195,241,110,247,35,100,98,146,63,276,272,107,67,187,28,66,140,93,209,133,27,222,250,202,64,125,259,12,81,87,196,223,15,291,58,176,197,95,136,42,282,55,84,203,260,97,229,205,286,149,33,161,215,193,182,99,65,243,117,172,11,204,92,141,74,123,174,239,72,9,245,213,180,52,227,240,24,45,96,30,75,23,26,153,155,54,36,129,39,275,21,121,188,290,71,206,171,224,219,109,56,138,32,156,277,0,252,258,78,102,289,57,274,162,231,91,143,5,253,6,261,48,273,160,198,218,220,183,164,200,108,1,280,19,264,18,298,60,145,122,88,165,86,194,112,41,244,181,235,233,163,255,101,105,103,190,127,192,44,47,237,178,283,217,61,270,185,236,89,225,69,144,139,191,267,179,85,8,242,34,278,132,22,184,234,167,221,10,116,157,262,114,7,238,265,94,251,111,73,296,166,151,130,210,175,159,25,199,131,137,216,201,293]","arrowright","0","3","80","300","[""0050_N0300_K0080_NOCLIQUE"",""0046_N0300_K0080_CLIQUE""]","",""
"","","","","","audio-keyboard-response","74","924376","0.0-51.0-0.0-1.0","","null","audio_feedback/shuffles/shuffle01.mp3","null","","","0","3","80","300","[""0050_N0300_K0080_NOCLIQUE"",""0046_N0300_K0080_CLIQUE""]","",""
"","","","","","canvas-keyboard-response","75","926119","0.0-51.1-0.1-0.1","","1595",""," ","[33,58,260,40,130,231,108,153,70,162,157,105,20,119,80,163,256,234,45,91,219,191,82,263,133,87,24,240,120,122,277,211,81,238,100,14,206,176,257,59,177,208,168,298,23,2,246,188,136,222,109,152,77,96,118,220,42,288,189,224,86,218,227,25,230,144,16,184,262,201,186,92,255,254,126,10,132,107,216,139,64,291,34,297,172,275,48,79,156,196,98,30,269,123,237,226,250,292,141,21,209,148,69,253,11,193,90,158,210,52,31,149,72,93,282,121,179,213,284,104,99,18,115,268,7,8,192,38,185,145,106,200,259,280,272,13,89,199,181,198,35,204,46,135,138,161,27,44,265,111,150,19,50,233,289,117,147,95,283,65,167,217,116,170,113,127,155,75,165,159,114,57,142,194,266,3,71,274,270,41,56,137,195,76,248,85,54,171,134,281,232,279,212,160,251,83,9,225,37,173,182,229,215,125,175,203,174,299,28,74,271,243,264,205,5,47,61,68,78,49,36,26,241,140,63,97,221,190,183,290,151,0,214,1,295,228,60,242,53,62,17,112,129,286,276,88,131,258,180,51,207,252,32,166,103,267,66,223,245,197,12,128,67,261,110,169,143,55,6,39,102,43,247,15,294,94,235,73,154,29,22,84,187,124,236,285,239,4,146,178,164,278,296,244,293,202,273,101,287,249]","arrowright","0","3","80","300","[""0050_N0300_K0080_NOCLIQUE"",""0046_N0300_K0080_CLIQUE""]","",""
"","","","","","audio-keyboard-response","76","926897","0.0-51.1-0.1-1.1","","null","audio_feedback/shuffles/shuffle01.mp3","null","","","0","3","80","300","[""0050_N0300_K0080_NOCLIQUE"",""0046_N0300_K0080_CLIQUE""]","",""
"","","","","","canvas-keyboard-response","77","929021","0.0-51.2-0.2-0.2","","1946","","arrowright","[102,229,69,289,275,99,53,35,187,253,46,157,60,266,58,52,26,154,113,198,128,292,127,262,234,139,248,135,182,264,125,222,211,32,141,203,290,265,200,84,16,293,39,98,220,23,64,168,214,54,17,240,11,66,12,250,43,213,33,221,73,208,31,172,164,76,0,247,299,133,119,244,77,205,226,97,4,86,238,7,78,120,212,10,121,259,59,42,14,72,216,126,79,24,146,177,41,284,48,189,159,108,232,258,130,13,89,122,270,230,143,175,9,207,19,273,5,140,70,169,61,174,153,82,149,167,51,36,25,22,166,201,245,87,218,158,49,170,204,225,295,96,277,65,6,190,85,233,179,111,29,67,197,150,215,209,267,93,288,278,136,115,114,183,261,246,287,243,116,228,131,192,129,286,95,147,156,210,123,88,274,18,219,254,199,272,217,110,152,271,92,45,2,80,193,15,151,105,37,161,28,163,178,160,94,194,241,3,107,56,55,227,100,263,255,155,1,62,294,276,281,144,196,236,27,285,296,106,8,21,282,269,181,63,148,137,235,68,124,83,176,34,185,239,118,57,298,162,249,184,223,145,20,47,206,256,191,142,165,268,104,90,132,260,186,134,297,280,173,40,252,257,251,117,180,188,75,38,283,109,50,224,138,112,171,74,242,30,279,91,71,195,103,202,44,231,291,237,81,101]","arrowright","0","3","80","300","[""0050_N0300_K0080_NOCLIQUE"",""0046_N0300_K0080_CLIQUE""]","","true"
"","","","","","audio-keyboard-response","78","929649","0.0-51.2-0.2-1.2","","null","audio_feedback/right/coin01.mp3","null","","","0","3","80","300","[""0050_N0300_K0080_NOCLIQUE"",""0046_N0300_K0080_CLIQUE""]","",""
"","","","","","canvas-keyboard-response","79","937215","0.0-52.0-0.0-0.0","","7402",""," ","[194,197,246,128,167,209,273,69,297,135,134,27,35,247,88,277,213,28,2,267,107,163,86,122,201,6,8,50,32,238,221,195,21,97,55,74,166,151,142,254,154,299,266,276,16,82,298,84,72,120,37,270,109,116,264,160,295,104,15,165,172,40,153,292,18,178,170,108,42,123,89,100,203,85,41,60,239,38,279,288,245,243,44,224,285,103,23,269,114,146,212,241,12,207,99,206,155,229,159,216,53,110,242,30,176,59,111,156,198,7,218,248,280,80,228,182,105,70,143,186,289,210,95,63,98,75,34,290,90,181,132,157,77,29,140,230,68,222,180,9,76,129,262,92,226,113,112,102,183,130,94,150,65,275,121,133,204,291,227,263,131,73,138,296,118,294,225,71,17,14,233,43,137,10,101,174,147,161,202,282,13,87,36,145,81,217,200,231,175,52,187,48,272,232,287,67,244,223,124,91,265,25,251,259,219,256,144,235,188,234,19,47,83,0,78,51,255,268,249,45,117,96,24,260,62,149,136,49,293,152,4,141,61,54,20,252,193,257,164,148,57,1,240,125,211,162,119,22,237,26,177,168,184,64,66,196,258,33,179,158,39,281,5,185,250,205,199,278,271,236,214,46,106,192,169,58,126,208,215,284,11,283,139,79,253,190,191,171,56,261,115,127,286,3,173,220,274,189,31,93]","arrowleft","0","4","70","300","[""0040_N0300_K0070_CLIQUE"",""0002_N0300_K0070_NOCLIQUE""]","",""
"","","","","","audio-keyboard-response","80","938089","0.0-52.0-0.0-1.0","","null","audio_feedback/shuffles/shuffle01.mp3","null","","","0","4","70","300","[""0040_N0300_K0070_CLIQUE"",""0002_N0300_K0070_NOCLIQUE""]","",""
"","","","","","canvas-keyboard-response","81","940581","0.0-52.1-0.1-0.1","","2348",""," ","[265,200,6,147,21,184,277,84,202,14,254,110,157,88,183,188,275,172,100,211,50,24,220,42,201,15,27,61,259,55,170,179,13,194,107,273,101,213,153,177,214,246,150,197,131,92,91,294,111,242,75,263,40,90,130,44,132,145,0,206,160,113,210,48,112,62,221,47,290,59,161,292,67,4,175,115,128,162,208,176,163,189,203,243,207,64,215,222,155,295,117,289,22,234,236,279,195,140,262,192,77,11,252,296,244,185,269,98,102,281,146,45,129,81,85,76,127,87,49,69,53,230,35,116,245,143,152,124,138,261,56,86,80,18,109,8,71,103,126,282,54,293,154,255,122,41,89,5,231,187,108,93,142,276,186,251,139,298,70,133,239,190,299,286,271,23,120,285,156,225,241,105,164,235,237,66,168,39,37,284,134,287,240,256,78,229,149,204,198,169,135,181,288,218,226,165,118,199,104,79,25,95,283,249,274,57,278,3,96,167,43,16,97,159,260,72,173,83,205,228,63,1,82,36,180,99,32,266,253,33,166,178,171,219,217,46,52,20,141,17,209,212,272,60,12,123,94,51,247,30,7,216,137,182,73,264,193,151,26,158,238,227,136,250,121,248,38,106,68,9,125,2,74,270,174,291,258,223,191,34,119,114,19,196,31,280,65,233,297,224,257,58,268,10,232,144,267,29,148,28]","arrowleft","0","4","70","300","[""0040_N0300_K0070_CLIQUE"",""0002_N0300_K0070_NOCLIQUE""]","",""
"","","","","","audio-keyboard-response","82","941355","0.0-52.1-0.1-1.1","","null","audio_feedback/shuffles/shuffle01.mp3","null","","","0","4","70","300","[""0040_N0300_K0070_CLIQUE"",""0002_N0300_K0070_NOCLIQUE""]","",""
"","","","","","canvas-keyboard-response","83","946220","0.0-52.2-0.2-0.2","","4686",""," ","[197,81,173,100,188,117,109,211,287,118,57,82,277,170,97,77,142,4,51,175,176,179,195,288,160,158,80,263,237,14,18,84,212,120,17,136,221,78,265,233,255,103,155,168,196,213,165,20,6,52,89,200,234,207,49,48,91,185,141,119,159,96,218,299,281,184,72,178,95,62,189,39,254,35,143,16,247,248,204,245,135,67,23,33,186,71,203,66,2,116,43,167,115,294,90,54,172,64,124,108,79,278,209,153,121,68,46,243,146,60,111,161,226,214,191,171,201,157,65,290,286,101,61,76,58,63,199,250,297,149,44,180,40,30,169,289,140,252,269,183,27,275,102,205,98,280,192,25,253,106,240,34,256,262,264,107,10,133,94,114,270,138,163,85,282,273,174,7,190,9,74,150,130,260,83,69,134,193,208,228,267,293,296,279,231,156,110,37,230,238,239,229,217,257,112,258,232,59,283,104,93,8,126,244,47,145,242,181,274,131,139,127,298,88,12,24,19,220,194,249,164,225,1,87,162,32,122,219,241,223,45,187,251,198,206,15,182,148,152,128,38,284,271,272,292,42,291,21,26,137,22,215,216,154,92,125,29,236,56,210,55,266,53,73,28,202,151,31,132,105,285,3,147,177,166,41,86,295,123,0,11,5,113,129,70,222,36,268,259,224,227,75,50,276,235,99,246,144,261,13]","arrowleft","0","4","70","300","[""0040_N0300_K0070_CLIQUE"",""0002_N0300_K0070_NOCLIQUE""]","",""
"","","","","","audio-keyboard-response","84","946997","0.0-52.2-0.2-1.2","","null","audio_feedback/shuffles/shuffle01.mp3","null","","","0","4","70","300","[""0040_N0300_K0070_CLIQUE"",""0002_N0300_K0070_NOCLIQUE""]","",""
"","","","","","canvas-keyboard-response","85","949769","0.0-52.3-0.3-0.3","","2625",""," ","[217,26,18,226,141,200,218,28,236,154,280,109,90,235,174,115,165,193,265,123,107,230,222,245,261,39,281,5,179,231,156,67,4,29,118,43,296,244,180,2,203,3,254,58,111,73,122,253,135,260,166,293,202,66,239,132,74,98,94,36,35,146,65,128,172,201,295,142,145,291,61,80,207,176,211,62,45,0,86,285,22,138,271,248,297,149,126,289,23,12,124,11,274,116,232,187,224,186,173,275,240,247,136,38,9,157,42,163,70,220,192,55,139,208,105,191,215,246,290,228,298,64,30,41,7,225,288,87,167,205,13,263,171,181,197,206,143,276,47,190,14,17,251,292,92,71,262,106,269,69,278,227,233,112,88,49,204,294,46,286,277,252,108,79,75,264,152,59,242,129,249,6,10,219,48,155,183,257,68,177,125,175,77,40,151,31,83,101,184,147,287,63,212,25,33,32,250,133,20,284,267,72,102,189,282,159,178,153,195,216,214,117,81,56,91,15,121,213,85,198,130,283,182,119,96,84,99,82,158,19,234,89,168,188,50,113,279,266,127,103,131,16,100,24,255,223,34,221,134,209,299,150,137,199,1,196,54,93,53,148,160,170,164,78,169,259,60,273,140,76,270,51,95,268,52,44,8,27,161,144,120,37,243,185,57,110,97,162,104,241,210,256,272,238,21,237,114,194,229,258]","arrowleft","0","4","70","300","[""0040_N0300_K0070_CLIQUE"",""0002_N0300_K0070_NOCLIQUE""]","",""
"","","","","","audio-keyboard-response","86","950544","0.0-52.3-0.3-1.3","","null","audio_feedback/shuffles/shuffle01.mp3","null","","","0","4","70","300","[""0040_N0300_K0070_CLIQUE"",""0002_N0300_K0070_NOCLIQUE""]","",""
"","","","","","canvas-keyboard-response","87","952988","0.0-52.4-0.4-0.4","","2281",""," ","[241,176,51,240,7,117,137,247,160,62,128,95,100,194,80,98,15,289,41,155,138,105,145,296,207,17,130,45,198,190,133,294,72,262,121,295,233,196,270,118,84,218,210,110,70,298,3,11,30,161,166,226,229,253,16,271,86,90,205,134,280,213,149,87,219,263,27,230,93,175,24,49,216,265,44,275,259,32,193,89,245,189,272,292,18,112,171,148,260,251,106,57,13,243,256,248,276,96,297,22,288,153,99,206,167,26,47,39,12,208,152,9,182,264,278,266,186,6,136,281,225,204,53,92,183,56,214,83,143,139,120,200,211,81,283,168,60,123,212,144,299,74,255,202,36,58,227,119,154,122,42,286,291,249,103,29,156,91,23,129,181,107,50,257,235,284,66,115,188,282,174,151,111,43,59,79,67,140,52,277,33,234,126,195,109,21,63,179,268,163,285,28,209,147,197,232,61,239,94,242,222,37,273,1,102,178,250,158,48,116,252,101,131,31,65,78,4,85,220,55,104,159,77,191,142,82,132,71,169,180,125,108,162,14,19,69,238,217,215,244,187,20,8,279,10,228,46,73,2,246,258,261,64,0,40,223,135,254,124,236,274,237,141,269,35,150,38,157,75,76,224,25,290,170,293,231,177,172,165,164,201,287,203,127,34,5,185,184,97,88,221,192,114,173,199,113,68,146,54,267]","arrowleft","0","4","70","300","[""0040_N0300_K0070_CLIQUE"",""0002_N0300_K0070_NOCLIQUE""]","",""
"","","","","","audio-keyboard-response","88","953768","0.0-52.4-0.4-1.4","","null","audio_feedback/shuffles/shuffle01.mp3","null","","","0","4","70","300","[""0040_N0300_K0070_CLIQUE"",""0002_N0300_K0070_NOCLIQUE""]","",""
"","","","","","canvas-keyboard-response","89","956908","0.0-52.5-0.5-0.5","","2959",""," ","[158,225,254,58,121,294,186,185,298,193,279,109,179,66,56,299,83,92,133,141,14,117,71,13,37,211,67,111,222,88,128,252,96,69,115,223,277,12,251,75,263,269,19,139,271,146,39,295,163,255,36,199,147,148,5,238,291,181,17,43,195,30,113,197,65,260,273,219,172,161,218,156,285,174,256,81,24,224,55,170,53,63,274,182,47,159,210,3,70,49,288,282,164,7,82,104,87,206,196,41,144,50,297,214,221,132,178,267,51,78,124,138,187,10,135,112,281,119,33,194,130,126,91,99,202,248,262,32,129,292,289,52,287,72,232,236,150,183,107,216,280,15,149,208,108,105,264,283,220,54,68,122,86,134,235,247,205,94,145,184,241,151,276,200,245,272,153,176,29,229,1,89,226,27,18,26,169,125,80,268,171,42,9,258,101,242,166,62,296,93,76,188,142,20,250,40,0,261,31,23,293,74,215,212,44,152,6,136,11,175,190,157,231,201,189,162,160,103,16,204,239,127,123,59,61,177,198,116,227,173,217,168,240,257,77,265,275,8,46,180,243,102,237,228,64,100,131,165,98,110,38,84,286,95,230,45,270,191,28,73,90,25,259,167,2,57,207,106,209,21,48,85,140,290,249,35,155,4,143,120,154,192,79,278,34,118,246,114,60,244,137,253,213,234,97,284,233,266,22,203]","arrowleft","0","4","70","300","[""0040_N0300_K0070_CLIQUE"",""0002_N0300_K0070_NOCLIQUE""]","",""
"","","","","","audio-keyboard-response","90","957680","0.0-52.5-0.5-1.5","","null","audio_feedback/shuffles/shuffle01.mp3","null","","","0","4","70","300","[""0040_N0300_K0070_CLIQUE"",""0002_N0300_K0070_NOCLIQUE""]","",""
"","","","","","canvas-keyboard-response","91","961934","0.0-52.6-0.6-0.6","","4107",""," ","[127,134,232,117,46,47,267,63,201,82,270,100,34,73,187,214,170,6,181,98,66,118,208,4,162,178,251,219,195,261,282,143,292,262,29,299,9,289,40,222,68,75,207,184,284,96,186,189,112,220,91,218,239,77,210,291,279,149,79,166,59,204,205,35,45,55,19,2,132,38,131,209,281,196,288,250,12,109,93,172,80,72,71,30,31,265,233,194,138,154,248,191,97,18,85,105,211,104,37,84,48,83,25,240,124,266,24,165,185,223,252,10,283,260,216,290,52,119,78,17,101,39,237,3,164,297,298,272,229,275,225,161,62,287,107,13,20,255,173,41,202,110,169,129,114,81,155,200,242,253,125,70,136,152,244,157,33,26,60,168,102,130,89,95,294,151,241,256,36,197,243,249,213,135,139,76,57,234,126,215,121,258,176,87,56,226,146,293,123,280,58,175,174,65,128,7,86,286,15,150,257,42,296,198,140,271,8,133,94,212,193,264,111,192,99,171,122,167,163,88,274,230,148,0,153,137,90,228,144,217,49,246,64,67,159,113,141,188,295,103,221,32,224,276,254,160,1,21,28,156,285,259,203,22,199,115,235,190,92,116,147,269,278,231,74,277,273,106,227,268,44,158,27,54,206,11,53,245,51,183,142,177,182,69,43,16,263,5,14,238,236,180,50,61,108,247,179,120,23,145]","arrowleft","0","4","70","300","[""0040_N0300_K0070_CLIQUE"",""0002_N0300_K0070_NOCLIQUE""]","",""
"","","","","","audio-keyboard-response","92","962706","0.0-52.6-0.6-1.6","","null","audio_feedback/shuffles/shuffle01.mp3","null","","","0","4","70","300","[""0040_N0300_K0070_CLIQUE"",""0002_N0300_K0070_NOCLIQUE""]","",""
"","","","","","canvas-keyboard-response","93","966489","0.0-52.7-0.7-0.7","","3634",""," ","[162,156,255,243,276,277,23,161,103,232,93,41,195,166,268,152,172,259,71,84,119,147,48,79,219,30,132,221,117,274,180,203,107,140,58,239,155,220,36,217,212,37,228,170,5,204,169,126,248,227,75,113,278,234,235,173,292,290,110,85,101,262,116,29,14,229,215,92,28,168,256,96,299,236,94,211,60,3,74,202,135,33,22,124,282,95,191,230,237,185,4,104,267,118,193,251,264,57,222,114,189,139,271,17,153,69,297,258,241,186,244,31,175,80,188,179,100,0,97,24,283,260,90,45,136,46,11,43,143,131,13,56,8,20,9,190,265,201,279,62,233,1,38,106,44,12,133,68,254,81,128,253,174,76,284,25,209,111,295,224,142,289,26,246,176,261,7,19,177,200,15,181,123,157,165,66,47,225,108,10,120,280,99,192,32,88,240,250,121,296,78,35,214,247,134,65,18,197,291,59,129,184,285,288,242,52,226,207,67,39,198,269,272,249,163,137,122,298,98,49,6,55,245,102,194,160,2,263,115,257,281,112,151,208,154,183,141,89,125,294,148,213,150,87,127,206,70,138,187,54,27,130,53,105,50,16,205,91,210,73,293,21,286,145,223,216,64,158,42,159,273,146,266,83,77,61,182,86,149,287,252,34,270,63,167,51,275,178,238,231,40,164,72,218,109,171,199,82,144,196]","arrowleft","0","4","70","300","[""0040_N0300_K0070_CLIQUE"",""0002_N0300_K0070_NOCLIQUE""]","",""
"","","","","","audio-keyboard-response","94","967268","0.0-52.7-0.7-1.7","","null","audio_feedback/shuffles/shuffle01.mp3","null","","","0","4","70","300","[""0040_N0300_K0070_CLIQUE"",""0002_N0300_K0070_NOCLIQUE""]","",""
"","","","","","canvas-keyboard-response","95","969534","0.0-52.8-0.8-0.8","","2117",""," ","[177,117,110,66,243,279,204,292,56,133,178,54,35,267,273,218,226,244,271,213,128,40,2,7,161,24,41,101,166,238,122,228,264,201,162,157,99,120,246,58,32,75,240,39,92,38,298,289,193,210,280,29,124,127,156,70,185,241,274,216,51,212,15,76,46,85,252,233,159,181,239,146,108,0,287,234,16,53,254,37,190,22,138,21,63,103,262,62,182,140,69,97,96,163,206,88,42,8,136,89,282,26,259,245,31,224,71,261,95,79,94,167,173,169,183,100,168,33,14,72,3,141,80,52,81,160,82,48,192,258,13,276,199,74,281,144,184,278,295,28,44,229,111,187,230,102,47,109,211,255,165,176,194,43,115,106,248,249,232,290,143,105,296,272,172,291,200,77,107,104,93,247,152,145,34,158,208,242,68,196,207,121,180,83,285,215,123,19,150,286,283,114,175,132,227,112,155,147,59,126,125,221,235,174,269,135,131,251,237,277,1,11,268,6,61,257,130,256,116,202,18,253,209,45,188,171,191,217,250,137,186,30,197,263,86,170,129,67,4,84,236,266,134,219,214,27,9,49,231,222,10,36,12,275,65,87,265,73,60,164,113,64,260,57,119,195,293,91,20,149,154,198,25,118,78,294,284,288,139,205,203,151,189,5,225,50,179,220,90,297,142,98,55,270,148,23,17,223,153,299]","arrowleft","0","4","70","300","[""0040_N0300_K0070_CLIQUE"",""0002_N0300_K0070_NOCLIQUE""]","",""
"","","","","","audio-keyboard-response","96","970313","0.0-52.8-0.8-1.8","","null","audio_feedback/shuffles/shuffle01.mp3","null","","","0","4","70","300","[""0040_N0300_K0070_CLIQUE"",""0002_N0300_K0070_NOCLIQUE""]","",""
"","","","","","canvas-keyboard-response","97","972965","0.0-52.9-0.9-0.9","","2468",""," ","[222,241,99,150,2,30,244,63,25,245,54,261,218,257,79,288,70,279,115,299,41,21,158,80,28,11,139,32,185,109,47,180,24,34,271,104,285,43,27,273,65,108,280,93,22,147,125,272,85,216,224,1,39,97,200,107,112,238,42,12,81,217,262,149,116,254,157,35,259,253,258,170,67,166,57,3,167,199,283,78,228,130,140,256,111,194,96,29,188,118,8,165,225,105,40,82,64,239,275,117,191,174,145,242,113,232,71,137,219,153,148,37,294,264,250,297,98,131,44,201,73,144,298,173,159,87,94,19,270,103,13,141,6,86,171,123,10,66,156,132,198,119,61,146,203,192,226,5,31,266,197,236,284,193,58,7,138,91,231,292,215,163,176,75,202,133,289,184,127,223,14,36,295,38,296,263,230,56,49,88,220,62,168,106,276,152,251,77,124,161,247,187,196,100,160,45,17,204,155,120,142,69,293,240,282,154,18,169,233,286,135,181,178,76,151,249,68,59,55,189,277,89,50,274,186,229,212,190,195,205,26,162,9,179,83,255,136,20,33,23,227,122,74,213,143,243,234,95,53,128,46,252,248,110,72,278,208,102,129,114,237,182,121,175,260,177,206,235,214,164,52,281,290,246,92,134,269,16,287,4,221,291,209,101,60,48,268,126,90,267,183,265,15,51,0,172,84,210,207,211]","arrowleft","0","4","70","300","[""0040_N0300_K0070_CLIQUE"",""0002_N0300_K0070_NOCLIQUE""]","",""
"","","","","","audio-keyboard-response","98","973743","0.0-52.9-0.9-1.9","","null","audio_feedback/shuffles/shuffle01.mp3","null","","","0","4","70","300","[""0040_N0300_K0070_CLIQUE"",""0002_N0300_K0070_NOCLIQUE""]","",""
"","","","","","canvas-keyboard-response","99","976315","0.0-52.10-0.10-0.10","","2393","","arrowleft","[234,291,0,284,149,94,35,95,133,79,81,171,209,37,232,216,130,54,170,253,160,200,236,176,27,136,179,190,3,219,229,134,60,162,287,288,70,18,73,89,128,188,20,77,131,285,191,92,185,239,244,115,218,33,247,174,256,52,114,257,195,117,272,78,38,268,282,112,118,280,99,289,8,105,290,87,93,293,214,241,184,207,80,96,261,97,240,47,49,275,48,113,266,106,122,228,141,152,157,43,273,58,34,83,231,274,213,295,50,292,132,57,161,222,196,144,258,19,138,2,154,12,11,265,14,220,32,193,13,277,67,286,139,124,155,201,233,221,110,4,217,53,251,283,151,125,182,107,296,143,41,146,120,279,230,102,223,169,36,59,26,40,224,210,189,262,46,178,123,203,271,145,129,74,140,29,255,39,6,7,246,172,186,127,88,215,212,21,156,24,208,28,137,204,100,237,245,69,263,270,199,187,168,108,142,25,206,31,197,104,227,44,192,166,98,159,101,249,17,181,194,242,22,72,298,51,226,281,260,173,126,62,121,248,56,243,147,264,177,63,294,76,150,91,276,202,278,238,5,45,66,250,1,61,183,109,65,90,84,119,167,165,254,68,103,269,299,71,23,211,163,16,205,153,180,252,111,86,85,116,10,267,235,15,30,9,55,297,198,64,42,75,259,135,164,82,148,158,225,175]","arrowleft","0","4","70","300","[""0040_N0300_K0070_CLIQUE"",""0002_N0300_K0070_NOCLIQUE""]","","true"
"","","","","","audio-keyboard-response","100","976943","0.0-52.10-0.10-1.10","","null","audio_feedback/right/coin01.mp3","null","","","0","4","70","300","[""0040_N0300_K0070_CLIQUE"",""0002_N0300_K0070_NOCLIQUE""]","",""
"","","","","","canvas-keyboard-response","101","983350","0.0-53.0-0.0-0.0","","6262",""," ","[47,294,184,245,129,238,286,67,34,98,105,103,44,234,69,55,221,210,13,180,187,112,16,76,222,7,185,144,91,38,29,36,218,202,62,21,3,199,54,265,273,186,35,284,96,290,291,5,152,192,266,237,249,0,259,230,94,39,88,197,241,147,95,140,261,26,250,134,70,82,156,74,28,113,19,46,183,111,216,159,298,124,283,227,87,277,17,73,181,219,93,204,292,9,242,133,178,287,4,122,85,177,120,171,205,182,161,110,235,31,168,104,20,296,163,59,2,121,12,231,109,145,92,166,72,269,223,299,236,63,157,248,11,101,119,282,226,251,288,43,126,66,158,195,123,155,53,198,107,150,37,8,40,128,293,190,276,89,78,280,130,32,24,25,262,257,194,278,131,244,50,167,289,239,270,174,6,212,151,117,15,254,33,268,64,162,233,135,65,172,260,175,84,77,57,80,220,252,263,141,45,83,170,52,164,75,217,137,116,256,23,285,153,229,196,213,18,255,232,30,246,211,61,58,203,272,188,258,281,191,49,209,48,127,247,275,193,146,90,102,68,179,71,295,51,208,138,1,132,224,86,125,142,100,228,201,264,136,22,115,42,165,14,97,148,189,200,154,106,41,99,253,206,176,10,149,108,173,243,114,271,297,27,279,267,79,118,160,225,274,81,60,143,207,214,139,56,169,240,215]","arrowleft","0","5","70","300","[""0059_N0300_K0070_CLIQUE"",""0098_N0300_K0070_NOCLIQUE""]","",""
"","","","","","audio-keyboard-response","102","984224","0.0-53.0-0.0-1.0","","null","audio_feedback/shuffles/shuffle01.mp3","null","","","0","5","70","300","[""0059_N0300_K0070_CLIQUE"",""0098_N0300_K0070_NOCLIQUE""]","",""
"","","","","","canvas-keyboard-response","103","989338","0.0-53.1-0.1-0.1","","4974",""," ","[1,221,103,271,55,110,48,144,171,46,287,6,65,212,53,5,162,176,275,286,91,164,294,99,39,100,153,255,14,269,97,117,197,211,173,277,71,232,285,174,231,105,282,102,238,74,241,166,128,154,227,59,139,127,3,23,254,34,236,17,68,47,237,50,7,204,180,32,217,193,165,29,35,2,264,146,81,222,239,187,240,273,177,289,170,69,51,70,233,37,293,134,262,196,279,88,195,121,224,253,163,219,125,291,156,169,40,230,295,12,260,297,270,194,84,114,133,66,220,257,49,62,268,109,179,267,213,298,168,19,208,95,77,142,101,21,206,107,13,223,4,152,44,261,57,259,229,80,186,123,200,265,207,41,20,93,78,284,90,161,185,42,276,150,151,183,76,64,148,118,281,181,288,56,256,225,290,111,30,82,198,119,246,10,215,182,145,192,113,43,159,155,0,147,178,18,28,36,214,252,22,280,86,135,184,24,226,72,143,83,45,283,33,299,124,258,175,272,137,96,26,210,292,61,242,129,122,9,189,85,27,202,205,248,216,278,132,120,79,234,138,73,247,112,251,201,38,31,167,245,191,250,8,115,149,157,16,209,190,235,108,263,140,63,104,244,203,116,11,160,75,249,126,130,92,199,228,52,25,15,98,296,87,243,266,106,89,54,188,60,158,218,136,58,274,67,141,172,131,94]","arrowleft","0","5","70","300","[""0059_N0300_K0070_CLIQUE"",""0098_N0300_K0070_NOCLIQUE""]","",""
"","","","","","audio-keyboard-response","104","990118","0.0-53.1-0.1-1.1","","null","audio_feedback/shuffles/shuffle01.mp3","null","","","0","5","70","300","[""0059_N0300_K0070_CLIQUE"",""0098_N0300_K0070_NOCLIQUE""]","",""
"","","","","","canvas-keyboard-response","105","992778","0.0-53.2-0.2-0.2","","2518",""," ","[217,291,102,70,58,252,266,2,150,158,4,171,260,264,207,55,229,103,256,184,149,40,241,298,90,267,175,259,22,10,43,197,136,254,272,59,233,281,231,246,1,230,85,29,60,191,269,30,188,154,202,27,276,189,49,238,179,215,96,81,178,138,23,167,89,156,83,218,195,170,201,99,172,290,79,36,282,270,185,206,53,287,159,223,129,220,82,283,226,33,161,284,78,176,160,115,74,38,45,122,44,118,216,21,119,225,51,94,242,168,193,205,93,165,288,135,88,248,148,194,16,100,212,6,247,209,75,109,17,236,296,67,294,157,228,257,224,68,71,222,64,192,107,278,263,97,186,77,46,155,19,297,198,280,275,262,28,39,124,258,121,114,152,203,108,92,123,243,211,47,87,277,128,127,208,0,18,133,293,120,183,48,190,101,219,279,112,143,65,144,32,181,126,14,104,249,265,166,146,8,162,147,234,274,292,57,113,56,213,66,250,169,141,76,20,86,52,163,13,37,130,62,134,42,173,182,239,237,285,15,221,35,164,72,286,199,116,253,251,3,24,245,261,117,204,106,41,31,232,131,268,110,187,125,151,69,84,61,235,255,98,95,25,153,174,140,240,111,26,177,132,5,12,180,73,137,214,244,9,227,7,289,210,271,80,34,145,299,200,91,11,273,63,54,295,142,50,139,105,196]","arrowleft","0","5","70","300","[""0059_N0300_K0070_CLIQUE"",""0098_N0300_K0070_NOCLIQUE""]","",""
"","","","","","audio-keyboard-response","106","993555","0.0-53.2-0.2-1.2","","null","audio_feedback/shuffles/shuffle01.mp3","null","","","0","5","70","300","[""0059_N0300_K0070_CLIQUE"",""0098_N0300_K0070_NOCLIQUE""]","",""
"","","","","","canvas-keyboard-response","107","996600","0.0-53.3-0.3-0.3","","2906",""," ","[37,102,153,250,232,83,122,225,194,139,296,34,69,167,240,20,227,59,174,283,270,98,196,212,218,183,74,135,184,36,136,125,243,180,100,159,217,245,112,281,46,116,89,8,260,26,221,203,5,222,195,113,79,287,28,109,294,197,43,211,160,123,19,82,64,291,65,235,238,16,35,138,210,54,146,150,80,233,230,181,21,289,11,58,239,264,213,99,224,290,2,205,143,297,105,163,7,110,188,208,84,228,30,215,156,206,68,258,130,288,214,176,88,256,246,142,66,118,298,158,53,279,6,92,269,266,29,231,172,154,70,168,244,4,38,128,52,18,295,178,39,72,162,299,170,45,27,186,131,62,95,31,277,103,3,278,164,200,262,161,165,155,169,111,216,97,193,292,120,248,157,198,57,282,151,293,249,76,175,48,85,152,44,14,93,87,223,94,81,75,50,189,271,254,140,247,33,274,9,71,177,133,190,191,149,107,219,272,268,119,73,91,204,144,126,101,241,129,23,171,77,114,24,273,147,40,251,148,229,141,286,51,237,127,104,253,182,55,284,261,275,145,41,192,10,86,1,115,132,47,252,67,42,166,173,199,185,78,207,276,187,201,255,280,265,49,60,242,12,96,202,90,61,0,63,267,236,13,106,259,226,209,108,257,121,220,32,137,56,263,285,117,124,15,134,25,17,22,234,179]","arrowleft","0","5","70","300","[""0059_N0300_K0070_CLIQUE"",""0098_N0300_K0070_NOCLIQUE""]","",""
"","","","","","audio-keyboard-response","108","997378","0.0-53.3-0.3-1.3","","null","audio_feedback/shuffles/shuffle01.mp3","null","","","0","5","70","300","[""0059_N0300_K0070_CLIQUE"",""0098_N0300_K0070_NOCLIQUE""]","",""
"","","","","","canvas-keyboard-response","109","1001711","0.0-53.4-0.4-0.4","","4190",""," ","[84,31,189,282,56,140,1,269,103,273,126,72,154,237,97,265,214,26,286,8,283,16,37,65,12,175,19,247,259,118,213,27,167,3,223,291,93,254,192,66,270,232,131,133,81,238,10,99,287,88,151,236,149,52,242,15,264,231,76,204,110,195,89,165,177,117,98,125,217,257,6,194,142,106,284,277,60,293,205,104,63,299,250,274,96,119,94,298,144,222,152,295,258,115,137,294,59,153,146,261,147,256,171,200,112,82,79,150,83,225,17,4,74,245,281,155,164,127,288,170,196,148,240,187,197,296,46,156,134,218,61,162,179,212,25,271,114,33,23,105,280,230,123,13,36,71,145,166,78,297,279,124,54,252,0,239,35,7,278,157,172,95,100,30,64,253,215,90,210,20,40,14,206,251,176,18,101,199,168,86,182,244,2,5,21,77,80,75,57,67,201,211,209,41,58,169,111,122,128,180,85,107,276,139,29,109,49,160,268,198,260,174,186,108,28,267,161,227,34,24,73,135,249,229,129,202,44,193,11,38,219,55,235,45,203,290,42,143,262,158,47,87,138,181,248,53,120,32,183,62,275,241,50,220,263,116,184,132,207,185,163,173,121,136,102,226,43,285,70,91,48,234,233,266,68,51,216,159,92,292,141,289,178,191,39,228,221,255,69,9,272,208,243,190,246,224,22,188,130,113]","arrowleft","0","5","70","300","[""0059_N0300_K0070_CLIQUE"",""0098_N0300_K0070_NOCLIQUE""]","",""
"","","","","","audio-keyboard-response","110","1002486","0.0-53.4-0.4-1.4","","null","audio_feedback/shuffles/shuffle01.mp3","null","","","0","5","70","300","[""0059_N0300_K0070_CLIQUE"",""0098_N0300_K0070_NOCLIQUE""]","",""
"","","","","","canvas-keyboard-response","111","1005704","0.0-53.5-0.5-0.5","","3055",""," ","[12,151,190,36,31,63,228,188,101,30,82,221,123,165,8,138,250,291,15,52,1,155,185,21,60,260,285,29,35,45,122,95,239,116,87,193,25,167,139,187,262,131,180,154,132,142,86,246,121,39,186,91,288,227,48,5,111,272,65,129,292,107,64,128,182,220,164,149,0,85,38,24,203,229,297,143,98,259,69,126,11,42,296,92,179,197,28,194,201,49,2,242,103,81,243,106,137,217,146,251,59,62,120,279,56,50,90,26,67,43,130,27,40,57,14,226,230,173,277,240,249,244,247,32,248,104,145,184,275,202,125,257,80,136,115,152,170,293,118,159,34,68,234,253,233,53,258,141,223,192,175,168,144,23,46,73,219,286,241,284,47,252,238,134,9,208,41,157,231,88,109,74,232,265,113,283,195,212,204,77,174,177,205,225,235,274,158,278,22,267,276,268,200,71,270,183,171,110,178,269,78,176,191,108,61,222,79,282,84,163,94,7,206,117,148,166,215,264,280,172,261,281,236,124,20,273,33,245,44,37,198,156,76,210,3,266,153,105,112,96,196,83,295,97,99,16,4,6,218,75,147,140,298,169,237,89,189,119,114,100,263,70,135,213,256,181,13,214,58,224,160,150,54,271,66,102,161,133,255,299,216,207,199,254,55,18,10,162,72,19,211,287,290,127,289,294,51,93,17,209]","arrowleft","0","5","70","300","[""0059_N0300_K0070_CLIQUE"",""0098_N0300_K0070_NOCLIQUE""]","",""
"","","","","","audio-keyboard-response","112","1006482","0.0-53.5-0.5-1.5","","null","audio_feedback/shuffles/shuffle01.mp3","null","","","0","5","70","300","[""0059_N0300_K0070_CLIQUE"",""0098_N0300_K0070_NOCLIQUE""]","",""
"","","","","","canvas-keyboard-response","113","1008885","0.0-53.6-0.6-0.6","","2253",""," ","[150,226,162,115,168,291,112,262,265,9,240,232,76,298,193,261,38,217,222,246,117,79,49,175,124,24,185,255,85,192,276,209,116,58,45,296,77,74,100,11,171,237,161,73,119,110,270,71,95,21,113,60,104,205,299,17,7,239,142,278,5,90,130,235,10,282,180,219,25,287,61,286,164,280,215,190,197,188,149,210,1,221,64,207,0,44,144,220,170,153,253,145,198,120,211,128,277,54,225,98,37,216,292,70,43,89,109,55,242,139,201,50,243,241,28,249,247,65,289,230,22,4,189,172,268,281,195,203,135,13,191,129,35,202,234,87,184,238,224,114,275,194,250,14,30,75,8,96,223,218,103,84,67,251,138,148,23,260,159,53,169,285,27,118,111,102,26,147,31,244,181,284,36,66,68,208,121,165,99,134,33,273,245,83,259,173,271,94,46,160,137,166,92,174,267,32,256,78,199,186,214,41,176,248,293,34,63,123,236,126,266,48,88,132,108,12,29,257,47,272,40,204,178,16,59,156,177,227,125,80,288,86,254,233,252,213,179,51,72,133,106,82,18,97,167,141,290,136,122,107,264,6,52,127,187,91,19,151,101,39,206,154,228,294,200,295,183,2,93,269,155,157,274,263,131,140,279,196,105,182,81,297,3,57,152,20,69,42,231,15,212,158,143,258,146,283,163,56,62,229]","arrowleft","0","5","70","300","[""0059_N0300_K0070_CLIQUE"",""0098_N0300_K0070_NOCLIQUE""]","",""
"","","","","","audio-keyboard-response","114","1009655","0.0-53.6-0.6-1.6","","null","audio_feedback/shuffles/shuffle01.mp3","null","","","0","5","70","300","[""0059_N0300_K0070_CLIQUE"",""0098_N0300_K0070_NOCLIQUE""]","",""
"","","","","","canvas-keyboard-response","115","1011391","0.0-53.7-0.7-0.7","","1573","","arrowleft","[124,15,25,30,89,290,5,228,287,242,121,49,248,258,9,294,233,72,201,111,18,6,8,83,11,101,139,142,279,246,215,114,177,23,296,155,172,183,268,217,136,150,98,169,166,65,226,75,186,38,22,193,261,73,148,227,40,245,173,113,103,34,81,54,133,100,55,94,271,218,212,85,20,243,99,252,17,273,132,176,181,105,269,182,236,276,91,191,214,234,21,283,295,209,274,62,292,187,194,147,14,82,44,90,256,32,257,42,143,86,144,237,29,159,285,161,213,141,267,216,39,92,7,207,96,240,284,2,297,57,225,210,76,180,19,231,69,158,131,152,63,208,151,259,95,47,270,232,135,238,116,93,162,293,52,154,146,171,206,281,174,79,188,250,109,204,53,3,298,165,244,199,31,102,58,0,107,140,265,211,254,118,179,189,192,299,78,247,160,251,104,130,125,77,221,67,145,122,80,45,153,120,33,239,74,185,137,64,41,222,123,51,164,286,282,129,112,37,253,28,108,88,61,128,163,134,170,4,275,266,197,289,205,280,46,87,119,71,68,115,262,255,264,263,168,195,156,196,59,56,110,48,224,291,24,27,84,178,198,190,278,277,200,35,229,220,70,219,235,13,230,202,60,223,138,249,97,149,167,43,66,175,288,1,260,106,241,50,26,127,12,117,184,203,157,10,272,36,126,16]","arrowleft","0","5","70","300","[""0059_N0300_K0070_CLIQUE"",""0098_N0300_K0070_NOCLIQUE""]","","true"
"","","","","","audio-keyboard-response","116","1012023","0.0-53.7-0.7-1.7","","null","audio_feedback/right/coin01.mp3","null","","","0","5","70","300","[""0059_N0300_K0070_CLIQUE"",""0098_N0300_K0070_NOCLIQUE""]","",""
"","","","","","canvas-keyboard-response","117","1017102","0.0-54.0-0.0-0.0","","4932",""," ","[42,210,157,231,207,29,234,161,62,85,257,264,183,211,245,292,281,176,104,172,54,114,266,75,72,267,156,78,200,142,205,138,60,269,89,199,23,1,203,48,31,11,151,277,167,16,14,67,79,272,271,144,70,34,81,255,109,279,49,224,291,191,140,268,149,171,178,24,17,86,223,220,289,206,284,294,192,71,141,154,218,250,4,150,258,152,110,10,5,190,193,143,8,155,118,56,61,45,26,102,184,170,121,260,117,217,216,25,243,295,299,32,57,208,230,252,126,177,107,90,285,55,244,136,165,15,296,270,182,44,241,37,28,40,247,194,175,124,213,222,262,50,20,88,276,98,201,228,87,188,169,35,233,43,108,137,214,112,186,288,239,185,181,103,94,273,198,96,146,134,99,209,163,7,235,147,33,236,53,127,131,125,39,259,130,168,196,179,6,274,202,253,63,153,106,36,66,148,261,133,197,246,116,0,293,59,278,286,158,77,229,145,18,221,282,58,21,290,115,30,105,248,84,242,162,166,65,97,254,129,132,82,27,101,174,46,123,287,47,238,219,159,41,240,256,119,76,13,113,195,9,93,19,122,275,298,2,173,187,22,204,80,283,139,74,69,100,215,73,3,128,92,189,91,232,135,120,265,83,52,68,263,160,12,95,164,297,225,237,111,280,51,64,180,38,227,249,251,226,212]","arrowright","0","6","65","300","[""0073_N0300_K0065_NOCLIQUE"",""0009_N0300_K0065_CLIQUE""]","",""
"","","","","","audio-keyboard-response","118","1017878","0.0-54.0-0.0-1.0","","null","audio_feedback/shuffles/shuffle01.mp3","null","","","0","6","65","300","[""0073_N0300_K0065_NOCLIQUE"",""0009_N0300_K0065_CLIQUE""]","",""
"","","","","","canvas-keyboard-response","119","1022553","0.0-54.1-0.1-0.1","","4519",""," ","[198,118,75,154,79,107,272,20,189,158,264,185,233,103,55,128,226,58,265,295,61,84,5,245,10,65,117,52,291,166,95,167,282,85,150,174,169,200,186,31,204,193,116,290,256,232,197,8,57,94,67,129,30,127,124,252,83,280,238,130,231,262,194,147,184,278,163,89,108,125,181,299,161,240,190,148,133,202,170,274,225,284,224,141,114,171,203,64,109,71,292,152,215,143,260,223,138,32,19,180,22,87,206,172,86,74,218,263,277,151,269,9,146,126,144,261,42,91,115,26,77,104,177,38,285,222,40,88,191,281,49,78,6,255,1,34,219,234,239,4,139,82,251,199,7,173,135,132,46,287,90,201,298,165,268,289,142,213,136,275,45,145,156,208,253,247,131,220,0,121,73,258,56,50,81,153,54,12,60,248,80,210,242,249,217,246,235,13,106,182,120,97,63,33,259,250,293,230,273,72,241,266,123,39,27,14,279,176,297,257,66,207,76,29,211,227,271,35,21,209,205,164,162,122,243,70,2,159,188,134,41,270,212,214,99,228,267,216,47,92,23,119,18,237,296,17,37,168,25,68,101,102,51,62,111,178,100,288,294,110,221,192,28,93,15,229,43,105,36,179,48,137,155,187,160,69,183,286,98,149,53,3,283,96,140,195,11,113,276,24,175,112,244,157,236,59,44,254,196,16]","arrowright","0","6","65","300","[""0073_N0300_K0065_NOCLIQUE"",""0009_N0300_K0065_CLIQUE""]","",""
"","","","","","audio-keyboard-response","120","1023331","0.0-54.1-0.1-1.1","","null","audio_feedback/shuffles/shuffle01.mp3","null","","","0","6","65","300","[""0073_N0300_K0065_NOCLIQUE"",""0009_N0300_K0065_CLIQUE""]","",""
"","","","","","canvas-keyboard-response","121","1025961","0.0-54.2-0.2-0.2","","2493",""," ","[58,165,91,279,88,253,17,10,49,285,179,120,174,136,228,126,230,214,270,138,241,114,52,150,85,57,212,199,19,224,204,181,67,169,266,38,16,111,81,201,51,292,82,97,90,272,7,171,175,246,284,43,172,187,59,288,166,295,41,167,231,256,9,115,269,191,296,21,8,282,293,132,55,157,53,75,71,144,23,158,27,159,99,37,227,123,121,164,6,223,141,160,291,161,62,131,5,200,106,12,219,73,46,14,15,80,35,278,218,24,236,210,257,147,31,265,105,283,133,129,89,205,122,74,277,40,196,34,258,252,60,180,102,44,30,118,32,261,280,273,128,163,125,139,112,64,36,134,13,54,297,275,244,4,192,92,247,28,96,29,98,281,77,299,260,48,221,243,110,237,63,83,86,11,182,47,0,225,153,238,68,178,107,76,170,294,127,195,298,103,251,173,101,262,226,274,20,207,215,145,245,39,135,213,72,268,263,216,33,149,156,249,206,95,45,202,79,220,250,1,176,109,148,254,152,211,193,255,100,116,87,198,42,234,222,287,197,203,146,78,94,26,186,50,142,183,140,235,276,154,18,65,143,113,239,84,209,289,25,168,217,69,184,2,188,61,259,189,240,194,104,290,117,162,267,229,264,137,190,248,70,271,22,155,108,286,119,130,66,124,177,3,93,185,56,151,232,208,233,242]","arrowright","0","6","65","300","[""0073_N0300_K0065_NOCLIQUE"",""0009_N0300_K0065_CLIQUE""]","",""
"","","","","","audio-keyboard-response","122","1026737","0.0-54.2-0.2-1.2","","null","audio_feedback/shuffles/shuffle01.mp3","null","","","0","6","65","300","[""0073_N0300_K0065_NOCLIQUE"",""0009_N0300_K0065_CLIQUE""]","",""
"","","","","","canvas-keyboard-response","123","1029790","0.0-54.3-0.3-0.3","","2878",""," ","[24,295,227,135,133,190,4,261,123,82,16,51,32,28,54,215,42,231,236,116,67,175,212,108,157,282,9,156,74,244,208,205,8,46,232,238,130,275,265,198,60,192,30,247,68,197,200,39,100,277,149,114,145,177,10,14,165,294,139,268,103,194,285,270,252,283,288,210,18,260,144,164,71,118,1,44,119,101,189,52,176,75,178,50,27,58,143,31,186,221,211,159,182,188,223,98,0,37,73,104,69,81,25,290,291,226,29,132,163,174,95,179,53,141,111,243,276,266,137,3,7,213,256,255,55,64,115,287,97,79,298,49,117,281,84,43,229,230,242,6,13,127,251,92,26,264,136,85,166,171,187,299,56,193,94,48,138,47,249,160,34,284,17,155,204,196,113,239,102,76,107,66,142,151,173,237,235,129,72,224,65,35,146,59,259,271,161,183,168,105,240,96,206,158,184,286,45,209,126,241,99,140,70,90,23,148,152,214,202,154,41,109,225,21,279,222,11,272,217,88,296,245,106,121,150,91,128,216,172,199,258,19,110,122,57,125,234,167,203,38,169,297,131,112,228,263,61,22,36,63,257,77,83,12,93,33,120,15,273,250,293,191,162,80,195,262,292,207,254,147,134,89,185,2,40,20,180,170,87,246,181,289,86,5,219,267,278,248,220,78,269,124,62,201,280,253,153,233,274,218]","arrowright","0","6","65","300","[""0073_N0300_K0065_NOCLIQUE"",""0009_N0300_K0065_CLIQUE""]","",""
"","","","","","audio-keyboard-response","124","1030567","0.0-54.3-0.3-1.3","","null","audio_feedback/shuffles/shuffle01.mp3","null","","","0","6","65","300","[""0073_N0300_K0065_NOCLIQUE"",""0009_N0300_K0065_CLIQUE""]","",""
"","","","","","canvas-keyboard-response","125","1032137","0.0-54.4-0.4-0.4","","1413",""," ","[57,236,140,228,207,218,1,182,149,178,154,195,176,110,74,281,108,243,37,34,104,66,65,113,97,3,11,106,274,248,95,280,91,43,63,260,5,120,216,119,220,292,116,139,54,90,193,230,212,187,258,191,72,257,298,96,180,17,4,179,94,32,252,99,102,174,24,202,68,42,46,125,89,177,282,189,80,194,200,71,299,213,53,132,0,36,27,206,112,9,41,100,2,168,160,151,231,44,273,290,20,76,22,21,285,170,15,155,204,269,203,69,284,115,146,142,250,232,60,198,215,133,10,141,244,158,98,211,291,183,51,29,208,172,107,169,241,45,296,255,219,114,88,165,48,242,272,55,245,239,223,77,225,138,164,184,128,13,86,16,277,145,118,249,131,59,12,62,18,276,266,295,217,167,61,85,47,222,210,150,126,93,185,92,297,67,28,49,143,256,50,261,129,190,124,175,7,265,171,135,123,197,267,271,38,81,173,40,253,75,234,221,25,73,109,181,283,39,238,58,78,23,262,147,289,233,278,79,264,64,246,134,279,121,254,286,148,293,87,105,52,251,56,229,162,201,35,31,192,163,199,235,259,144,156,270,287,127,103,157,19,117,33,209,82,214,159,153,83,237,130,275,84,30,101,224,240,226,8,294,152,227,186,14,6,188,268,111,166,196,161,263,205,122,136,26,247,70,288,137]","arrowright","0","6","65","300","[""0073_N0300_K0065_NOCLIQUE"",""0009_N0300_K0065_CLIQUE""]","",""
"","","","","","audio-keyboard-response","126","1032910","0.0-54.4-0.4-1.4","","null","audio_feedback/shuffles/shuffle01.mp3","null","","","0","6","65","300","[""0073_N0300_K0065_NOCLIQUE"",""0009_N0300_K0065_CLIQUE""]","",""
"","","","","","canvas-keyboard-response","127","1034233","0.0-54.5-0.5-0.5","","1185","","arrowright","[64,94,146,217,35,164,241,116,287,36,148,180,281,273,126,21,234,206,181,14,239,44,65,231,276,267,233,224,77,174,138,3,192,111,291,102,211,145,1,157,162,71,260,121,183,160,244,289,196,191,254,209,294,288,90,50,296,15,47,216,243,12,39,83,87,222,221,93,100,250,269,67,271,259,284,161,152,168,202,201,26,4,52,117,136,167,154,163,75,220,173,246,79,54,114,292,46,155,227,240,149,219,55,153,37,38,28,268,229,29,105,158,226,60,43,230,131,150,98,124,99,263,187,225,31,178,242,290,115,283,280,274,6,132,299,282,193,195,179,286,84,204,213,256,120,96,32,108,33,107,176,293,285,16,8,22,295,184,63,27,61,210,45,57,0,270,113,171,88,186,92,127,80,278,109,41,122,42,182,207,69,70,59,214,128,103,125,104,272,208,137,203,20,123,86,17,212,218,89,166,18,266,24,261,205,51,252,53,199,72,248,247,198,232,255,106,188,19,235,30,40,58,76,142,143,190,264,275,298,237,62,170,11,91,119,253,245,97,118,236,66,223,129,200,215,81,249,74,133,144,101,265,2,257,56,48,165,82,197,297,175,159,130,134,147,49,194,151,9,251,189,185,7,277,34,156,23,141,228,73,5,78,68,238,258,25,262,177,135,172,110,140,112,13,279,85,95,169,10,139]","arrowright","0","6","65","300","[""0073_N0300_K0065_NOCLIQUE"",""0009_N0300_K0065_CLIQUE""]","","true"
"","","","","","audio-keyboard-response","128","1034864","0.0-54.5-0.5-1.5","","null","audio_feedback/right/coin01.mp3","null","","","0","6","65","300","[""0073_N0300_K0065_NOCLIQUE"",""0009_N0300_K0065_CLIQUE""]","",""
"","","","","","canvas-keyboard-response","129","1040478","0.0-55.0-0.0-0.0","","5471",""," ","[161,142,80,261,156,93,9,251,242,22,41,28,166,29,145,229,100,25,108,264,104,266,243,6,128,87,268,32,2,39,149,255,184,235,232,18,96,12,134,17,61,8,50,122,15,55,215,68,124,38,67,175,286,186,219,54,189,181,204,289,66,150,46,71,236,244,277,158,283,89,34,206,171,97,75,83,126,44,288,47,211,143,216,226,56,115,147,73,267,195,27,60,26,276,220,239,91,4,37,131,231,205,35,107,105,187,299,123,19,269,69,14,159,194,102,111,113,298,81,224,74,238,118,263,139,42,16,208,63,117,176,160,155,173,121,168,10,273,45,0,79,146,290,13,137,213,280,165,58,174,129,271,70,53,1,191,36,241,272,177,281,110,130,282,125,295,30,203,200,90,233,33,285,245,84,218,270,133,64,86,77,20,199,296,167,178,212,221,227,148,198,225,7,88,48,250,164,202,163,24,127,265,284,253,95,228,153,256,183,172,65,275,43,5,209,293,152,170,190,185,294,154,169,262,252,59,21,72,230,248,214,92,11,51,210,179,23,197,144,78,222,249,76,103,240,180,188,85,247,291,138,292,57,157,49,136,279,82,3,258,237,246,98,234,112,257,62,162,99,106,217,196,135,297,278,31,254,116,259,120,193,119,192,40,52,94,274,101,201,132,141,140,114,182,287,109,223,207,151,260]","arrowright","0","7","65","300","[""0007_N0300_K0065_NOCLIQUE"",""0052_N0300_K0065_CLIQUE""]","",""
"","","","","","audio-keyboard-response","130","1041252","0.0-55.0-0.0-1.0","","null","audio_feedback/shuffles/shuffle01.mp3","null","","","0","7","65","300","[""0007_N0300_K0065_NOCLIQUE"",""0052_N0300_K0065_CLIQUE""]","",""
"","","","","","canvas-keyboard-response","131","1048947","0.0-55.1-0.1-0.1","","7558",""," ","[294,208,236,48,70,237,68,92,175,266,104,22,226,138,101,258,283,177,120,119,254,164,94,55,173,204,298,153,144,12,161,158,50,250,35,127,109,299,185,234,51,13,182,15,277,276,269,154,53,273,215,10,42,26,28,163,195,186,293,248,88,218,230,257,135,282,128,89,240,223,123,155,83,249,8,121,297,69,165,290,17,181,125,264,133,106,167,72,111,288,124,143,64,241,270,246,129,80,194,60,39,191,67,232,4,58,192,275,145,229,271,183,6,203,169,3,91,110,99,255,245,41,260,228,2,159,225,5,193,201,49,285,219,27,233,87,46,86,24,259,14,141,171,238,44,211,126,180,272,286,247,82,132,0,139,231,253,179,118,157,97,150,108,279,251,9,284,81,151,103,280,113,76,256,75,131,25,142,216,146,291,105,115,261,190,160,168,222,85,242,31,34,207,200,265,79,66,107,210,95,84,56,184,33,239,152,19,116,196,197,206,262,54,162,61,11,37,178,209,62,172,30,136,170,137,267,73,90,189,224,287,274,147,140,176,98,20,212,38,93,214,7,268,295,43,77,18,112,217,243,71,174,102,59,166,244,78,57,220,296,23,149,202,63,21,40,281,74,16,122,213,29,188,205,134,65,52,235,227,252,263,114,199,45,130,36,292,148,1,278,32,221,96,100,289,156,47,187,117,198]","arrowright","0","7","65","300","[""0007_N0300_K0065_NOCLIQUE"",""0052_N0300_K0065_CLIQUE""]","",""
"","","","","","audio-keyboard-response","132","1049817","0.0-55.1-0.1-1.1","","null","audio_feedback/shuffles/shuffle01.mp3","null","","","0","7","65","300","[""0007_N0300_K0065_NOCLIQUE"",""0052_N0300_K0065_CLIQUE""]","",""
"","","","","","canvas-keyboard-response","133","1051979","0.0-55.2-0.2-0.2","","2020",""," ","[288,211,68,206,39,185,108,128,58,63,98,71,203,208,162,48,40,141,32,23,296,158,75,81,135,59,88,176,248,99,177,179,84,151,121,278,95,29,175,136,261,214,139,201,291,235,15,11,147,262,218,50,114,165,223,284,168,148,146,286,164,143,132,276,174,257,199,28,171,243,76,46,72,17,256,13,67,26,101,210,251,86,0,38,186,130,231,240,237,97,159,103,181,35,18,200,112,221,169,100,197,155,149,252,27,117,245,228,9,1,129,213,111,78,188,293,244,295,49,110,96,189,36,207,160,127,24,156,173,227,249,209,212,120,161,16,122,274,195,193,125,21,297,254,104,229,92,163,102,74,134,126,118,89,41,279,66,116,93,299,225,170,144,205,106,44,80,10,290,184,220,242,140,267,145,258,3,196,283,22,182,64,20,216,222,192,69,70,272,5,259,270,34,137,273,82,250,62,37,236,85,109,8,191,238,230,166,73,7,65,79,289,56,131,183,292,194,268,246,83,298,54,31,277,154,285,25,232,14,294,124,53,94,115,239,51,269,234,275,77,247,150,233,42,190,133,215,219,12,43,87,61,198,33,157,119,55,142,167,202,123,153,260,264,45,113,19,105,2,281,187,4,253,265,266,152,6,172,280,271,204,180,30,57,90,226,217,263,60,282,138,91,107,47,241,255,224,287,178,52]","arrowright","0","7","65","300","[""0007_N0300_K0065_NOCLIQUE"",""0052_N0300_K0065_CLIQUE""]","",""
"","","","","","audio-keyboard-response","134","1052752","0.0-55.2-0.2-1.2","","null","audio_feedback/shuffles/shuffle01.mp3","null","","","0","7","65","300","[""0007_N0300_K0065_NOCLIQUE"",""0052_N0300_K0065_CLIQUE""]","",""
"","","","","","canvas-keyboard-response","135","1055396","0.0-55.3-0.3-0.3","","2489",""," ","[11,182,223,144,28,267,243,147,10,193,296,164,8,210,130,252,31,255,47,151,187,66,57,95,54,3,79,247,157,85,165,209,62,96,298,13,49,26,40,150,108,77,265,216,83,278,226,240,105,32,126,60,131,29,274,102,288,214,82,4,51,258,236,249,148,141,297,270,80,125,118,170,176,155,259,203,161,172,266,88,14,17,188,123,246,224,68,184,281,97,117,262,129,218,146,84,103,213,136,115,163,250,179,24,45,283,58,239,277,201,227,253,242,120,137,116,93,232,140,285,208,264,109,72,204,71,34,15,145,268,162,153,167,110,73,100,234,25,282,160,217,50,211,21,299,22,43,273,289,2,16,168,56,183,152,35,107,27,55,175,199,219,20,113,166,134,1,39,295,128,180,154,254,63,121,87,292,275,245,92,280,42,46,61,90,127,271,44,98,30,260,293,91,48,212,215,257,75,12,174,221,53,143,272,36,169,173,65,241,195,114,178,74,237,171,149,89,86,238,19,230,287,197,228,70,206,99,112,104,37,139,124,261,248,119,64,59,181,5,244,205,185,220,291,231,194,256,69,6,189,186,67,132,81,290,23,133,177,111,233,138,41,106,269,263,286,156,225,229,294,279,222,196,7,52,207,235,251,122,158,202,9,78,76,38,200,198,142,101,190,284,94,135,18,0,159,276,33,192,191]","arrowright","0","7","65","300","[""0007_N0300_K0065_NOCLIQUE"",""0052_N0300_K0065_CLIQUE""]","",""
"","","","","","audio-keyboard-response","136","1056165","0.0-55.3-0.3-1.3","","null","audio_feedback/shuffles/shuffle01.mp3","null","","","0","7","65","300","[""0007_N0300_K0065_NOCLIQUE"",""0052_N0300_K0065_CLIQUE""]","",""
"","","","","","canvas-keyboard-response","137","1059825","0.0-55.4-0.4-0.4","","3525",""," ","[259,54,83,229,98,230,114,260,93,146,96,156,147,30,193,297,128,84,152,3,19,88,133,238,82,200,7,104,89,65,203,124,80,160,199,273,119,196,141,291,183,77,66,110,100,108,287,240,295,58,286,70,86,285,256,157,149,53,135,169,126,27,250,122,2,284,131,266,177,85,225,112,40,234,246,235,186,232,59,237,179,109,142,221,115,272,282,228,208,263,245,9,32,37,288,178,63,31,231,33,116,248,257,136,223,49,36,4,252,11,29,299,226,8,293,117,12,137,290,289,57,101,187,220,102,67,35,158,69,105,166,218,209,154,50,165,111,22,23,139,118,182,261,161,34,239,68,269,255,91,211,276,44,18,168,222,214,79,170,64,188,265,123,298,120,129,138,164,48,47,264,25,26,24,181,74,192,195,13,148,253,296,127,294,5,185,243,90,78,71,155,60,75,55,244,280,92,275,28,241,172,1,212,267,140,72,132,206,97,143,73,176,213,56,190,242,271,46,45,159,173,21,41,144,180,150,62,210,191,125,233,51,20,274,215,10,189,251,145,6,130,16,184,61,262,194,153,258,204,283,52,207,197,249,17,268,205,76,106,99,121,163,198,292,94,87,277,103,14,167,278,216,227,43,175,254,281,202,247,174,236,279,201,95,134,38,217,151,162,107,15,113,42,224,81,270,0,171,39,219]","arrowright","0","7","65","300","[""0007_N0300_K0065_NOCLIQUE"",""0052_N0300_K0065_CLIQUE""]","",""
"","","","","","audio-keyboard-response","138","1060603","0.0-55.4-0.4-1.4","","null","audio_feedback/shuffles/shuffle01.mp3","null","","","0","7","65","300","[""0007_N0300_K0065_NOCLIQUE"",""0052_N0300_K0065_CLIQUE""]","",""
"","","","","","canvas-keyboard-response","139","1062063","0.0-55.5-0.5-0.5","","1315",""," ","[137,213,272,151,39,159,93,295,231,131,35,256,267,148,194,20,225,245,202,283,262,128,259,45,43,52,199,270,233,81,163,204,217,265,115,278,2,168,221,78,190,99,237,70,113,64,146,107,210,203,0,254,140,26,5,82,143,53,297,47,141,49,193,84,200,18,7,102,162,88,112,62,253,127,257,181,34,235,72,147,243,207,155,275,228,212,183,192,195,280,13,260,160,247,176,71,63,17,248,4,211,101,149,66,95,215,189,241,156,116,122,105,236,268,158,142,271,83,264,90,30,28,263,274,240,80,79,91,124,198,6,191,282,136,27,118,111,60,290,144,281,177,48,23,232,96,179,135,246,25,276,208,120,294,161,126,50,56,220,214,173,293,117,57,132,227,171,58,216,32,24,67,178,219,14,129,188,287,74,201,37,59,54,273,21,98,166,255,41,186,229,130,10,291,29,103,174,89,9,222,22,279,61,285,292,185,68,92,46,42,44,119,38,223,288,125,239,40,152,218,16,258,180,139,244,206,167,87,184,154,77,73,97,150,33,197,19,153,31,123,169,299,242,36,100,75,104,170,226,249,65,182,69,138,209,86,296,85,114,205,286,289,121,94,108,238,284,12,252,261,109,187,15,277,269,133,110,251,234,55,250,11,175,298,230,3,224,76,1,106,165,51,172,266,196,134,145,164,8,157]","arrowright","0","7","65","300","[""0007_N0300_K0065_NOCLIQUE"",""0052_N0300_K0065_CLIQUE""]","",""
"","","","","","audio-keyboard-response","140","1062840","0.0-55.5-0.5-1.5","","null","audio_feedback/shuffles/shuffle01.mp3","null","","","0","7","65","300","[""0007_N0300_K0065_NOCLIQUE"",""0052_N0300_K0065_CLIQUE""]","",""
"","","","","","canvas-keyboard-response","141","1064466","0.0-55.6-0.6-0.6","","1477","","arrowright","[86,282,186,135,169,36,25,185,179,272,191,275,67,122,34,74,75,295,50,163,24,103,276,96,14,150,299,129,17,27,93,158,9,228,109,22,42,176,231,116,133,237,4,161,63,20,208,249,167,270,78,202,177,112,121,246,155,280,68,157,35,127,183,117,283,101,198,97,64,107,197,212,258,119,242,216,221,13,72,273,3,291,160,142,297,193,213,184,265,77,182,226,11,178,174,296,236,267,94,172,269,32,81,217,61,30,263,19,207,159,229,227,134,39,55,252,10,132,156,66,47,220,92,287,125,147,102,201,73,53,266,76,168,243,43,33,31,71,284,136,126,190,175,85,196,146,200,15,58,12,138,251,148,84,259,41,238,180,145,292,232,62,289,90,83,260,70,128,247,95,189,120,139,248,165,211,99,144,0,290,164,16,215,192,173,210,49,241,244,162,80,240,6,250,149,137,52,21,194,105,195,65,123,262,46,23,118,281,57,293,140,113,256,277,187,59,219,115,40,151,44,255,100,114,294,235,89,288,28,26,268,110,98,218,79,8,223,166,82,29,278,261,48,5,230,209,111,222,206,205,60,203,271,245,181,279,38,130,298,1,254,106,170,239,286,225,152,143,18,104,257,253,7,171,45,108,234,56,264,91,141,274,154,199,153,285,51,224,124,188,2,233,214,204,69,131,88,37,54,87]","arrowright","0","7","65","300","[""0007_N0300_K0065_NOCLIQUE"",""0052_N0300_K0065_CLIQUE""]","","true"
"","","","","","audio-keyboard-response","142","1065098","0.0-55.6-0.6-1.6","","null","audio_feedback/right/coin01.mp3","null","","","0","7","65","300","[""0007_N0300_K0065_NOCLIQUE"",""0052_N0300_K0065_CLIQUE""]","",""
"","","","","","canvas-keyboard-response","143","1069568","0.0-56.0-0.0-0.0","","4320",""," ","[212,129,16,240,209,65,36,156,169,290,10,148,194,276,75,85,8,52,258,286,200,110,48,279,128,198,89,223,217,265,106,164,104,70,155,2,238,203,113,254,5,145,213,12,149,176,86,42,274,32,189,79,73,4,80,133,108,214,288,23,267,154,19,249,24,121,192,166,17,297,50,234,34,159,270,54,67,115,127,170,269,96,66,231,287,253,208,77,233,31,193,28,26,118,15,191,122,291,30,157,140,211,60,49,124,101,250,161,257,271,263,90,6,245,103,61,87,100,293,261,185,43,109,7,242,218,235,1,41,210,150,33,134,46,190,105,225,58,283,114,95,131,174,158,202,13,78,40,207,188,27,71,222,69,20,18,256,295,266,72,151,206,260,298,107,160,187,183,97,136,74,246,126,167,147,99,29,22,94,197,98,252,299,275,91,172,162,14,224,111,142,123,219,228,39,76,141,62,0,125,226,168,138,230,68,137,201,21,181,173,251,215,82,273,186,244,236,175,216,93,83,241,262,237,277,88,64,119,243,35,56,51,63,144,152,130,179,229,289,294,284,184,248,281,282,102,196,112,247,165,278,146,3,117,204,255,268,259,280,143,199,232,205,132,59,135,25,92,45,177,47,195,81,163,178,180,264,116,239,37,227,292,11,153,182,139,38,296,220,120,57,84,272,221,53,44,285,55,171,9]","arrowright","0","8","60","300","[""0042_N0300_K0060_NOCLIQUE"",""0077_N0300_K0060_CLIQUE""]","",""
"","","","","","audio-keyboard-response","144","1070343","0.0-56.0-0.0-1.0","","null","audio_feedback/shuffles/shuffle01.mp3","null","","","0","8","60","300","[""0042_N0300_K0060_NOCLIQUE"",""0077_N0300_K0060_CLIQUE""]","",""
"","","","","","canvas-keyboard-response","145","1072467","0.0-56.1-0.1-0.1","","1988",""," ","[165,130,23,30,176,214,217,288,35,18,137,290,26,186,124,233,227,54,27,289,1,80,280,98,166,15,59,37,242,197,126,245,274,44,146,284,89,175,184,40,28,247,31,174,236,53,270,182,151,256,3,69,257,56,196,191,141,172,100,185,272,170,48,160,101,253,38,264,298,5,33,155,32,252,29,152,111,22,180,228,14,154,74,178,24,222,244,238,254,131,241,285,260,230,13,194,84,76,199,157,268,189,240,299,153,21,138,122,139,113,95,72,183,86,248,114,103,94,60,46,123,212,58,258,201,108,120,16,121,281,293,273,203,207,79,50,85,52,127,223,147,235,57,192,81,271,110,134,255,156,112,119,229,47,195,181,234,221,142,102,287,9,282,20,8,168,150,55,190,4,262,19,61,82,93,251,225,259,91,205,144,71,286,133,117,211,202,109,65,149,187,0,173,239,42,163,277,2,292,77,209,25,41,226,276,67,232,161,179,64,206,296,218,6,148,87,118,92,62,75,231,132,78,88,167,237,63,96,36,73,34,49,171,106,129,169,10,104,198,128,249,283,224,159,136,204,99,17,116,115,208,213,216,107,278,140,297,162,164,97,135,215,188,265,158,263,70,193,295,68,177,66,125,105,266,39,43,210,45,7,279,11,291,219,275,246,261,90,220,51,83,243,200,267,294,250,269,143,12,145]","arrowright","0","8","60","300","[""0042_N0300_K0060_NOCLIQUE"",""0077_N0300_K0060_CLIQUE""]","",""
"","","","","","audio-keyboard-response","146","1073241","0.0-56.1-0.1-1.1","","null","audio_feedback/shuffles/shuffle01.mp3","null","","","0","8","60","300","[""0042_N0300_K0060_NOCLIQUE"",""0077_N0300_K0060_CLIQUE""]","",""
"","","","","","canvas-keyboard-response","147","1074219","0.0-56.2-0.2-0.2","","836",""," ","[72,138,95,148,36,96,253,283,237,92,113,29,8,200,163,165,91,203,265,256,273,151,199,24,220,266,157,59,63,181,70,32,251,236,244,58,235,291,212,219,226,98,158,182,277,122,270,192,22,45,61,40,133,47,264,118,112,262,140,124,31,268,25,154,33,247,83,217,284,185,250,105,275,123,127,202,66,44,238,50,249,7,43,274,281,259,280,11,242,20,152,210,128,142,74,156,287,41,3,65,245,68,241,197,294,196,297,144,71,100,42,85,222,214,170,103,166,257,194,229,298,179,126,134,172,282,137,233,248,38,205,14,195,87,132,86,243,155,228,279,183,173,6,162,292,117,51,286,288,224,104,67,146,207,191,187,99,231,176,55,252,60,121,184,88,177,141,234,260,130,120,263,258,269,106,9,278,209,153,0,5,94,208,261,293,19,97,12,90,167,139,52,108,69,246,18,79,35,48,190,57,240,218,145,186,188,193,239,30,143,93,37,285,129,84,230,136,272,54,49,161,147,276,28,10,255,89,232,211,174,81,21,206,168,26,296,17,13,23,227,109,225,27,73,159,102,62,221,215,64,114,150,175,78,160,271,116,201,77,180,131,135,198,16,75,2,290,46,299,111,1,149,295,169,4,267,76,178,53,171,82,189,164,204,80,56,213,34,107,110,39,289,216,101,223,125,254,15,119,115]","arrowright","0","8","60","300","[""0042_N0300_K0060_NOCLIQUE"",""0077_N0300_K0060_CLIQUE""]","",""
"","","","","","audio-keyboard-response","148","1074997","0.0-56.2-0.2-1.2","","null","audio_feedback/shuffles/shuffle01.mp3","null","","","0","8","60","300","[""0042_N0300_K0060_NOCLIQUE"",""0077_N0300_K0060_CLIQUE""]","",""
"","","","","","canvas-keyboard-response","149","1075890","0.0-56.3-0.3-0.3","","677",""," ","[64,140,112,281,265,231,142,169,270,179,66,93,151,116,73,105,27,163,252,129,101,177,154,278,234,45,182,267,65,193,71,61,200,1,268,298,228,107,145,258,13,220,191,198,125,170,128,194,110,52,9,190,259,40,46,181,230,26,289,294,271,144,119,50,208,97,162,6,188,178,275,269,98,88,229,262,282,20,296,243,148,291,288,286,236,5,31,85,99,11,58,136,121,297,227,44,292,172,4,29,15,63,185,95,57,117,92,130,69,205,247,160,70,280,180,152,24,156,135,150,37,30,23,48,206,237,295,155,251,22,106,255,158,235,18,19,273,34,221,264,76,253,214,134,104,244,240,47,174,74,202,210,261,183,276,216,209,215,225,12,223,59,54,245,260,242,164,222,203,189,171,16,86,257,83,35,199,87,43,80,81,25,41,78,137,132,195,62,7,122,102,233,149,167,176,38,3,246,143,196,241,75,139,67,157,299,51,36,120,103,10,192,8,161,293,187,226,153,123,96,263,266,211,111,114,279,284,68,290,287,90,256,201,56,100,219,60,224,207,131,109,232,77,239,254,173,32,165,272,212,113,133,186,141,53,175,21,197,250,213,79,0,277,84,82,285,249,33,238,94,218,127,138,159,91,166,168,274,217,184,126,39,2,28,49,283,124,17,146,42,118,115,89,55,108,147,14,72,248,204]","arrowright","0","8","60","300","[""0042_N0300_K0060_NOCLIQUE"",""0077_N0300_K0060_CLIQUE""]","",""
"","","","","","audio-keyboard-response","150","1076673","0.0-56.3-0.3-1.3","","null","audio_feedback/shuffles/shuffle01.mp3","null","","","0","8","60","300","[""0042_N0300_K0060_NOCLIQUE"",""0077_N0300_K0060_CLIQUE""]","",""
"","","","","","canvas-keyboard-response","151","1078604","0.0-56.4-0.4-0.4","","1782",""," ","[160,24,84,79,127,290,26,208,182,168,88,137,69,201,158,53,55,289,266,16,188,246,32,195,77,59,113,51,166,199,31,253,192,4,175,185,218,177,196,9,136,279,29,144,296,277,234,86,111,2,171,41,226,48,114,139,89,152,193,92,153,268,205,70,187,8,21,98,295,103,30,27,161,64,215,147,99,231,143,121,255,102,28,151,194,73,180,91,44,184,216,37,19,25,207,230,129,49,36,222,60,124,225,42,118,189,264,57,22,221,101,76,294,128,173,97,108,275,65,72,242,237,12,209,67,3,293,68,236,35,138,176,224,284,125,110,271,112,17,286,54,249,63,165,239,178,276,83,270,259,211,213,281,56,116,1,155,50,133,18,233,220,267,71,202,265,244,0,157,183,299,292,227,260,119,40,170,191,256,200,272,38,240,20,148,214,6,251,298,74,87,179,80,93,61,197,140,142,141,206,10,159,43,280,23,254,210,109,288,117,297,78,167,250,235,217,95,154,204,85,123,45,145,126,228,258,285,198,11,257,282,134,66,190,243,39,107,232,223,203,100,34,58,219,47,146,261,122,283,278,273,120,252,82,131,212,287,13,33,104,7,263,238,90,162,164,174,274,52,169,172,156,149,269,163,150,46,248,14,5,132,81,105,115,262,75,62,94,135,181,186,245,229,247,291,15,96,241,130,106]","arrowright","0","8","60","300","[""0042_N0300_K0060_NOCLIQUE"",""0077_N0300_K0060_CLIQUE""]","",""
"","","","","","audio-keyboard-response","152","1079389","0.0-56.4-0.4-1.4","","null","audio_feedback/shuffles/shuffle01.mp3","null","","","0","8","60","300","[""0042_N0300_K0060_NOCLIQUE"",""0077_N0300_K0060_CLIQUE""]","",""
"","","","","","canvas-keyboard-response","153","1080660","0.0-56.5-0.5-0.5","","1126",""," ","[180,285,163,149,260,262,172,171,244,258,211,79,280,158,26,66,43,203,286,254,229,107,6,136,37,41,120,28,10,127,42,126,64,267,50,169,44,62,179,207,289,142,13,39,157,9,189,201,155,263,31,0,76,167,129,187,25,11,268,235,19,221,58,206,227,168,15,186,53,252,29,273,4,192,200,8,146,224,270,198,63,99,91,140,237,119,27,98,247,222,137,131,134,216,111,75,177,152,105,272,22,115,212,112,299,113,109,156,271,196,162,122,160,86,281,276,191,14,261,204,100,292,118,121,215,287,85,223,214,132,226,108,83,70,103,241,67,209,181,230,278,239,36,69,125,24,197,101,104,188,130,202,184,5,228,143,232,176,175,30,234,266,52,145,269,3,255,56,298,225,153,246,277,116,218,242,92,61,178,95,54,290,275,283,84,71,210,297,183,68,217,12,274,147,199,57,249,33,21,87,18,110,93,114,96,164,291,219,170,117,72,55,240,65,40,135,16,32,231,284,77,106,282,296,89,256,250,81,174,190,236,259,35,253,265,151,78,74,182,59,60,166,159,51,205,7,233,144,139,251,128,46,1,88,148,80,73,248,245,150,20,295,38,165,257,293,97,154,124,173,288,2,94,195,138,294,90,34,123,161,48,185,264,82,220,238,45,17,23,102,279,193,208,141,47,49,213,133,194,243]","arrowright","0","8","60","300","[""0042_N0300_K0060_NOCLIQUE"",""0077_N0300_K0060_CLIQUE""]","",""
"","","","","","audio-keyboard-response","154","1081434","0.0-56.5-0.5-1.5","","null","audio_feedback/shuffles/shuffle01.mp3","null","","","0","8","60","300","[""0042_N0300_K0060_NOCLIQUE"",""0077_N0300_K0060_CLIQUE""]","",""
"","","","","","canvas-keyboard-response","155","1082958","0.0-56.6-0.6-0.6","","1380","","arrowright","[204,128,89,105,43,80,172,55,133,51,291,62,140,110,17,111,265,286,186,24,3,91,98,236,96,214,21,217,274,195,93,79,46,48,78,66,2,239,18,60,289,12,38,134,59,20,72,102,58,47,262,168,205,164,73,253,97,40,161,22,41,234,153,280,270,243,207,281,61,162,159,84,6,202,19,25,275,127,1,42,211,132,193,94,15,292,116,5,101,260,76,179,224,67,257,167,218,156,115,216,163,71,131,50,271,194,285,70,83,151,39,290,166,189,169,44,56,198,182,269,238,11,293,273,147,36,63,27,250,256,212,141,129,145,90,279,74,37,28,106,233,120,297,33,261,258,135,264,136,75,295,272,165,213,244,222,112,144,150,184,10,0,175,276,23,249,69,88,284,95,170,221,263,176,16,192,68,235,155,267,57,100,146,113,181,99,188,278,187,183,248,30,206,157,201,247,196,52,200,114,158,240,255,246,29,148,137,85,104,54,251,143,209,7,245,241,154,109,232,126,180,215,178,118,225,103,199,64,139,122,254,108,65,92,117,283,277,124,230,130,287,160,174,8,259,4,149,185,210,220,82,208,138,119,87,294,203,35,123,228,229,121,242,86,226,53,299,9,173,45,197,77,268,231,171,191,34,227,49,13,282,81,252,219,237,288,152,14,107,31,32,223,298,190,177,26,296,142,266,125]","arrowright","0","8","60","300","[""0042_N0300_K0060_NOCLIQUE"",""0077_N0300_K0060_CLIQUE""]","","true"
"","","","","","audio-keyboard-response","156","1083584","0.0-56.6-0.6-1.6","","null","audio_feedback/right/coin01.mp3","null","","","0","8","60","300","[""0042_N0300_K0060_NOCLIQUE"",""0077_N0300_K0060_CLIQUE""]","",""
"","","","","","canvas-keyboard-response","157","1087141","0.0-57.0-0.0-0.0","","3414",""," ","[83,68,183,36,0,62,17,227,104,252,231,208,170,76,34,166,57,205,49,296,215,224,271,197,212,98,46,120,159,254,94,113,263,243,226,33,133,262,187,121,61,43,220,195,210,24,35,257,297,295,141,214,196,260,18,204,198,102,138,27,157,238,148,171,163,63,74,202,179,112,52,169,233,173,235,222,264,267,51,54,281,236,69,172,11,184,298,228,65,55,99,165,291,239,130,299,30,105,21,225,73,66,206,246,152,149,279,107,7,145,162,190,240,286,87,174,91,211,244,3,194,67,37,274,156,284,147,126,135,92,19,189,101,199,53,185,192,125,265,178,146,89,60,216,81,266,158,45,289,110,84,283,288,270,2,122,97,72,48,193,287,140,280,251,143,78,77,29,241,114,44,201,290,40,100,95,117,207,285,26,176,50,14,85,70,71,10,164,136,142,96,219,31,56,59,9,175,39,20,203,137,25,8,90,230,16,261,4,32,229,1,168,153,124,181,150,111,106,151,93,186,237,177,221,129,200,47,209,23,249,80,15,242,127,276,5,86,132,292,250,282,277,119,160,161,64,191,128,28,154,123,82,103,259,188,116,294,247,255,79,12,217,155,38,118,42,278,293,248,167,218,144,75,41,22,13,213,134,245,109,58,6,88,275,182,272,223,268,256,131,273,253,258,232,180,139,108,115,234,269]","arrowright","0","9","60","300","[""0089_N0300_K0060_NOCLIQUE"",""0052_N0300_K0060_CLIQUE""]","",""
"","","","","","audio-keyboard-response","158","1087913","0.0-57.0-0.0-1.0","","null","audio_feedback/shuffles/shuffle01.mp3","null","","","0","9","60","300","[""0089_N0300_K0060_NOCLIQUE"",""0052_N0300_K0060_CLIQUE""]","",""
"","","","","","canvas-keyboard-response","159","1089041","0.0-57.1-0.1-0.1","","984",""," ","[243,212,119,128,190,222,129,57,276,261,47,220,297,43,155,131,284,251,241,21,95,227,203,148,144,147,254,237,213,49,79,290,281,209,44,278,232,226,265,188,165,98,180,176,74,37,231,18,210,81,107,80,122,271,150,233,4,181,22,31,96,269,266,77,287,112,178,19,42,274,162,245,189,58,242,69,88,149,114,221,183,262,215,99,12,175,83,273,117,46,65,179,14,186,76,206,138,5,198,236,200,40,172,253,185,59,282,191,7,235,23,223,124,277,3,9,70,259,137,159,246,51,158,100,125,295,16,256,64,35,184,54,140,207,0,249,132,71,63,104,27,66,10,26,116,118,39,201,103,105,126,299,142,202,89,62,196,240,61,168,55,267,93,204,24,86,258,25,34,216,238,87,288,94,52,1,239,36,123,115,84,56,293,193,173,72,41,68,219,292,154,32,229,177,156,275,244,153,152,73,141,135,151,260,296,133,60,283,145,11,136,264,48,134,97,121,160,163,120,167,211,30,161,285,230,170,85,166,224,6,234,139,257,280,298,45,272,225,130,208,8,279,197,2,286,289,146,164,90,92,106,228,50,143,91,157,217,109,270,33,101,174,13,108,255,194,17,111,214,113,199,248,169,205,82,192,102,247,187,218,268,182,250,127,294,263,110,75,67,28,291,195,171,78,15,20,53,252,29,38]","arrowright","0","9","60","300","[""0089_N0300_K0060_NOCLIQUE"",""0052_N0300_K0060_CLIQUE""]","",""
"","","","","","audio-keyboard-response","160","1089818","0.0-57.1-0.1-1.1","","null","audio_feedback/shuffles/shuffle01.mp3","null","","","0","9","60","300","[""0089_N0300_K0060_NOCLIQUE"",""0052_N0300_K0060_CLIQUE""]","",""
"","","","","","canvas-keyboard-response","161","1091542","0.0-57.2-0.2-0.2","","1561",""," ","[186,133,104,147,55,117,247,107,43,32,121,183,112,56,165,123,18,266,128,263,131,209,258,160,298,116,109,196,126,79,102,140,53,66,110,11,72,262,27,198,16,145,114,177,195,84,111,85,207,103,86,3,158,179,5,125,149,83,25,257,214,59,269,52,94,248,267,61,30,241,75,289,229,63,24,37,210,238,285,76,152,17,201,246,243,91,46,250,80,294,70,144,26,242,81,221,31,161,178,74,253,68,202,232,45,105,97,245,287,228,297,188,268,288,153,169,134,167,33,54,291,299,38,204,21,227,193,99,135,151,270,155,36,118,276,78,6,51,60,234,256,8,159,93,176,42,9,50,90,240,29,154,203,163,184,182,261,57,277,255,122,283,174,115,39,239,254,20,180,225,95,284,12,137,171,233,67,98,278,13,23,168,185,191,222,231,48,15,92,65,236,215,44,47,101,251,216,190,10,272,119,34,164,150,130,142,218,143,138,22,62,211,58,132,189,286,264,249,274,273,296,244,108,148,213,139,187,265,166,292,106,224,82,136,87,73,290,220,0,172,71,293,235,181,230,7,113,69,120,194,281,219,208,271,41,199,49,275,64,88,96,260,173,89,77,197,223,141,237,157,2,175,282,217,162,100,226,146,259,200,212,192,4,28,295,129,206,127,19,280,279,205,1,40,170,35,124,252,14,156]","arrowright","0","9","60","300","[""0089_N0300_K0060_NOCLIQUE"",""0052_N0300_K0060_CLIQUE""]","",""
"","","","","","audio-keyboard-response","162","1092320","0.0-57.2-0.2-1.2","","null","audio_feedback/shuffles/shuffle01.mp3","null","","","0","9","60","300","[""0089_N0300_K0060_NOCLIQUE"",""0052_N0300_K0060_CLIQUE""]","",""
