"success,""timeout"",""failed_images"",""failed_audio"",""failed_video"",""trial_type"",""trial_index"",""time_elapsed"",""internal_node_id"",""view_history"",""rt"",""stimulus"",""response"",""nodes_order"",""correct_response"",""block_index"",""presentation_index"",""clique_size"",""graph_size"",""graphs_names"",""graphs_couple"",""accuracy"""
"true,""false"",""[]"",""[]"",""[]"",""preload"",""0"",""376"",""0.0-0.0"","""","""","""","""","""","""","""","""","""","""","""","""","""""
","""","""","""","""",""pavlovia"",""1"",""993"",""0.0-1.0"","""","""","""","""","""","""","""","""","""","""","""","""","""""
","""","""","""","""",""instructions"",""2"",""138917"",""0.0-2.0"",""[{""""page_index"""":0,""""viewing_time"""":5256},{""""page_index"""":1,""""viewing_time"""":132655}]"",""137911"","""","""","""","""","""","""","""","""","""","""","""""
"true,""false"",""[]"",""[]"",""[]"",""preload"",""3"",""140127"",""0.0-3.0"","""","""","""","""","""","""","""","""","""","""","""","""","""""
","""","""","""","""",""instructions"",""4"",""456199"",""0.0-4.0"",""[{""""page_index"""":0,""""viewing_time"""":5180},{""""page_index"""":1,""""viewing_time"""":5636},{""""page_index"""":2,""""viewing_time"""":3480},{""""page_index"""":3,""""viewing_time"""":8961},{""""page_index"""":4,""""viewing_time"""":2364},{""""page_index"""":3,""""viewing_time"""":8231},{""""page_index"""":4,""""viewing_time"""":917},{""""page_index"""":3,""""viewing_time"""":464},{""""page_index"""":4,""""viewing_time"""":6067},{""""page_index"""":3,""""viewing_time"""":373},{""""page_index"""":4,""""viewing_time"""":942},{""""page_index"""":3,""""viewing_time"""":326},{""""page_index"""":4,""""viewing_time"""":1050},{""""page_index"""":5,""""viewing_time"""":6892},{""""page_index"""":6,""""viewing_time"""":2558},{""""page_index"""":7,""""viewing_time"""":2765},{""""page_index"""":8,""""viewing_time"""":3188},{""""page_index"""":9,""""viewing_time"""":2203},{""""page_index"""":10,""""viewing_time"""":6411},{""""page_index"""":11,""""viewing_time"""":3513},{""""page_index"""":12,""""viewing_time"""":2208},{""""page_index"""":13,""""viewing_time"""":5714},{""""page_index"""":14,""""viewing_time"""":2002},{""""page_index"""":15,""""viewing_time"""":2624},{""""page_index"""":16,""""viewing_time"""":2257},{""""page_index"""":17,""""viewing_time"""":659},{""""page_index"""":18,""""viewing_time"""":2226},{""""page_index"""":19,""""viewing_time"""":2341},{""""page_index"""":20,""""viewing_time"""":2225},{""""page_index"""":21,""""viewing_time"""":1764},{""""page_index"""":22,""""viewing_time"""":1003},{""""page_index"""":23,""""viewing_time"""":1218},{""""page_index"""":24,""""viewing_time"""":858},{""""page_index"""":25,""""viewing_time"""":507},{""""page_index"""":26,""""viewing_time"""":876},{""""page_index"""":27,""""viewing_time"""":5172},{""""page_index"""":28,""""viewing_time"""":8303},{""""page_index"""":29,""""viewing_time"""":3592},{""""page_index"""":30,""""viewing_time"""":2725},{""""page_index"""":31,""""viewing_time"""":7081},{""""page_index"""":32,""""viewing_time"""":36174},{""""page_index"""":33,""""viewing_time"""":2194},{""""page_index"""":34,""""viewing_time"""":435},{""""page_index"""":35,""""viewing_time"""":1979},{""""page_index"""":34,""""viewing_time"""":172},{""""page_index"""":33,""""viewing_time"""":167},{""""page_index"""":32,""""viewing_time"""":153},{""""page_index"""":31,""""viewing_time"""":490},{""""page_index"""":32,""""viewing_time"""":581},{""""page_index"""":31,""""viewing_time"""":658},{""""page_index"""":30,""""viewing_time"""":527},{""""page_index"""":29,""""viewing_time"""":330},{""""page_index"""":30,""""viewing_time"""":176},{""""page_index"""":31,""""viewing_time"""":152},{""""page_index"""":32,""""viewing_time"""":7596},{""""page_index"""":31,""""viewing_time"""":186},{""""page_index"""":30,""""viewing_time"""":167},{""""page_index"""":29,""""viewing_time"""":151},{""""page_index"""":28,""""viewing_time"""":150},{""""page_index"""":27,""""viewing_time"""":152},{""""page_index"""":26,""""viewing_time"""":635},{""""page_index"""":27,""""viewing_time"""":1879},{""""page_index"""":28,""""viewing_time"""":885},{""""page_index"""":27,""""viewing_time"""":555},{""""page_index"""":28,""""viewing_time"""":534},{""""page_index"""":27,""""viewing_time"""":658},{""""page_index"""":28,""""viewing_time"""":729},{""""page_index"""":27,""""viewing_time"""":218},{""""page_index"""":26,""""viewing_time"""":188},{""""page_index"""":25,""""viewing_time"""":197},{""""page_index"""":24,""""viewing_time"""":637},{""""page_index"""":23,""""viewing_time"""":619},{""""page_index"""":24,""""viewing_time"""":785},{""""page_index"""":25,""""viewing_time"""":332},{""""page_index"""":26,""""viewing_time"""":161},{""""page_index"""":27,""""viewing_time"""":152},{""""page_index"""":28,""""viewing_time"""":183},{""""page_index"""":29,""""viewing_time"""":134},{""""page_index"""":30,""""viewing_time"""":165},{""""page_index"""":31,""""viewing_time"""":152},{""""page_index"""":32,""""viewing_time"""":153},{""""page_index"""":33,""""viewing_time"""":131},{""""page_index"""":34,""""viewing_time"""":180},{""""page_index"""":35,""""viewing_time"""":187},{""""page_index"""":36,""""viewing_time"""":2755},{""""page_index"""":35,""""viewing_time"""":629},{""""page_index"""":36,""""viewing_time"""":1161},{""""page_index"""":37,""""viewing_time"""":5630},{""""page_index"""":38,""""viewing_time"""":3201},{""""page_index"""":39,""""viewing_time"""":3262},{""""page_index"""":40,""""viewing_time"""":2016},{""""page_index"""":41,""""viewing_time"""":4530},{""""page_index"""":42,""""viewing_time"""":5371},{""""page_index"""":43,""""viewing_time"""":9056},{""""page_index"""":44,""""viewing_time"""":8875},{""""page_index"""":45,""""viewing_time"""":24413},{""""page_index"""":44,""""viewing_time"""":1879},{""""page_index"""":45,""""viewing_time"""":3166},{""""page_index"""":46,""""viewing_time"""":3757},{""""page_index"""":45,""""viewing_time"""":269},{""""page_index"""":44,""""viewing_time"""":598},{""""page_index"""":43,""""viewing_time"""":10317},{""""page_index"""":44,""""viewing_time"""":1299},{""""page_index"""":43,""""viewing_time"""":942},{""""page_index"""":44,""""viewing_time"""":760},{""""page_index"""":45,""""viewing_time"""":4124},{""""page_index"""":46,""""viewing_time"""":4336},{""""page_index"""":47,""""viewing_time"""":2771},{""""page_index"""":48,""""viewing_time"""":2438},{""""page_index"""":47,""""viewing_time"""":314},{""""page_index"""":46,""""viewing_time"""":378},{""""page_index"""":47,""""viewing_time"""":490},{""""page_index"""":46,""""viewing_time"""":1078},{""""page_index"""":47,""""viewing_time"""":519},{""""page_index"""":46,""""viewing_time"""":505},{""""page_index"""":47,""""viewing_time"""":468},{""""page_index"""":48,""""viewing_time"""":828},{""""page_index"""":49,""""viewing_time"""":1018},{""""page_index"""":50,""""viewing_time"""":12482},{""""page_index"""":51,""""viewing_time"""":520}]"",""316070"","""","""","""","""","""","""","""","""","""","""","""""
","""","""","""","""",""instructions"",""5"",""466296"",""0.0-5.0"",""[{""""page_index"""":0,""""viewing_time"""":10097}]"",""10097"","""","""","""","""","""","""","""","""","""","""","""""
"true,""false"",""[]"",""[]"",""[]"",""preload"",""6"",""467736"",""0.0-6.0"","""","""","""","""","""","""","""","""","""","""","""","""","""""
","""","""","""","""",""image-keyboard-response"",""7"",""488425"",""0.0-7.0"","""",""20665"",""tutorial/task_familiarization_images/part 1/01_N160_K90_cliqueRight_question1.PNG"","" "","""","""","""","""","""","""","""","""","""""
","""","""","""","""",""image-keyboard-response"",""8"",""491928"",""0.0-8.0"","""",""3503"",""tutorial/task_familiarization_images/part 1/02_N160_K90_cliqueRight_question2.PNG"","" "","""","""","""","""","""","""","""","""","""""
","""","""","""","""",""image-keyboard-response"",""9"",""500842"",""0.0-9.0"","""",""8914"",""tutorial/task_familiarization_images/part 1/03_N160_K90_cliqueRight_question3.PNG"",""arrowright"","""","""","""","""","""","""","""","""","""""
","""","""","""","""",""image-keyboard-response"",""10"",""503359"",""0.0-10.0"","""",""2502"",""tutorial/task_familiarization_images/part 1/04_N160_K90_cliqueRight_solution.PNG"","" "","""","""","""","""","""","""","""","""","""""
","""","""","""","""",""image-keyboard-response"",""11"",""508465"",""0.0-11.0"","""",""5106"",""tutorial/task_familiarization_images/part 1/05_N160_K65_cliqueRight_question1.PNG"","" "","""","""","""","""","""","""","""","""","""""
","""","""","""","""",""image-keyboard-response"",""12"",""511179"",""0.0-12.0"","""",""2714"",""tutorial/task_familiarization_images/part 1/06_N160_K65_cliqueRight_question2.PNG"","" "","""","""","""","""","""","""","""","""","""""
","""","""","""","""",""image-keyboard-response"",""13"",""514176"",""0.0-13.0"","""",""2997"",""tutorial/task_familiarization_images/part 1/07_N160_K65_cliqueRight_question3.PNG"",""arrowright"","""","""","""","""","""","""","""","""","""""
","""","""","""","""",""image-keyboard-response"",""14"",""516380"",""0.0-14.0"","""",""2204"",""tutorial/task_familiarization_images/part 1/08_N160_K65_cliqueRight_solution.PNG"","" "","""","""","""","""","""","""","""","""","""""
","""","""","""","""",""image-keyboard-response"",""15"",""519299"",""0.0-15.0"","""",""2919"",""tutorial/task_familiarization_images/part 1/09_N160_K50_cliqueLeft_question1.PNG"","" "","""","""","""","""","""","""","""","""","""""
","""","""","""","""",""image-keyboard-response"",""16"",""521621"",""0.0-16.0"","""",""2322"",""tutorial/task_familiarization_images/part 1/10_N160_K50_cliqueLeft_question2.PNG"","" "","""","""","""","""","""","""","""","""","""""
","""","""","""","""",""image-keyboard-response"",""17"",""532509"",""0.0-17.0"","""",""10888"",""tutorial/task_familiarization_images/part 1/11_N160_K50_cliqueLeft_question3.PNG"",""arrowleft"","""","""","""","""","""","""","""","""","""""
","""","""","""","""",""image-keyboard-response"",""18"",""535961"",""0.0-18.0"","""",""3452"",""tutorial/task_familiarization_images/part 1/12_N160_K50_cliqueLeft_solution.PNG"","" "","""","""","""","""","""","""","""","""","""""
","""","""","""","""",""image-keyboard-response"",""19"",""542904"",""0.0-19.0"","""",""6943"",""tutorial/task_familiarization_images/part 1/13_N160_K80_cliqueLeft_question1.PNG"","" "","""","""","""","""","""","""","""","""","""""
","""","""","""","""",""image-keyboard-response"",""20"",""545861"",""0.0-20.0"","""",""2957"",""tutorial/task_familiarization_images/part 1/14_N160_K80_cliqueLeft_question2.PNG"","" "","""","""","""","""","""","""","""","""","""""
","""","""","""","""",""image-keyboard-response"",""21"",""547095"",""0.0-21.0"","""",""1234"",""tutorial/task_familiarization_images/part 1/15_N160_K80_cliqueLeft_question3.PNG"",""arrowleft"","""","""","""","""","""","""","""","""","""""
","""","""","""","""",""image-keyboard-response"",""22"",""549267"",""0.0-22.0"","""",""2172"",""tutorial/task_familiarization_images/part 1/16_N160_K80_cliqueLeft_solution.PNG"","" "","""","""","""","""","""","""","""","""","""""
","""","""","""","""",""image-keyboard-response"",""23"",""564712"",""0.0-23.0"","""",""15445"",""tutorial/task_familiarization_images/part 1/17_N160_K40_cliqueRight_question1.PNG"","" "","""","""","""","""","""","""","""","""","""""
","""","""","""","""",""image-keyboard-response"",""24"",""570172"",""0.0-24.0"","""",""5444"",""tutorial/task_familiarization_images/part 1/18_N160_K40_cliqueRight_question2.PNG"","" "","""","""","""","""","""","""","""","""","""""
","""","""","""","""",""image-keyboard-response"",""25"",""573065"",""0.0-25.0"","""",""2893"",""tutorial/task_familiarization_images/part 1/19_N160_K40_cliqueRight_question3.PNG"",""arrowright"","""","""","""","""","""","""","""","""","""""
","""","""","""","""",""image-keyboard-response"",""26"",""575105"",""0.0-26.0"","""",""2024"",""tutorial/task_familiarization_images/part 1/20_N160_K40_cliqueRight_solution.PNG"","" "","""","""","""","""","""","""","""","""","""""
","""","""","""","""",""image-keyboard-response"",""27"",""581039"",""0.0-27.0"","""",""5934"",""tutorial/task_familiarization_images/part 1/21_N160_K70_cliqueLeft_question1.PNG"","" "","""","""","""","""","""","""","""","""","""""
","""","""","""","""",""image-keyboard-response"",""28"",""585350"",""0.0-28.0"","""",""4311"",""tutorial/task_familiarization_images/part 1/22_N160_K70_cliqueLeft_question2.PNG"","" "","""","""","""","""","""","""","""","""","""""
","""","""","""","""",""image-keyboard-response"",""29"",""587919"",""0.0-29.0"","""",""2569"",""tutorial/task_familiarization_images/part 1/23_N160_K70_cliqueLeft_question3.PNG"",""arrowleft"","""","""","""","""","""","""","""","""","""""
","""","""","""","""",""image-keyboard-response"",""30"",""590301"",""0.0-30.0"","""",""2382"",""tutorial/task_familiarization_images/part 1/24_N160_K70_cliqueLeft_solution.PNG"","" "","""","""","""","""","""","""","""","""","""""
"true,""false"",""[]"",""[]"",""[]"",""preload"",""31"",""591374"",""0.0-31.0"","""","""","""","""","""","""","""","""","""","""","""","""","""""
","""","""","""","""",""image-keyboard-response"",""32"",""599245"",""0.0-32.0"","""",""7861"",""tutorial/task_familiarization_images/part 2/01_160_80_cliqueLeft_withFeedback_1.PNG"","" "","""","""","""","""","""","""","""","""","""""
","""","""","""","""",""image-keyboard-response"",""33"",""601719"",""0.0-33.0"","""",""2458"",""tutorial/task_familiarization_images/part 2/02_160_80_cliqueLeft_withFeedback_1.PNG"","" "","""","""","""","""","""","""","""","""","""""
","""","""","""","""",""image-keyboard-response"",""34"",""602975"",""0.0-34.0"","""",""1241"",""tutorial/task_familiarization_images/part 2/03_160_80_cliqueLeft_withFeedback_3.PNG"",""arrowleft"","""","""","""","""","""","""","""","""","""""
","""","""","""","""",""image-keyboard-response"",""35"",""605349"",""0.0-35.0"","""",""2358"",""tutorial/task_familiarization_images/part 2/04_160_80_cliqueLeft_withFeedback_correct.PNG"","" "","""","""","""","""","""","""","""","""","""""
","""","""","""","""",""image-keyboard-response"",""36"",""614923"",""0.0-36.0"","""",""9559"",""tutorial/task_familiarization_images/part 2/05_160_55_cliqueRight_withFeedback_1.PNG"","" "","""","""","""","""","""","""","""","""","""""
","""","""","""","""",""image-keyboard-response"",""37"",""618954"",""0.0-37.0"","""",""4031"",""tutorial/task_familiarization_images/part 2/06_160_55_cliqueRight_withFeedback_2.PNG"","" "","""","""","""","""","""","""","""","""","""""
","""","""","""","""",""image-keyboard-response"",""38"",""620738"",""0.0-38.0"","""",""1769"",""tutorial/task_familiarization_images/part 2/07_160_55_cliqueRight_withFeedback_3.PNG"",""arrowright"","""","""","""","""","""","""","""","""","""""
","""","""","""","""",""image-keyboard-response"",""39"",""623364"",""0.0-39.0"","""",""2610"",""tutorial/task_familiarization_images/part 2/08_160_55_cliqueRight_withFeedback_correct.PNG"","" "","""","""","""","""","""","""","""","""","""""
","""","""","""","""",""image-keyboard-response"",""40"",""633911"",""0.0-40.0"","""",""10547"",""tutorial/task_familiarization_images/part 2/09_160_70_cliqueLeft_withFeedback_1.PNG"","" "","""","""","""","""","""","""","""","""","""""
","""","""","""","""",""image-keyboard-response"",""41"",""644362"",""0.0-41.0"","""",""10436"",""tutorial/task_familiarization_images/part 2/10_160_70_cliqueLeft_withFeedback_2.PNG"","" "","""","""","""","""","""","""","""","""","""""
","""","""","""","""",""image-keyboard-response"",""42"",""646123"",""0.0-42.0"","""",""1745"",""tutorial/task_familiarization_images/part 2/11_160_70_cliqueLeft_withFeedback_3.PNG"",""arrowleft"","""","""","""","""","""","""","""","""","""""
","""","""","""","""",""image-keyboard-response"",""43"",""658373"",""0.0-43.0"","""",""12234"",""tutorial/task_familiarization_images/part 2/12_160_70_cliqueLeft_withFeedback_correct.PNG"","" "","""","""","""","""","""","""","""","""","""""
","""","""","""","""",""survey-html-form"",""44"",""670099"",""0.0-44.0"","""",""11726"","""",""{""""gender"""":""""male"""",""""age"""":""""23""""}"","""","""","""","""","""","""","""","""","""""
","""","""","""","""",""instructions"",""45"",""699558"",""0.0-45.0"",""[{""""page_index"""":0,""""viewing_time"""":29459}]"",""29459"","""","""","""","""","""","""","""","""","""","""","""""
"true,"""","""","""","""",""fullscreen"",""46"",""706454"",""0.0-47.0"","""","""","""","""","""","""","""","""","""","""","""","""","""""
","""","""","""","""",""canvas-keyboard-response"",""47"",""722020"",""0.0-48.0-0.0-0.0"","""",""15140"","""","" "",""[275,221,132,263,271,33,170,138,100,179,32,286,157,252,94,258,123,187,272,248,250,54,293,203,244,104,114,75,124,200,102,231,273,158,125,166,193,92,4,174,67,220,240,60,296,294,197,295,3,58,42,41,227,83,56,264,110,299,117,12,218,61,242,29,238,182,47,243,11,131,7,99,177,45,162,268,188,53,285,228,262,239,59,121,79,107,247,195,265,105,28,62,136,146,241,192,85,113,142,159,66,140,261,201,44,236,115,78,24,87,1,39,289,284,52,147,223,190,55,71,290,163,137,139,176,96,106,118,10,19,198,202,86,13,116,207,16,135,269,46,40,267,266,245,80,112,283,154,225,208,70,122,133,0,5,168,8,90,249,30,234,205,196,68,50,185,21,98,226,167,292,256,37,186,88,251,148,204,276,297,128,237,34,93,145,282,43,73,194,63,57,65,141,169,144,270,222,291,72,165,77,281,49,217,84,287,214,277,219,6,178,298,69,183,175,109,215,235,101,31,210,216,280,164,274,76,17,81,156,26,97,209,20,189,127,111,253,155,91,230,129,51,211,171,25,74,181,82,38,15,14,48,172,134,199,27,126,9,153,108,120,206,2,255,150,233,257,184,232,103,260,64,23,229,279,173,278,130,143,246,288,161,149,36,180,22,212,213,259,224,254,152,151,35,119,89,18,160,95,191]"",""arrowleft"",""0"",""0"",""90"",""300"",""[""""0089_N0300_K0090_CLIQUE"""",""""0071_N0300_K0090_NOCLIQUE""""]"","""","""""
","""","""","""","""",""audio-keyboard-response"",""48"",""722858"",""0.0-48.0-0.0-1.0"","""",""null"",""audio_feedback/shuffles/shuffle01.mp3"",""null"","""","""",""0"",""0"",""90"",""300"",""[""""0089_N0300_K0090_CLIQUE"""",""""0071_N0300_K0090_NOCLIQUE""""]"","""","""""
","""","""","""","""",""canvas-keyboard-response"",""49"",""745474"",""0.0-48.1-0.1-0.1"","""",""22231"","""","" "",""[289,273,294,144,148,87,85,131,225,254,43,109,61,266,142,217,10,265,163,114,34,208,15,243,204,102,220,1,64,269,242,154,74,145,158,113,18,100,67,147,11,8,110,26,181,298,207,31,227,276,0,13,92,235,108,206,44,32,135,249,192,226,288,136,59,46,53,106,290,141,267,258,116,251,280,233,223,205,170,219,252,230,259,174,117,176,118,25,182,201,161,22,229,42,292,216,73,234,281,125,128,35,279,112,156,239,222,149,165,40,285,119,169,210,275,211,115,191,179,69,190,264,88,143,160,124,286,65,185,291,80,23,129,241,184,14,166,123,7,164,130,245,75,159,83,19,79,152,103,282,278,28,77,203,140,94,153,256,297,253,162,90,41,50,91,270,134,126,68,122,17,260,86,57,197,214,36,287,101,215,248,78,237,3,200,196,55,33,247,96,213,63,198,52,93,268,97,105,178,157,175,137,81,232,250,99,39,221,193,45,139,187,107,89,224,167,274,188,62,21,284,212,272,72,120,155,2,71,236,180,283,16,195,257,244,121,246,296,209,168,5,194,20,218,255,70,104,202,47,299,171,138,37,12,56,6,84,111,98,150,133,24,199,172,4,271,151,228,189,238,76,82,49,30,27,48,173,231,95,277,66,9,51,240,262,60,177,183,146,132,54,58,263,261,186,29,293,38,295,127]"",""arrowleft"",""0"",""0"",""90"",""300"",""[""""0089_N0300_K0090_CLIQUE"""",""""0071_N0300_K0090_NOCLIQUE""""]"","""","""""
","""","""","""","""",""audio-keyboard-response"",""50"",""746071"",""0.0-48.1-0.1-1.1"","""",""null"",""audio_feedback/shuffles/shuffle01.mp3"",""null"","""","""",""0"",""0"",""90"",""300"",""[""""0089_N0300_K0090_CLIQUE"""",""""0071_N0300_K0090_NOCLIQUE""""]"","""","""""
","""","""","""","""",""canvas-keyboard-response"",""51"",""755105"",""0.0-48.2-0.2-0.2"","""",""8667"","""",""arrowleft"",""[217,118,96,121,139,159,13,247,49,130,187,201,62,179,52,289,226,93,86,151,248,158,129,282,185,255,269,92,132,15,275,264,124,67,117,186,64,252,175,271,69,66,257,82,266,4,8,37,83,291,244,235,22,5,236,60,221,55,180,297,41,28,7,160,209,146,294,115,87,274,30,188,246,103,181,293,258,204,165,12,10,234,63,267,178,296,85,153,288,105,71,276,68,110,144,70,251,127,14,213,38,183,142,43,216,26,157,58,140,18,190,220,262,94,242,182,256,109,222,192,46,280,138,152,210,219,116,107,147,33,79,233,45,136,113,189,102,131,254,212,290,229,20,227,97,39,21,164,111,141,205,286,108,299,295,265,231,298,11,261,156,194,35,193,0,48,65,137,47,1,2,126,100,211,207,29,112,88,253,174,232,133,59,3,57,76,61,122,81,53,134,283,202,191,277,9,24,172,31,270,36,198,84,125,90,223,166,285,78,44,73,284,173,99,145,101,241,119,6,128,292,104,42,27,23,135,196,80,218,17,184,19,77,25,74,225,143,91,176,162,34,278,149,72,50,163,268,203,260,195,199,106,171,206,170,167,169,89,32,228,197,150,40,250,51,224,200,279,263,54,214,120,75,148,123,155,259,230,273,239,208,272,95,245,154,161,16,240,238,281,168,287,56,98,237,249,215,114,243,177]"",""arrowleft"",""0"",""0"",""90"",""300"",""[""""0089_N0300_K0090_CLIQUE"""",""""0071_N0300_K0090_NOCLIQUE""""]"","""",""true"""
","""","""","""","""",""audio-keyboard-response"",""52"",""755540"",""0.0-48.2-0.2-1.2"","""",""null"",""audio_feedback/right/coin01.mp3"",""null"","""","""",""0"",""0"",""90"",""300"",""[""""0089_N0300_K0090_CLIQUE"""",""""0071_N0300_K0090_NOCLIQUE""""]"","""","""""
","""","""","""","""",""canvas-keyboard-response"",""53"",""770234"",""0.0-49.0-0.0-0.0"","""",""14276"","""","" "",""[220,105,108,41,83,135,175,55,84,183,257,137,93,199,24,272,113,256,126,138,286,204,85,195,186,16,242,53,258,64,278,158,14,168,22,132,167,128,177,15,182,8,156,174,129,36,4,193,202,133,60,217,111,231,98,124,0,73,74,140,2,283,40,71,47,227,298,184,263,119,102,136,206,259,190,197,255,77,268,50,289,208,219,59,26,150,232,293,7,273,115,143,122,223,152,34,194,196,265,92,271,42,252,72,79,165,154,241,19,188,57,178,172,249,291,230,211,9,51,170,82,94,101,239,31,164,130,180,144,54,17,118,21,179,294,30,192,43,110,250,282,187,75,147,254,270,166,262,281,139,66,88,44,99,247,123,251,87,203,244,45,103,234,218,109,296,189,215,68,62,100,261,191,134,25,106,221,91,90,78,48,229,131,287,277,295,246,245,5,69,141,18,149,159,121,198,27,1,171,161,38,58,33,224,237,205,280,86,89,222,95,120,276,81,39,181,29,112,228,125,127,264,76,274,52,162,236,209,114,13,253,104,61,169,3,148,49,157,201,32,176,23,142,185,155,163,80,275,96,260,233,146,173,225,6,284,153,37,248,214,297,28,238,269,56,67,216,207,160,290,11,151,200,212,299,35,285,12,145,240,292,213,46,20,107,97,117,210,10,226,243,116,279,288,267,70,235,266,63,65]"",""arrowright"",""0"",""1"",""90"",""300"",""[""""0046_N0300_K0090_NOCLIQUE"""",""""0025_N0300_K0090_CLIQUE""""]"","""","""""
","""","""","""","""",""audio-keyboard-response"",""54"",""770803"",""0.0-49.0-0.0-1.0"","""",""null"",""audio_feedback/shuffles/shuffle01.mp3"",""null"","""","""",""0"",""1"",""90"",""300"",""[""""0046_N0300_K0090_NOCLIQUE"""",""""0025_N0300_K0090_CLIQUE""""]"","""","""""
","""","""","""","""",""canvas-keyboard-response"",""55"",""778684"",""0.0-49.1-0.1-0.1"","""",""7516"","""","" "",""[34,160,172,216,273,214,140,106,18,176,253,143,9,114,221,76,153,166,66,267,185,85,222,82,298,255,158,198,73,189,156,261,55,51,138,190,256,50,23,192,16,68,60,124,237,13,27,259,250,134,233,148,81,59,33,228,56,229,74,47,264,155,97,28,49,181,123,7,240,145,193,110,180,107,42,117,3,208,257,244,247,274,252,278,205,53,69,100,220,78,235,285,182,103,184,79,249,294,39,281,105,201,284,286,150,217,230,133,242,12,271,2,268,95,282,126,173,157,94,245,147,84,167,152,251,14,130,234,291,169,20,197,227,21,279,226,262,246,139,209,218,175,146,270,125,87,260,57,99,196,48,195,265,204,199,165,293,231,136,164,263,72,38,43,101,239,238,243,25,58,31,277,15,1,299,162,122,40,92,26,191,89,224,6,288,129,119,280,104,215,29,149,232,254,203,61,112,188,17,24,11,183,137,70,19,44,171,241,142,287,289,88,144,200,120,186,111,83,177,283,80,159,22,64,41,30,292,115,225,65,202,174,187,35,213,36,37,96,62,93,296,212,108,170,154,223,248,90,118,151,258,52,211,113,206,178,121,135,207,295,168,8,54,86,102,67,91,46,32,0,219,194,63,127,10,297,77,269,109,75,272,116,128,131,45,98,290,276,275,132,266,210,71,163,179,5,4,141,161,236]"",""arrowright"",""0"",""1"",""90"",""300"",""[""""0046_N0300_K0090_NOCLIQUE"""",""""0025_N0300_K0090_CLIQUE""""]"","""","""""
","""","""","""","""",""audio-keyboard-response"",""56"",""779255"",""0.0-49.1-0.1-1.1"","""",""null"",""audio_feedback/shuffles/shuffle01.mp3"",""null"","""","""",""0"",""1"",""90"",""300"",""[""""0046_N0300_K0090_NOCLIQUE"""",""""0025_N0300_K0090_CLIQUE""""]"","""","""""
","""","""","""","""",""canvas-keyboard-response"",""57"",""785419"",""0.0-49.2-0.2-0.2"","""",""5746"","""","" "",""[25,87,21,282,183,72,101,42,201,186,58,150,103,254,39,166,117,49,35,8,63,251,274,157,170,278,288,67,205,172,82,259,281,22,54,248,61,53,295,10,62,69,77,267,228,241,165,197,113,176,34,105,102,258,275,257,40,246,93,134,1,75,209,60,243,189,118,138,44,149,57,230,256,131,155,154,3,148,214,143,36,202,207,27,16,177,18,139,263,79,208,9,234,182,169,95,204,70,88,120,24,226,180,174,280,283,99,235,223,84,140,66,124,65,290,43,83,153,89,85,45,19,245,111,110,97,6,125,81,292,11,262,167,106,179,222,121,29,76,116,236,162,250,199,247,12,265,51,232,184,144,5,90,224,273,218,238,91,296,287,185,260,64,268,187,4,249,13,217,115,55,133,122,14,151,198,26,163,28,17,129,299,104,219,190,15,221,136,227,142,181,285,261,239,279,240,297,231,233,123,98,210,242,284,7,277,200,216,188,215,41,48,38,94,225,86,152,137,161,46,269,160,147,220,141,37,195,164,253,33,126,286,298,211,92,30,108,74,255,112,135,146,168,192,59,212,56,31,73,291,289,175,213,0,100,71,156,271,293,109,171,266,229,237,32,196,145,23,294,252,78,203,276,2,206,119,50,158,194,68,178,270,52,47,127,159,193,96,107,130,264,20,80,173,244,272,191,114,132,128]"",""arrowright"",""0"",""1"",""90"",""300"",""[""""0046_N0300_K0090_NOCLIQUE"""",""""0025_N0300_K0090_CLIQUE""""]"","""","""""
","""","""","""","""",""audio-keyboard-response"",""58"",""785979"",""0.0-49.2-0.2-1.2"","""",""null"",""audio_feedback/shuffles/shuffle01.mp3"",""null"","""","""",""0"",""1"",""90"",""300"",""[""""0046_N0300_K0090_NOCLIQUE"""",""""0025_N0300_K0090_CLIQUE""""]"","""","""""
","""","""","""","""",""canvas-keyboard-response"",""59"",""788522"",""0.0-49.3-0.3-0.3"","""",""2180"","""",""arrowright"",""[188,200,72,213,120,204,180,140,218,121,65,13,170,235,58,293,81,253,52,91,223,104,202,186,2,281,99,14,10,127,80,184,237,60,150,97,211,185,294,34,153,101,212,241,273,151,269,226,0,196,76,227,165,233,189,221,129,191,106,107,25,299,84,12,73,131,210,298,78,141,55,231,122,48,286,108,162,254,159,27,136,267,262,228,206,219,207,208,49,126,90,249,83,169,257,82,4,209,119,201,115,79,21,255,43,277,246,217,68,64,292,173,198,266,156,19,20,259,284,39,236,69,30,17,37,157,160,290,179,272,66,15,190,88,289,248,268,100,71,47,146,282,93,192,98,243,181,193,149,172,111,5,176,205,130,32,118,265,194,18,232,288,229,242,44,40,187,125,6,291,38,16,31,41,239,216,113,45,133,23,114,297,261,139,75,197,155,258,46,270,110,278,147,234,112,36,61,245,87,250,28,123,70,161,142,166,67,3,138,74,77,175,285,144,54,9,214,222,244,35,203,56,137,256,143,225,164,283,29,50,182,89,63,152,59,116,238,132,96,24,287,224,174,264,295,247,171,280,279,240,124,296,92,230,94,263,154,95,85,158,148,274,220,102,251,260,215,135,178,134,57,168,117,53,11,276,1,8,103,22,275,51,145,195,86,62,163,199,7,177,26,167,105,183,252,271,42,33,109,128]"",""arrowright"",""0"",""1"",""90"",""300"",""[""""0046_N0300_K0090_NOCLIQUE"""",""""0025_N0300_K0090_CLIQUE""""]"","""",""true"""
","""","""","""","""",""audio-keyboard-response"",""60"",""788945"",""0.0-49.3-0.3-1.3"","""",""null"",""audio_feedback/right/coin01.mp3"",""null"","""","""",""0"",""1"",""90"",""300"",""[""""0046_N0300_K0090_NOCLIQUE"""",""""0025_N0300_K0090_CLIQUE""""]"","""","""""
","""","""","""","""",""canvas-keyboard-response"",""61"",""802471"",""0.0-50.0-0.0-0.0"","""",""13095"","""","" "",""[194,158,277,258,159,14,196,166,41,50,97,243,148,112,125,262,170,122,61,34,133,63,206,192,18,223,188,178,273,118,71,110,23,27,168,21,213,297,53,113,32,0,260,146,240,216,239,292,294,249,69,268,287,91,140,90,219,299,28,193,291,11,296,95,220,175,288,164,26,246,151,22,235,280,203,160,171,298,195,137,40,120,180,230,105,199,290,224,245,58,46,261,157,198,236,100,132,65,217,210,13,184,197,52,265,124,190,106,48,87,44,145,39,75,31,228,138,2,8,231,286,86,72,150,49,102,212,225,173,269,92,80,83,67,207,259,10,60,247,78,182,162,289,238,114,229,181,74,116,135,183,165,20,12,242,29,244,15,16,179,284,215,7,5,47,66,81,276,62,283,107,38,147,167,271,85,59,187,35,211,255,24,4,55,254,89,274,68,104,42,279,36,115,266,234,141,51,214,153,43,163,285,143,101,117,64,119,121,275,128,233,79,139,3,186,111,169,177,176,88,208,82,149,293,222,154,185,250,99,70,267,248,84,45,218,263,6,123,209,272,201,57,155,226,282,142,237,295,9,205,227,98,221,76,156,202,144,278,134,191,54,73,241,1,108,30,19,161,232,93,152,94,251,56,17,253,77,257,204,264,256,172,189,200,270,252,174,103,127,131,96,33,136,25,281,129,37,109,130,126]"",""arrowleft"",""0"",""2"",""80"",""300"",""[""""0060_N0300_K0080_CLIQUE"""",""""0082_N0300_K0080_NOCLIQUE""""]"","""","""""
","""","""","""","""",""audio-keyboard-response"",""62"",""803060"",""0.0-50.0-0.0-1.0"","""",""null"",""audio_feedback/shuffles/shuffle01.mp3"",""null"","""","""",""0"",""2"",""80"",""300"",""[""""0060_N0300_K0080_CLIQUE"""",""""0082_N0300_K0080_NOCLIQUE""""]"","""","""""
","""","""","""","""",""canvas-keyboard-response"",""63"",""818322"",""0.0-50.1-0.1-0.1"","""",""14891"","""","" "",""[149,168,251,3,185,152,30,114,282,202,230,180,33,110,195,127,71,267,226,82,58,249,14,86,214,62,240,34,61,192,64,176,213,157,112,293,37,6,12,270,16,281,67,72,26,287,175,170,118,147,156,298,115,289,269,224,264,268,299,211,85,107,135,186,159,291,196,294,151,209,221,122,297,173,60,5,223,1,68,231,44,92,292,25,134,93,132,103,146,259,42,280,210,15,246,250,63,169,141,111,43,193,29,253,75,265,129,66,236,203,160,121,227,177,244,104,131,7,198,150,23,261,73,245,189,52,235,162,158,96,31,276,97,116,143,55,242,77,83,41,0,190,234,48,172,101,216,11,256,51,137,119,142,128,266,199,233,200,239,105,120,217,56,222,91,208,8,260,218,273,220,232,4,90,45,10,286,40,27,95,46,197,271,78,126,109,237,206,163,238,79,295,89,184,57,20,53,166,277,241,81,290,84,171,254,225,179,35,188,108,94,229,212,28,178,19,165,194,191,70,54,88,263,155,22,100,279,252,247,123,201,138,207,285,69,258,47,76,187,9,36,274,24,161,278,219,133,99,17,50,243,102,38,32,183,49,167,98,18,139,296,204,174,272,13,136,144,140,130,154,215,148,284,59,65,228,153,80,113,181,283,2,248,106,288,275,117,182,164,262,39,257,125,124,74,21,145,255,87,205]"",""arrowleft"",""0"",""2"",""80"",""300"",""[""""0060_N0300_K0080_CLIQUE"""",""""0082_N0300_K0080_NOCLIQUE""""]"","""","""""
","""","""","""","""",""audio-keyboard-response"",""64"",""818916"",""0.0-50.1-0.1-1.1"","""",""null"",""audio_feedback/shuffles/shuffle01.mp3"",""null"","""","""",""0"",""2"",""80"",""300"",""[""""0060_N0300_K0080_CLIQUE"""",""""0082_N0300_K0080_NOCLIQUE""""]"","""","""""
","""","""","""","""",""canvas-keyboard-response"",""65"",""840582"",""0.0-50.2-0.2-0.2"","""",""21237"","""","" "",""[162,19,111,38,223,130,25,183,174,80,116,198,153,291,158,103,129,221,212,233,91,115,172,37,176,269,132,118,204,169,50,3,46,44,244,2,175,72,243,242,142,280,55,134,294,33,283,60,194,232,6,193,53,164,248,54,43,125,245,199,10,277,157,117,126,93,40,49,166,122,260,65,47,259,61,252,196,63,109,16,70,284,298,289,143,253,276,133,52,141,99,167,188,265,62,202,123,203,58,28,268,263,124,227,258,85,250,218,139,86,270,256,267,138,297,237,209,128,293,69,241,159,229,114,273,22,66,288,87,296,239,137,41,201,73,155,254,286,247,119,26,39,185,216,149,151,279,163,200,295,68,17,180,94,207,136,9,274,215,56,290,13,20,257,15,168,27,205,154,88,112,211,236,98,108,234,21,225,161,18,4,271,12,224,5,190,266,84,278,127,226,89,195,23,135,104,272,238,292,184,220,281,187,67,105,156,48,51,106,287,197,231,240,0,100,11,171,230,255,170,246,31,90,14,107,29,78,120,177,45,71,150,1,182,95,249,64,79,235,110,24,206,213,179,77,102,75,208,173,299,191,140,262,178,251,97,92,83,74,189,219,261,59,144,57,275,148,146,160,210,7,81,152,36,282,181,76,30,96,131,121,34,145,217,264,8,222,147,113,186,101,165,285,42,228,192,32,82,214,35]"",""arrowleft"",""0"",""2"",""80"",""300"",""[""""0060_N0300_K0080_CLIQUE"""",""""0082_N0300_K0080_NOCLIQUE""""]"","""","""""
","""","""","""","""",""audio-keyboard-response"",""66"",""841179"",""0.0-50.2-0.2-1.2"","""",""null"",""audio_feedback/shuffles/shuffle01.mp3"",""null"","""","""",""0"",""2"",""80"",""300"",""[""""0060_N0300_K0080_CLIQUE"""",""""0082_N0300_K0080_NOCLIQUE""""]"","""","""""
","""","""","""","""",""canvas-keyboard-response"",""67"",""851185"",""0.0-50.3-0.3-0.3"","""",""9642"","""","" "",""[59,224,174,132,204,285,260,222,117,106,267,255,240,283,294,247,75,51,52,98,120,140,15,0,286,154,190,156,230,95,160,217,177,34,44,169,186,17,299,272,293,68,191,121,229,109,198,197,113,56,82,180,172,141,213,78,35,110,72,53,208,266,231,183,165,5,137,105,107,237,71,134,128,96,47,258,210,147,244,269,284,297,29,212,259,70,176,136,12,288,187,83,48,184,296,181,250,84,188,292,79,64,39,21,9,171,278,263,115,45,206,28,215,33,200,20,148,30,159,50,93,37,251,87,94,10,123,287,242,268,281,220,38,69,295,63,166,127,182,203,114,167,274,227,158,168,205,125,3,108,264,185,91,49,6,170,178,8,179,124,116,60,253,143,24,218,254,36,67,241,1,18,196,257,26,271,226,199,175,133,243,14,100,232,73,80,89,57,101,77,153,291,40,228,7,164,273,99,138,129,41,249,66,234,46,214,126,239,62,219,23,4,43,102,103,276,19,27,201,135,238,119,193,157,152,22,277,151,252,90,282,279,207,150,31,162,146,11,192,221,54,58,55,42,290,202,88,155,265,104,261,161,86,74,256,25,122,225,270,92,280,189,149,130,97,163,139,32,81,233,85,2,248,112,298,216,142,262,173,236,194,65,16,235,275,144,131,223,209,118,111,245,13,61,289,195,145,211,76,246]"",""arrowleft"",""0"",""2"",""80"",""300"",""[""""0060_N0300_K0080_CLIQUE"""",""""0082_N0300_K0080_NOCLIQUE""""]"","""","""""
","""","""","""","""",""audio-keyboard-response"",""68"",""851743"",""0.0-50.3-0.3-1.3"","""",""null"",""audio_feedback/shuffles/shuffle01.mp3"",""null"","""","""",""0"",""2"",""80"",""300"",""[""""0060_N0300_K0080_CLIQUE"""",""""0082_N0300_K0080_NOCLIQUE""""]"","""","""""
","""","""","""","""",""canvas-keyboard-response"",""69"",""853813"",""0.0-50.4-0.4-0.4"","""",""1658"","""",""arrowleft"",""[215,250,38,22,75,187,211,201,177,14,198,165,138,141,111,47,124,180,102,39,152,90,238,149,92,291,119,19,203,53,256,202,26,6,98,104,178,112,208,97,169,36,299,41,269,273,123,28,209,296,239,29,219,87,158,222,99,60,2,255,183,55,245,205,236,235,34,192,134,23,232,176,117,264,266,1,100,240,257,128,207,79,213,223,81,77,164,276,168,44,282,115,142,15,153,101,56,21,190,263,241,54,160,279,103,58,148,195,258,147,109,200,171,132,72,283,212,297,157,229,68,62,7,57,167,129,108,294,286,227,204,193,83,185,46,199,37,50,30,73,76,161,78,244,288,121,96,59,277,248,166,182,246,194,64,18,175,31,259,162,173,52,127,67,172,179,45,197,231,86,293,188,32,133,69,274,35,261,16,154,146,27,113,249,228,0,110,206,174,292,8,65,196,216,281,144,230,49,186,221,280,287,214,71,139,254,156,247,48,233,85,94,118,88,243,63,51,106,150,4,122,251,275,80,252,218,130,242,33,66,145,5,267,107,17,42,131,189,84,285,70,262,135,225,136,91,159,295,11,181,155,151,82,163,226,289,93,170,270,234,284,237,89,210,224,13,10,272,12,298,25,253,3,126,184,271,137,43,40,116,125,24,143,114,95,278,20,120,191,265,74,105,140,220,61,290,217,268,9,260]"",""arrowleft"",""0"",""2"",""80"",""300"",""[""""0060_N0300_K0080_CLIQUE"""",""""0082_N0300_K0080_NOCLIQUE""""]"","""",""true"""
","""","""","""","""",""audio-keyboard-response"",""70"",""854243"",""0.0-50.4-0.4-1.4"","""",""null"",""audio_feedback/right/coin01.mp3"",""null"","""","""",""0"",""2"",""80"",""300"",""[""""0060_N0300_K0080_CLIQUE"""",""""0082_N0300_K0080_NOCLIQUE""""]"","""","""""
","""","""","""","""",""canvas-keyboard-response"",""71"",""863397"",""0.0-51.0-0.0-0.0"","""",""8783"","""","" "",""[283,89,295,290,229,249,237,56,114,225,108,279,181,177,202,226,97,247,200,147,16,42,186,85,265,223,151,80,87,93,207,71,155,187,209,15,149,171,23,6,180,76,221,9,215,208,235,152,227,163,88,99,284,22,170,37,73,271,83,81,61,269,161,153,175,25,84,36,106,13,113,138,21,46,293,118,27,105,132,276,11,44,228,185,8,263,14,173,166,273,292,101,201,144,74,236,286,296,33,39,248,220,268,218,4,59,131,250,143,182,191,277,26,28,65,2,78,12,233,139,243,270,79,38,104,122,60,278,142,57,115,244,179,116,135,287,267,119,239,258,51,62,280,203,10,69,211,125,66,107,58,240,100,102,82,160,43,232,77,109,242,91,294,274,205,54,126,210,204,176,96,1,120,121,194,217,55,266,41,262,0,246,94,130,251,297,168,281,289,128,275,5,24,159,193,264,206,291,164,222,20,140,190,195,141,241,245,156,183,184,133,285,123,148,188,134,18,299,255,63,127,230,150,214,198,137,136,92,67,34,234,197,254,47,252,72,199,238,224,288,124,45,157,75,49,216,40,53,272,3,64,253,172,103,117,129,213,35,112,68,165,178,111,70,32,219,154,212,145,260,189,95,98,192,282,86,90,31,261,174,259,29,50,298,162,17,167,48,196,146,7,169,158,19,30,257,110,52,231,256]"",""arrowleft"",""0"",""3"",""80"",""300"",""[""""0039_N0300_K0080_CLIQUE"""",""""0067_N0300_K0080_NOCLIQUE""""]"","""","""""
","""","""","""","""",""audio-keyboard-response"",""72"",""863976"",""0.0-51.0-0.0-1.0"","""",""null"",""audio_feedback/shuffles/shuffle01.mp3"",""null"","""","""",""0"",""3"",""80"",""300"",""[""""0039_N0300_K0080_CLIQUE"""",""""0067_N0300_K0080_NOCLIQUE""""]"","""","""""
","""","""","""","""",""canvas-keyboard-response"",""73"",""878854"",""0.0-51.1-0.1-0.1"","""",""14460"","""","" "",""[75,119,271,220,83,140,297,268,82,89,195,31,3,17,189,68,44,162,38,115,190,111,88,180,159,131,274,127,70,5,227,169,198,2,283,30,250,8,205,66,16,149,164,113,187,247,94,118,135,12,53,203,57,103,81,206,122,157,172,213,116,47,212,261,266,232,61,287,22,171,80,72,117,291,214,9,79,240,65,223,221,59,197,74,35,101,41,295,110,105,146,0,39,288,179,293,238,168,91,289,137,228,128,1,148,150,51,142,84,104,102,97,10,181,76,86,98,24,264,222,248,45,258,6,290,244,296,167,234,246,26,56,54,255,43,165,210,100,275,161,253,13,92,225,278,107,14,272,46,298,263,294,239,281,249,112,129,64,262,106,132,48,55,285,15,37,141,204,280,114,160,265,183,251,18,182,151,85,29,60,226,256,67,243,241,124,194,237,147,219,99,93,36,229,108,282,230,284,176,134,21,211,252,259,158,139,279,52,25,109,209,133,73,27,170,184,156,7,208,277,207,155,202,273,4,120,32,62,254,178,257,292,224,299,87,163,217,267,236,201,145,130,123,50,199,188,77,231,200,20,270,185,144,177,42,28,40,235,175,33,96,196,276,269,121,125,242,245,154,191,143,58,69,49,186,126,152,153,95,215,78,192,90,286,174,193,233,19,173,11,260,138,136,166,71,218,34,216,63,23]"",""arrowleft"",""0"",""3"",""80"",""300"",""[""""0039_N0300_K0080_CLIQUE"""",""""0067_N0300_K0080_NOCLIQUE""""]"","""","""""
","""","""","""","""",""audio-keyboard-response"",""74"",""879423"",""0.0-51.1-0.1-1.1"","""",""null"",""audio_feedback/shuffles/shuffle01.mp3"",""null"","""","""",""0"",""3"",""80"",""300"",""[""""0039_N0300_K0080_CLIQUE"""",""""0067_N0300_K0080_NOCLIQUE""""]"","""","""""
","""","""","""","""",""canvas-keyboard-response"",""75"",""885036"",""0.0-51.2-0.2-0.2"","""",""5245"","""","" "",""[221,129,114,97,147,1,117,113,31,144,30,161,240,279,264,286,220,47,239,70,5,278,83,105,102,272,283,132,280,16,249,222,107,127,255,262,96,121,196,254,244,53,92,50,110,39,58,84,225,0,76,91,166,177,235,36,284,168,233,133,118,46,228,232,125,103,247,88,3,15,55,4,198,195,138,200,77,285,213,100,219,167,242,215,80,7,152,226,69,227,41,181,204,33,206,95,56,179,281,142,257,245,143,42,192,123,229,162,209,13,99,104,48,294,171,11,20,194,214,156,274,74,64,111,252,217,165,288,203,218,154,119,28,87,296,101,216,66,267,126,59,148,205,270,25,163,297,79,238,282,29,191,248,298,139,268,258,236,189,27,159,32,172,63,17,231,292,259,275,207,145,14,65,6,182,43,246,178,9,44,35,81,26,287,293,169,260,122,12,291,24,290,211,151,49,253,90,21,72,193,89,250,170,82,256,164,112,131,197,18,8,135,212,19,155,98,243,38,199,158,134,188,271,237,86,269,94,51,130,273,157,2,106,62,141,124,186,174,71,190,223,210,149,266,208,263,115,184,52,37,34,176,187,299,108,137,183,201,224,78,185,45,251,40,160,22,85,60,54,289,136,67,109,128,180,10,295,277,234,140,202,241,23,153,93,61,230,73,57,150,175,116,120,276,173,261,265,146,68,75]"",""arrowleft"",""0"",""3"",""80"",""300"",""[""""0039_N0300_K0080_CLIQUE"""",""""0067_N0300_K0080_NOCLIQUE""""]"","""","""""
","""","""","""","""",""audio-keyboard-response"",""76"",""885599"",""0.0-51.2-0.2-1.2"","""",""null"",""audio_feedback/shuffles/shuffle01.mp3"",""null"","""","""",""0"",""3"",""80"",""300"",""[""""0039_N0300_K0080_CLIQUE"""",""""0067_N0300_K0080_NOCLIQUE""""]"","""","""""
","""","""","""","""",""canvas-keyboard-response"",""77"",""891862"",""0.0-51.3-0.3-0.3"","""",""5846"","""",""arrowleft"",""[187,39,126,26,40,176,152,232,220,154,227,293,277,165,15,230,134,66,128,130,196,158,197,13,247,264,221,9,29,71,127,62,288,12,7,135,261,185,211,249,87,236,286,142,168,80,263,190,116,118,273,108,246,105,155,201,76,129,124,1,164,47,212,255,68,250,31,46,276,213,60,54,241,150,111,131,262,149,231,50,184,123,294,148,20,56,88,266,177,210,67,95,18,33,278,6,222,81,253,0,133,143,234,252,2,207,235,109,202,63,242,259,200,73,3,180,36,225,139,41,287,79,274,204,84,172,162,153,215,243,292,43,151,188,194,174,267,45,279,122,75,219,89,173,157,224,59,136,239,281,181,58,55,271,146,205,137,237,163,256,182,24,141,258,21,214,218,269,25,49,275,268,175,103,280,85,107,57,283,223,93,144,94,171,226,160,53,100,28,254,61,48,34,206,121,90,299,284,32,228,5,285,270,169,238,203,192,91,260,170,8,35,119,159,17,98,257,147,199,16,179,78,216,193,233,113,183,19,156,23,92,115,42,77,244,97,290,74,70,178,189,245,209,145,86,22,265,83,251,30,37,106,27,110,52,291,132,99,4,96,44,161,72,104,10,198,217,69,191,208,120,272,240,64,186,65,195,38,296,117,229,51,295,167,298,102,140,82,14,11,112,297,166,289,125,282,138,114,248,101]"",""arrowleft"",""0"",""3"",""80"",""300"",""[""""0039_N0300_K0080_CLIQUE"""",""""0067_N0300_K0080_NOCLIQUE""""]"","""",""true"""
","""","""","""","""",""audio-keyboard-response"",""78"",""892284"",""0.0-51.3-0.3-1.3"","""",""null"",""audio_feedback/right/coin01.mp3"",""null"","""","""",""0"",""3"",""80"",""300"",""[""""0039_N0300_K0080_CLIQUE"""",""""0067_N0300_K0080_NOCLIQUE""""]"","""","""""
","""","""","""","""",""canvas-keyboard-response"",""79"",""905118"",""0.0-52.0-0.0-0.0"","""",""12466"","""","" "",""[19,249,70,282,128,236,261,139,84,30,110,157,254,135,67,212,126,36,207,241,115,98,274,170,33,55,17,205,97,134,273,62,80,42,95,272,106,1,197,159,22,59,114,234,86,121,292,183,281,275,174,299,280,291,49,142,24,284,223,78,21,287,27,217,122,113,16,200,0,290,226,75,257,88,171,148,53,71,12,37,250,163,81,131,149,104,119,6,221,264,158,136,20,265,41,162,129,240,140,245,255,85,165,268,289,69,25,18,89,228,64,208,116,232,79,138,125,177,130,14,209,87,28,175,172,60,74,243,127,34,248,132,222,216,141,4,123,50,204,15,47,35,199,32,66,271,220,155,90,263,152,185,219,29,269,176,39,153,256,169,203,168,91,211,192,213,54,120,147,56,189,9,196,180,297,61,210,202,244,296,102,266,150,173,103,94,193,137,10,164,38,227,146,58,100,186,267,288,48,51,68,101,225,252,187,251,276,77,145,72,229,224,182,181,190,295,188,107,143,191,3,259,45,65,73,298,133,156,233,105,198,154,112,117,294,23,167,239,43,215,63,247,118,195,194,99,11,242,52,237,270,124,82,277,161,253,5,201,230,57,96,286,13,293,179,46,231,235,246,7,262,206,279,92,166,184,283,178,214,40,278,108,8,285,238,83,76,26,258,31,218,151,160,111,260,144,93,44,2,109]"",""arrowleft"",""0"",""4"",""70"",""300"",""[""""0073_N0300_K0070_CLIQUE"""",""""0066_N0300_K0070_NOCLIQUE""""]"","""","""""
","""","""","""","""",""audio-keyboard-response"",""80"",""905707"",""0.0-52.0-0.0-1.0"","""",""null"",""audio_feedback/shuffles/shuffle01.mp3"",""null"","""","""",""0"",""4"",""70"",""300"",""[""""0073_N0300_K0070_CLIQUE"""",""""0066_N0300_K0070_NOCLIQUE""""]"","""","""""
","""","""","""","""",""canvas-keyboard-response"",""81"",""913954"",""0.0-52.1-0.1-0.1"","""",""7869"","""","" "",""[14,26,106,214,223,32,132,158,166,289,186,244,29,10,89,114,76,137,149,187,196,86,182,41,55,260,177,85,291,64,193,15,235,27,79,286,141,154,70,218,262,58,278,49,229,108,71,50,163,191,125,230,25,295,61,72,140,35,63,5,222,299,189,152,65,298,264,75,281,285,188,111,2,126,123,52,16,248,241,172,11,288,90,45,44,203,266,98,271,139,33,6,272,240,173,292,84,245,232,99,265,251,112,198,145,254,247,282,18,74,210,37,269,170,215,204,162,115,34,225,130,21,160,202,110,224,131,57,169,259,174,153,221,117,209,181,147,237,80,0,178,105,77,109,217,102,212,164,194,231,7,275,8,107,40,78,82,1,101,246,228,287,280,67,165,120,142,138,24,261,226,252,60,211,238,87,19,190,51,42,122,62,92,263,20,46,4,183,227,276,161,118,144,234,104,167,127,56,268,239,233,43,151,23,267,213,219,294,206,157,175,197,243,100,253,38,270,129,180,73,135,146,124,47,159,133,284,94,103,68,297,200,13,207,171,119,134,121,148,95,283,39,17,96,293,185,179,277,236,195,256,116,69,88,274,279,242,176,258,36,205,54,113,66,156,128,296,220,59,290,22,201,250,249,48,273,257,97,150,143,199,31,81,28,184,168,30,93,9,208,53,3,12,136,155,192,83,216,255,91]"",""arrowleft"",""0"",""4"",""70"",""300"",""[""""0073_N0300_K0070_CLIQUE"""",""""0066_N0300_K0070_NOCLIQUE""""]"","""","""""
","""","""","""","""",""audio-keyboard-response"",""82"",""914523"",""0.0-52.1-0.1-1.1"","""",""null"",""audio_feedback/shuffles/shuffle01.mp3"",""null"","""","""",""0"",""4"",""70"",""300"",""[""""0073_N0300_K0070_CLIQUE"""",""""0066_N0300_K0070_NOCLIQUE""""]"","""","""""
","""","""","""","""",""canvas-keyboard-response"",""83"",""921350"",""0.0-52.2-0.2-0.2"","""",""6451"","""","" "",""[39,270,98,55,96,127,68,6,147,227,130,105,157,166,158,64,261,0,210,276,99,8,115,258,143,10,175,61,46,142,108,95,170,206,298,221,69,134,24,183,131,11,18,89,63,45,32,195,194,274,162,120,116,163,3,102,245,84,257,103,220,278,66,286,193,199,72,219,135,26,238,230,73,62,214,284,21,209,4,16,265,85,146,88,151,136,12,178,114,124,67,263,185,33,169,137,297,288,47,176,87,188,207,223,173,57,229,101,138,248,139,179,22,232,53,133,272,161,191,82,37,252,141,237,149,144,91,217,50,264,294,241,171,100,231,148,152,280,279,212,35,140,196,250,71,65,164,7,122,132,77,154,160,184,282,94,246,177,202,14,218,205,299,83,204,189,273,159,56,296,30,36,60,129,197,42,93,128,126,58,186,262,216,277,9,256,15,236,25,198,244,2,28,251,249,285,107,74,190,119,20,70,31,266,97,292,52,268,289,34,1,192,86,211,253,180,233,104,43,113,174,240,203,201,118,59,23,254,153,182,172,239,235,167,213,287,267,156,79,234,80,111,54,17,121,19,247,181,90,81,226,295,187,76,44,243,145,41,224,78,40,29,155,228,125,5,225,283,281,259,112,117,275,75,168,38,260,291,48,165,290,27,106,271,123,110,255,92,49,200,269,109,51,13,293,215,222,150,208,242]"",""arrowleft"",""0"",""4"",""70"",""300"",""[""""0073_N0300_K0070_CLIQUE"""",""""0066_N0300_K0070_NOCLIQUE""""]"","""","""""
","""","""","""","""",""audio-keyboard-response"",""84"",""921919"",""0.0-52.2-0.2-1.2"","""",""null"",""audio_feedback/shuffles/shuffle01.mp3"",""null"","""","""",""0"",""4"",""70"",""300"",""[""""0073_N0300_K0070_CLIQUE"""",""""0066_N0300_K0070_NOCLIQUE""""]"","""","""""
","""","""","""","""",""canvas-keyboard-response"",""85"",""923980"",""0.0-52.3-0.3-0.3"","""",""1631"","""",""arrowleft"",""[16,221,24,107,136,28,94,118,180,264,298,191,216,93,155,190,245,284,270,132,226,163,279,52,211,246,182,267,122,15,48,159,106,209,228,172,259,32,236,143,103,201,127,86,27,206,139,5,252,145,281,235,225,255,257,272,50,13,4,133,266,81,292,9,295,197,102,212,126,110,214,141,242,296,109,46,54,262,185,248,10,138,70,181,114,152,186,208,59,199,142,241,101,215,263,72,188,11,162,33,149,210,289,128,140,51,173,237,220,39,230,178,67,202,187,97,227,238,239,83,222,2,124,276,251,108,8,3,160,196,0,17,154,116,61,25,88,63,40,273,111,112,260,37,18,65,55,56,42,205,288,113,219,254,135,96,244,261,287,64,34,204,271,47,144,150,194,240,90,213,174,77,282,192,79,184,291,164,147,85,224,243,278,175,193,170,293,229,69,62,66,280,151,294,250,203,125,115,21,169,44,105,76,82,99,168,92,38,158,75,20,12,58,269,129,286,233,137,207,41,30,171,231,53,234,258,218,119,121,22,165,148,131,253,156,297,6,247,1,73,19,78,71,31,249,7,217,200,153,49,189,223,146,157,290,74,275,98,80,91,134,166,100,268,285,45,36,120,87,198,256,43,23,68,60,89,183,167,84,95,274,299,177,265,117,123,283,179,232,161,104,57,130,14,35,277,26,176,29,195]"",""arrowleft"",""0"",""4"",""70"",""300"",""[""""0073_N0300_K0070_CLIQUE"""",""""0066_N0300_K0070_NOCLIQUE""""]"","""",""true"""
","""","""","""","""",""audio-keyboard-response"",""86"",""924390"",""0.0-52.3-0.3-1.3"","""",""null"",""audio_feedback/right/coin01.mp3"",""null"","""","""",""0"",""4"",""70"",""300"",""[""""0073_N0300_K0070_CLIQUE"""",""""0066_N0300_K0070_NOCLIQUE""""]"","""","""""
","""","""","""","""",""canvas-keyboard-response"",""87"",""931083"",""0.0-53.0-0.0-0.0"","""",""6311"","""","" "",""[194,218,182,21,151,42,99,98,30,130,189,157,248,40,121,60,68,47,90,275,291,172,65,4,77,170,256,205,103,188,263,284,196,220,296,261,105,43,16,79,169,162,116,252,104,64,46,131,137,36,175,126,48,125,34,28,24,160,230,154,139,102,166,201,238,59,74,120,106,171,73,287,270,232,180,118,202,115,53,146,52,6,179,113,26,12,224,176,235,3,142,95,25,214,129,192,213,18,298,281,85,236,81,144,91,262,135,272,17,124,177,212,50,223,22,1,147,72,107,229,92,70,96,69,119,44,38,143,33,286,145,285,237,163,294,293,108,89,149,195,23,278,197,7,156,253,167,210,32,216,20,181,254,199,269,133,219,245,299,58,288,242,100,184,93,203,112,97,207,19,41,155,164,273,257,289,292,127,161,111,206,249,173,277,240,5,140,141,0,114,2,241,267,13,259,268,15,222,153,101,84,276,122,159,75,56,76,94,150,178,282,132,39,200,88,290,233,266,209,185,51,228,35,243,246,49,67,62,215,110,198,71,271,82,138,54,208,234,8,29,283,280,226,31,45,260,11,136,148,225,258,55,66,231,61,190,247,57,63,158,165,255,227,295,239,123,191,204,80,174,117,265,87,193,109,152,134,10,217,168,186,128,27,83,37,183,250,274,211,221,14,297,187,78,9,279,86,244,251,264]"",""arrowleft"",""0"",""5"",""70"",""300"",""[""""0051_N0300_K0070_CLIQUE"""",""""0004_N0300_K0070_NOCLIQUE""""]"","""","""""
","""","""","""","""",""audio-keyboard-response"",""88"",""931651"",""0.0-53.0-0.0-1.0"","""",""null"",""audio_feedback/shuffles/shuffle01.mp3"",""null"","""","""",""0"",""5"",""70"",""300"",""[""""0051_N0300_K0070_CLIQUE"""",""""0004_N0300_K0070_NOCLIQUE""""]"","""","""""
","""","""","""","""",""canvas-keyboard-response"",""89"",""942642"",""0.0-53.1-0.1-0.1"","""",""10571"","""","" "",""[203,120,55,59,239,184,235,253,37,81,243,278,127,6,109,217,117,147,255,213,180,157,296,110,91,158,115,191,108,244,162,295,46,34,7,19,8,47,56,77,129,220,21,38,238,112,15,242,105,280,135,233,45,150,178,161,72,268,95,225,281,27,78,17,188,130,30,87,71,22,134,165,214,230,199,228,153,257,82,62,293,209,145,208,177,138,194,94,66,254,57,54,104,173,64,93,267,9,207,52,40,75,53,261,275,44,231,140,249,151,201,226,210,68,229,297,141,18,131,63,48,179,28,241,70,248,215,79,211,36,114,43,183,88,31,0,279,234,167,259,263,32,159,193,206,164,33,80,60,274,61,291,26,299,125,103,227,265,146,155,285,287,2,98,190,1,13,273,148,247,25,58,258,154,86,136,11,216,84,101,35,67,175,282,144,49,250,100,169,276,122,202,124,133,198,118,256,186,156,92,292,3,264,222,106,12,269,246,119,99,236,160,204,107,174,298,83,240,252,205,24,163,142,266,187,74,139,5,171,219,116,272,168,277,90,218,97,16,270,113,42,221,20,212,195,152,137,73,237,290,176,123,126,232,111,284,14,192,181,197,185,170,76,289,96,128,288,121,143,271,132,85,223,294,283,166,89,41,182,196,251,189,172,10,224,69,65,51,262,23,286,149,200,4,29,260,245,39,102,50]"",""arrowleft"",""0"",""5"",""70"",""300"",""[""""0051_N0300_K0070_CLIQUE"""",""""0004_N0300_K0070_NOCLIQUE""""]"","""","""""
","""","""","""","""",""audio-keyboard-response"",""90"",""943181"",""0.0-53.1-0.1-1.1"","""",""null"",""audio_feedback/shuffles/shuffle01.mp3"",""null"","""","""",""0"",""5"",""70"",""300"",""[""""0051_N0300_K0070_CLIQUE"""",""""0004_N0300_K0070_NOCLIQUE""""]"","""","""""
","""","""","""","""",""canvas-keyboard-response"",""91"",""950183"",""0.0-53.2-0.2-0.2"","""",""6633"","""","" "",""[10,28,125,75,69,14,238,204,50,161,141,187,134,294,166,269,261,246,94,157,18,290,240,156,171,55,70,252,143,32,183,268,158,221,296,239,174,38,173,102,87,130,295,235,242,220,288,251,189,4,107,245,248,49,48,24,219,99,232,160,114,203,188,79,285,247,117,277,286,169,201,43,231,146,227,57,206,126,282,109,73,136,140,179,216,54,97,259,139,168,7,135,111,265,5,205,287,124,8,186,26,199,131,105,280,25,165,80,243,62,172,17,30,44,72,164,147,42,197,253,274,222,33,52,34,223,195,129,154,68,63,108,27,148,207,127,77,170,149,244,293,118,88,23,85,138,95,92,122,103,71,83,163,128,84,267,119,100,46,210,145,209,2,191,35,260,86,176,230,110,177,45,213,273,257,76,270,192,90,15,178,159,297,175,266,16,142,194,78,137,6,198,228,132,193,262,211,215,65,272,51,229,13,167,250,115,121,21,82,39,196,184,292,59,106,113,180,202,236,208,40,64,226,93,12,101,19,276,104,66,116,22,237,56,254,47,263,152,1,185,37,9,123,74,120,217,234,162,36,53,153,281,89,29,233,241,275,91,3,279,98,212,264,0,225,284,31,224,271,144,214,133,298,190,112,11,249,155,60,150,58,299,81,283,67,151,61,20,278,218,181,41,182,200,258,255,291,96,256,289]"",""arrowleft"",""0"",""5"",""70"",""300"",""[""""0051_N0300_K0070_CLIQUE"""",""""0004_N0300_K0070_NOCLIQUE""""]"","""","""""
","""","""","""","""",""audio-keyboard-response"",""92"",""950740"",""0.0-53.2-0.2-1.2"","""",""null"",""audio_feedback/shuffles/shuffle01.mp3"",""null"","""","""",""0"",""5"",""70"",""300"",""[""""0051_N0300_K0070_CLIQUE"""",""""0004_N0300_K0070_NOCLIQUE""""]"","""","""""
","""","""","""","""",""canvas-keyboard-response"",""93"",""958855"",""0.0-53.3-0.3-0.3"","""",""7701"","""","" "",""[214,96,184,74,197,71,21,178,281,204,160,105,261,124,298,1,228,143,246,32,169,266,80,126,215,107,155,121,201,50,141,175,26,164,279,289,14,62,162,11,222,75,294,186,199,237,47,154,158,250,63,297,235,255,252,127,122,257,292,12,37,166,128,48,114,233,284,125,91,19,188,54,273,110,218,213,208,271,193,132,87,44,116,36,16,268,123,231,93,278,181,100,151,283,56,137,212,234,295,245,103,223,194,135,112,59,269,183,211,272,187,23,217,120,76,148,68,207,288,202,264,290,130,67,253,42,190,270,97,51,6,277,18,244,260,78,168,88,25,99,92,52,45,230,24,4,161,119,192,115,170,171,219,200,144,20,13,142,38,282,157,84,17,15,206,139,238,226,180,173,209,229,140,111,249,43,280,227,167,152,220,70,131,241,156,243,39,210,224,31,108,8,66,185,293,163,98,285,46,22,239,179,60,256,147,134,90,72,291,263,262,89,149,145,57,146,182,259,251,221,216,276,225,172,118,55,65,53,287,242,101,195,33,94,35,296,109,150,41,165,138,265,177,174,176,82,40,34,0,102,133,95,247,129,81,77,191,232,275,159,189,58,28,27,258,73,3,205,104,79,299,267,49,236,9,198,61,5,30,254,153,117,29,274,85,196,106,69,248,7,2,136,203,86,240,286,83,10,64,113]"",""arrowleft"",""0"",""5"",""70"",""300"",""[""""0051_N0300_K0070_CLIQUE"""",""""0004_N0300_K0070_NOCLIQUE""""]"","""","""""
","""","""","""","""",""audio-keyboard-response"",""94"",""959415"",""0.0-53.3-0.3-1.3"","""",""null"",""audio_feedback/shuffles/shuffle01.mp3"",""null"","""","""",""0"",""5"",""70"",""300"",""[""""0051_N0300_K0070_CLIQUE"""",""""0004_N0300_K0070_NOCLIQUE""""]"","""","""""
","""","""","""","""",""canvas-keyboard-response"",""95"",""966878"",""0.0-53.4-0.4-0.4"","""",""7096"","""","" "",""[200,75,192,219,251,171,102,13,128,96,249,17,206,105,148,275,58,65,228,168,129,72,159,143,138,135,152,3,227,108,1,293,283,27,61,124,91,292,147,195,164,276,245,211,122,20,64,83,212,296,285,273,185,260,106,229,263,155,77,76,116,232,11,33,299,25,239,85,170,216,218,80,223,53,48,26,243,180,289,120,4,63,110,78,8,68,268,274,234,150,14,51,174,272,55,265,178,118,98,166,45,210,69,104,154,224,71,238,201,93,43,12,7,240,261,99,226,81,6,73,247,49,184,145,82,92,134,169,237,139,15,179,173,70,125,111,183,114,50,281,271,89,279,194,60,241,186,233,291,54,84,109,214,146,113,161,137,258,16,189,10,136,231,97,286,39,250,121,252,208,188,264,181,248,187,282,284,103,236,59,66,117,225,220,86,24,149,101,287,100,62,288,35,165,204,217,160,133,198,28,127,37,36,21,256,215,270,2,213,44,175,23,235,130,95,123,38,280,52,0,74,156,295,246,42,199,30,182,269,67,267,22,5,157,205,163,266,140,87,202,41,151,191,176,88,193,18,90,221,31,94,298,190,153,172,32,162,56,132,47,196,262,255,222,257,107,254,230,126,197,278,112,177,297,115,144,142,259,203,141,244,46,57,277,209,158,29,19,79,253,9,167,294,242,40,207,119,34,131,290]"",""arrowleft"",""0"",""5"",""70"",""300"",""[""""0051_N0300_K0070_CLIQUE"""",""""0004_N0300_K0070_NOCLIQUE""""]"","""","""""
","""","""","""","""",""audio-keyboard-response"",""96"",""967440"",""0.0-53.4-0.4-1.4"","""",""null"",""audio_feedback/shuffles/shuffle01.mp3"",""null"","""","""",""0"",""5"",""70"",""300"",""[""""0051_N0300_K0070_CLIQUE"""",""""0004_N0300_K0070_NOCLIQUE""""]"","""","""""
","""","""","""","""",""canvas-keyboard-response"",""97"",""974702"",""0.0-53.5-0.5-0.5"","""",""6848"","""",""arrowleft"",""[156,179,41,30,224,264,103,294,195,124,56,245,147,263,94,104,57,243,183,208,137,85,160,169,257,280,284,8,131,81,254,109,51,159,262,17,28,150,212,252,221,190,52,242,206,21,296,236,293,110,275,93,33,232,72,258,175,77,66,107,25,204,158,141,19,140,229,222,16,79,123,29,227,112,9,119,189,161,132,65,4,216,176,83,101,76,238,45,219,226,100,246,225,64,180,59,178,196,128,187,155,58,231,172,278,218,205,10,241,24,32,117,249,287,237,46,130,223,54,136,207,163,38,203,272,143,146,89,181,69,171,70,134,11,234,129,3,73,151,98,211,209,200,12,2,55,295,240,220,80,152,114,67,186,47,199,153,7,266,42,23,82,113,192,173,92,233,193,118,217,88,157,198,22,277,44,276,50,286,289,261,122,165,170,191,90,182,250,142,75,31,48,35,282,291,71,256,14,78,255,279,97,15,68,27,288,53,185,91,285,99,274,87,133,265,299,228,298,267,210,62,290,106,18,148,230,239,20,214,259,271,253,292,102,40,60,154,247,43,127,244,283,201,166,39,13,26,202,168,121,297,63,194,1,144,115,86,162,34,235,36,164,135,188,184,108,213,0,49,145,248,105,37,273,120,116,84,270,111,138,6,125,167,215,260,174,197,126,96,61,95,269,74,149,139,177,268,251,281,5]"",""arrowleft"",""0"",""5"",""70"",""300"",""[""""0051_N0300_K0070_CLIQUE"""",""""0004_N0300_K0070_NOCLIQUE""""]"","""",""true"""
","""","""","""","""",""audio-keyboard-response"",""98"",""975120"",""0.0-53.5-0.5-1.5"","""",""null"",""audio_feedback/right/coin01.mp3"",""null"","""","""",""0"",""5"",""70"",""300"",""[""""0051_N0300_K0070_CLIQUE"""",""""0004_N0300_K0070_NOCLIQUE""""]"","""","""""
","""","""","""","""",""canvas-keyboard-response"",""99"",""985847"",""0.0-54.0-0.0-0.0"","""",""10357"","""","" "",""[165,10,291,246,46,26,191,129,205,47,155,44,19,87,267,168,261,176,108,94,238,48,131,80,101,91,158,160,124,204,51,103,137,37,74,67,57,128,146,274,24,236,221,218,248,64,241,213,232,180,186,208,21,172,126,265,250,85,231,262,245,268,8,92,173,288,52,116,60,228,119,162,136,41,219,252,264,171,229,223,177,226,237,59,272,181,141,211,84,43,251,196,9,107,198,78,118,230,121,182,240,199,283,220,45,203,184,257,3,163,170,29,214,25,209,239,122,4,42,28,62,287,192,249,17,194,280,76,104,81,271,185,30,190,109,157,135,31,133,65,106,55,143,16,234,90,216,212,222,299,297,22,140,286,289,33,111,263,217,112,154,178,247,5,235,11,269,259,13,164,255,244,227,225,275,276,68,97,88,292,39,127,66,266,152,145,23,35,139,260,144,73,149,18,134,258,215,120,99,83,2,130,125,195,7,253,95,49,174,102,63,197,285,20,32,100,210,277,71,27,69,96,242,153,72,77,151,284,61,34,175,150,0,183,40,166,142,75,93,54,113,58,159,115,224,12,281,296,138,6,86,105,193,270,294,188,82,147,132,200,278,279,50,110,98,36,282,56,201,117,254,123,114,14,273,207,256,148,298,169,290,53,156,179,243,295,233,79,161,293,189,38,167,206,70,89,1,202,15,187]"",""arrowleft"",""0"",""6"",""65"",""300"",""[""""0017_N0300_K0065_CLIQUE"""",""""0060_N0300_K0065_NOCLIQUE""""]"","""","""""
","""","""","""","""",""audio-keyboard-response"",""100"",""986396"",""0.0-54.0-0.0-1.0"","""",""null"",""audio_feedback/shuffles/shuffle01.mp3"",""null"","""","""",""0"",""6"",""65"",""300"",""[""""0017_N0300_K0065_CLIQUE"""",""""0060_N0300_K0065_NOCLIQUE""""]"","""","""""
","""","""","""","""",""canvas-keyboard-response"",""101"",""991000"",""0.0-54.1-0.1-0.1"","""",""4191"","""","" "",""[135,32,64,157,20,169,195,191,33,137,245,98,192,230,99,187,60,262,57,27,144,217,201,22,81,253,97,263,126,106,154,63,37,108,50,175,36,17,23,42,102,130,185,12,118,1,34,292,129,229,26,294,48,233,90,283,67,149,39,138,38,152,295,273,105,115,183,199,244,179,177,282,218,205,259,41,167,193,165,296,103,163,286,19,171,89,83,271,180,228,86,276,31,84,159,120,299,151,70,221,240,260,189,7,96,65,104,274,110,208,58,52,71,111,78,176,280,178,288,43,77,155,284,243,119,232,94,44,88,0,85,202,249,56,225,3,198,139,124,76,4,127,291,8,186,182,53,121,40,234,109,14,190,239,270,61,142,289,293,166,236,164,235,54,146,16,13,158,223,188,62,74,297,46,211,184,250,258,2,72,272,132,114,226,11,133,261,66,87,69,75,266,251,227,49,25,247,73,15,125,267,264,123,141,254,28,93,95,18,213,68,55,92,219,82,122,172,168,6,215,257,194,278,269,204,212,200,248,101,113,216,268,150,298,112,24,161,162,277,117,290,5,222,181,147,153,140,214,116,160,197,207,279,287,156,242,238,231,9,131,30,47,203,10,252,45,107,275,224,220,145,170,79,128,174,100,143,265,237,196,285,256,35,148,21,255,246,136,134,29,241,209,281,51,80,59,206,173,91,210]"",""arrowleft"",""0"",""6"",""65"",""300"",""[""""0017_N0300_K0065_CLIQUE"""",""""0060_N0300_K0065_NOCLIQUE""""]"","""","""""
","""","""","""","""",""audio-keyboard-response"",""102"",""991577"",""0.0-54.1-0.1-1.1"","""",""null"",""audio_feedback/shuffles/shuffle01.mp3"",""null"","""","""",""0"",""6"",""65"",""300"",""[""""0017_N0300_K0065_CLIQUE"""",""""0060_N0300_K0065_NOCLIQUE""""]"","""","""""
","""","""","""","""",""canvas-keyboard-response"",""103"",""994272"",""0.0-54.2-0.2-0.2"","""",""2318"","""",""arrowleft"",""[122,262,280,190,255,95,286,250,121,136,94,49,293,145,83,99,62,54,247,251,32,238,246,128,241,61,184,117,79,282,36,260,114,151,270,295,104,172,163,37,283,166,100,2,187,198,132,207,85,12,35,112,29,67,76,265,33,174,236,147,171,34,154,179,3,217,58,19,274,278,281,107,227,108,6,248,159,31,226,119,42,235,263,127,222,292,169,245,14,256,279,149,173,208,214,9,53,96,189,197,223,92,39,203,192,216,206,38,51,80,243,299,202,78,164,30,15,284,204,276,27,142,272,234,90,288,47,88,52,82,89,178,195,273,252,86,134,205,75,110,21,93,22,170,165,50,218,11,267,4,115,130,8,157,126,175,291,91,153,225,200,124,1,168,201,186,26,182,97,275,264,240,46,228,20,158,118,211,7,257,193,23,129,45,24,74,289,194,249,181,297,191,231,73,139,242,269,224,177,185,111,233,98,131,69,55,10,271,244,81,277,160,259,180,176,237,72,57,40,298,199,66,268,44,0,68,120,188,65,56,232,230,103,133,28,220,266,285,140,144,161,71,215,70,60,212,183,261,63,102,16,116,258,287,209,210,17,143,125,196,162,221,64,5,106,135,59,43,105,113,156,148,48,25,137,253,213,239,296,290,167,219,138,229,141,84,254,294,146,77,152,123,155,41,150,101,18,109,13,87]"",""arrowleft"",""0"",""6"",""65"",""300"",""[""""0017_N0300_K0065_CLIQUE"""",""""0060_N0300_K0065_NOCLIQUE""""]"","""",""true"""
","""","""","""","""",""audio-keyboard-response"",""104"",""994706"",""0.0-54.2-0.2-1.2"","""",""null"",""audio_feedback/right/coin01.mp3"",""null"","""","""",""0"",""6"",""65"",""300"",""[""""0017_N0300_K0065_CLIQUE"""",""""0060_N0300_K0065_NOCLIQUE""""]"","""","""""
","""","""","""","""",""canvas-keyboard-response"",""105"",""1003000"",""0.0-55.0-0.0-0.0"","""",""7864"","""","" "",""[5,165,104,61,214,0,109,291,288,27,162,47,132,28,14,296,139,217,276,113,198,136,115,194,204,114,116,55,246,179,41,149,238,87,213,152,245,59,65,71,186,237,283,25,171,8,208,252,117,242,286,200,249,15,260,118,257,240,229,29,169,52,141,199,26,11,297,228,295,195,83,205,40,190,56,54,207,233,244,281,294,123,193,174,107,32,180,95,196,202,63,232,88,21,108,287,166,75,155,9,181,182,92,274,42,74,279,140,119,222,57,277,79,147,216,23,210,78,285,122,219,292,77,73,234,293,30,248,81,261,62,24,185,137,218,64,284,99,201,167,206,144,172,3,215,10,68,138,111,96,177,125,18,7,192,90,129,298,103,225,60,102,265,124,187,97,6,220,221,67,209,49,80,255,254,72,158,2,120,134,156,34,91,258,93,299,183,20,289,282,239,4,128,58,264,51,250,145,272,66,267,263,36,243,157,76,39,130,170,50,278,280,163,121,175,151,48,251,37,133,235,197,146,101,173,256,127,164,100,135,70,259,290,44,126,31,273,211,43,230,270,69,168,231,226,46,53,82,227,223,12,89,131,106,269,1,45,110,247,154,153,191,241,16,86,112,159,38,178,268,203,98,212,105,224,184,35,271,143,275,85,160,266,176,94,189,236,161,33,19,188,22,150,148,262,17,142,13,253,84]"",""arrowright"",""0"",""7"",""65"",""300"",""[""""0094_N0300_K0065_NOCLIQUE"""",""""0099_N0300_K0065_CLIQUE""""]"","""","""""
","""","""","""","""",""audio-keyboard-response"",""106"",""1003564"",""0.0-55.0-0.0-1.0"","""",""null"",""audio_feedback/shuffles/shuffle01.mp3"",""null"","""","""",""0"",""7"",""65"",""300"",""[""""0094_N0300_K0065_NOCLIQUE"""",""""0099_N0300_K0065_CLIQUE""""]"","""","""""
","""","""","""","""",""canvas-keyboard-response"",""107"",""1012976"",""0.0-55.1-0.1-0.1"","""",""9037"","""","" "",""[193,224,113,70,218,179,202,226,280,170,185,184,24,137,168,162,134,140,263,266,9,268,40,97,47,122,158,34,177,293,26,247,107,178,123,181,114,63,237,129,229,41,252,165,118,183,219,148,76,42,267,125,65,249,27,7,209,187,131,256,254,230,98,10,273,78,171,32,223,239,56,128,143,271,199,16,213,25,299,52,261,135,46,62,250,180,152,234,203,31,258,43,291,159,111,112,284,146,174,3,222,77,89,54,18,275,12,221,17,96,67,19,166,208,172,99,259,72,102,233,201,212,83,200,231,151,147,207,81,5,74,33,71,59,153,257,243,154,144,57,157,15,37,220,216,8,244,124,260,163,167,281,176,149,14,197,75,48,130,282,60,93,39,289,292,279,120,251,35,132,236,298,189,248,295,253,164,20,91,191,190,64,288,117,161,285,1,232,138,142,30,100,264,136,87,79,84,188,53,214,155,38,265,198,287,88,109,92,240,116,272,196,13,217,160,23,0,50,269,133,245,101,227,297,235,119,238,274,294,225,6,4,194,82,150,173,90,69,36,290,2,255,68,145,241,66,49,108,141,45,169,283,278,126,94,80,55,215,246,61,95,204,29,276,11,127,277,121,206,228,28,103,242,296,51,105,186,175,73,211,195,115,44,58,21,286,110,182,139,86,22,262,210,192,156,270,104,106,85,205]"",""arrowright"",""0"",""7"",""65"",""300"",""[""""0094_N0300_K0065_NOCLIQUE"""",""""0099_N0300_K0065_CLIQUE""""]"","""","""""
","""","""","""","""",""audio-keyboard-response"",""108"",""1013540"",""0.0-55.1-0.1-1.1"","""",""null"",""audio_feedback/shuffles/shuffle01.mp3"",""null"","""","""",""0"",""7"",""65"",""300"",""[""""0094_N0300_K0065_NOCLIQUE"""",""""0099_N0300_K0065_CLIQUE""""]"","""","""""
","""","""","""","""",""canvas-keyboard-response"",""109"",""1018724"",""0.0-55.2-0.2-0.2"","""",""4755"","""","" "",""[139,84,173,20,64,50,102,32,290,37,246,204,88,261,207,214,31,90,63,101,97,180,98,33,130,133,54,83,289,163,166,4,45,158,55,38,110,112,113,237,170,25,41,238,26,274,265,132,10,141,221,159,92,136,275,60,21,276,210,200,187,299,232,29,47,162,52,178,67,250,284,248,240,155,79,108,192,148,217,19,121,281,66,61,292,105,272,167,231,62,174,196,288,215,278,230,182,191,150,65,72,48,208,271,236,283,115,205,87,5,6,273,12,251,188,295,8,153,257,220,100,185,74,137,160,131,119,116,59,140,44,219,183,243,123,206,16,71,298,111,235,77,176,164,36,179,89,68,285,40,114,247,245,22,2,233,244,124,268,149,24,91,118,227,190,239,286,78,266,168,17,117,138,198,263,256,135,297,228,125,85,218,106,70,143,86,134,189,282,142,181,81,267,96,296,216,259,222,258,212,226,184,279,127,157,43,53,9,242,73,42,197,209,225,224,27,145,57,293,151,103,144,94,199,254,109,262,213,211,99,49,129,28,3,252,18,126,13,46,0,156,58,75,255,201,253,229,1,202,161,7,23,280,95,120,203,15,241,35,193,175,277,80,291,171,34,11,177,169,39,172,234,107,186,76,56,249,14,260,104,165,154,128,152,223,194,51,82,195,93,146,264,269,69,294,270,30,122,287,147]"",""arrowright"",""0"",""7"",""65"",""300"",""[""""0094_N0300_K0065_NOCLIQUE"""",""""0099_N0300_K0065_CLIQUE""""]"","""","""""
","""","""","""","""",""audio-keyboard-response"",""110"",""1019291"",""0.0-55.2-0.2-1.2"","""",""null"",""audio_feedback/shuffles/shuffle01.mp3"",""null"","""","""",""0"",""7"",""65"",""300"",""[""""0094_N0300_K0065_NOCLIQUE"""",""""0099_N0300_K0065_CLIQUE""""]"","""","""""
","""","""","""","""",""canvas-keyboard-response"",""111"",""1022926"",""0.0-55.3-0.3-0.3"","""",""3266"","""",""arrowright"",""[20,14,208,17,8,240,178,1,243,101,263,231,204,64,245,250,269,109,83,69,197,113,211,285,242,284,238,252,18,15,234,130,141,191,50,78,228,144,112,173,33,202,189,281,73,188,75,118,206,61,37,7,195,256,264,93,176,16,233,159,153,95,288,139,85,24,43,22,296,30,134,138,280,91,35,57,12,237,94,108,182,257,203,150,295,248,184,236,54,187,180,298,62,254,192,31,27,166,71,215,39,120,131,154,279,128,99,88,53,175,235,293,36,156,59,276,164,277,56,80,127,115,181,152,140,25,212,221,125,47,287,44,72,38,291,149,168,271,186,21,121,207,10,98,82,79,227,162,262,275,266,89,216,223,265,135,114,183,46,32,29,278,217,209,155,292,5,84,77,146,74,92,157,226,210,133,194,41,170,274,219,244,111,267,169,23,87,105,145,110,205,165,103,49,160,65,161,174,2,28,122,167,246,260,3,19,107,224,201,102,40,220,232,193,286,289,97,255,148,55,222,119,90,268,196,218,26,68,251,123,126,213,48,158,142,100,4,171,239,34,261,42,129,51,258,282,86,241,163,13,230,117,96,299,116,70,137,132,60,52,0,273,177,225,172,66,67,283,200,247,249,198,190,45,229,106,199,63,259,214,147,76,124,6,81,11,151,179,9,143,290,58,253,270,294,185,272,297,136,104]"",""arrowright"",""0"",""7"",""65"",""300"",""[""""0094_N0300_K0065_NOCLIQUE"""",""""0099_N0300_K0065_CLIQUE""""]"","""",""true"""
","""","""","""","""",""audio-keyboard-response"",""112"",""1023354"",""0.0-55.3-0.3-1.3"","""",""null"",""audio_feedback/right/coin01.mp3"",""null"","""","""",""0"",""7"",""65"",""300"",""[""""0094_N0300_K0065_NOCLIQUE"""",""""0099_N0300_K0065_CLIQUE""""]"","""","""""
","""","""","""","""",""canvas-keyboard-response"",""113"",""1036198"",""0.0-56.0-0.0-0.0"","""",""12431"","""","" "",""[13,238,245,153,269,225,56,147,61,232,32,165,48,64,93,67,214,70,173,145,193,124,156,290,37,293,266,2,227,149,62,172,247,88,230,52,18,181,171,96,28,143,55,233,287,253,47,20,122,49,208,57,26,138,86,265,63,16,19,101,296,202,24,217,280,207,126,1,87,231,12,179,288,135,79,54,275,53,155,239,29,136,251,158,92,276,113,75,41,38,177,119,168,250,91,34,121,216,22,294,199,141,23,162,256,4,129,0,273,35,27,261,178,150,117,21,221,72,78,284,240,292,160,99,66,187,142,123,252,263,94,74,248,102,192,191,90,151,270,222,282,298,197,15,279,154,95,98,226,11,112,33,196,257,125,82,267,10,258,159,97,182,25,104,170,45,194,186,264,289,241,100,268,130,114,195,120,83,246,127,185,237,278,212,46,201,297,134,176,236,243,58,107,40,215,200,183,77,189,14,5,234,69,148,259,8,164,198,109,249,166,295,161,44,39,174,283,59,223,167,228,244,213,291,65,229,271,281,175,206,81,131,242,190,73,110,209,272,139,210,111,51,71,108,211,286,235,105,68,43,115,103,118,85,255,224,60,163,274,7,137,285,299,76,80,9,184,17,30,6,128,203,204,254,50,144,36,205,220,277,116,157,262,106,133,84,218,31,42,152,169,260,132,146,188,89,180,219,3,140]"",""arrowleft"",""0"",""8"",""60"",""300"",""[""""0044_N0300_K0060_CLIQUE"""",""""0077_N0300_K0060_NOCLIQUE""""]"","""","""""
","""","""","""","""",""audio-keyboard-response"",""114"",""1036777"",""0.0-56.0-0.0-1.0"","""",""null"",""audio_feedback/shuffles/shuffle01.mp3"",""null"","""","""",""0"",""8"",""60"",""300"",""[""""0044_N0300_K0060_CLIQUE"""",""""0077_N0300_K0060_NOCLIQUE""""]"","""","""""
","""","""","""","""",""canvas-keyboard-response"",""115"",""1045375"",""0.0-56.1-0.1-0.1"","""",""8234"","""","" "",""[270,29,68,44,85,115,143,175,291,49,118,295,179,40,198,114,278,284,299,248,186,224,106,13,74,235,22,8,221,257,280,107,207,181,90,197,95,80,182,276,103,160,48,244,272,76,88,222,200,58,245,170,146,91,243,3,161,83,226,6,10,193,97,65,187,287,231,125,112,59,241,129,75,131,158,37,247,2,96,12,298,36,147,120,279,208,242,150,176,196,5,135,24,77,204,297,178,252,31,30,165,219,185,123,256,63,137,225,52,69,148,105,261,277,233,51,130,14,249,172,19,177,57,238,271,294,230,54,9,290,56,87,86,11,0,138,258,210,212,188,246,64,117,209,203,89,67,239,173,234,84,211,42,236,154,26,119,41,17,275,70,166,174,132,122,162,228,133,35,184,269,78,229,260,151,292,217,282,73,205,206,79,156,251,28,110,43,111,189,214,18,93,92,140,38,21,164,171,124,199,102,262,227,283,285,128,23,281,53,33,218,250,32,62,113,121,254,1,190,55,46,296,195,163,263,27,144,7,259,180,155,109,215,167,157,153,288,191,4,273,98,104,201,71,45,20,149,61,237,136,267,268,15,39,274,108,100,253,34,232,220,216,142,192,159,82,255,213,134,116,152,16,293,72,126,139,286,265,266,264,66,183,168,169,99,50,60,202,94,240,145,194,101,141,223,81,289,127,25,47]"",""arrowleft"",""0"",""8"",""60"",""300"",""[""""0044_N0300_K0060_CLIQUE"""",""""0077_N0300_K0060_NOCLIQUE""""]"","""","""""
","""","""","""","""",""audio-keyboard-response"",""116"",""1045935"",""0.0-56.1-0.1-1.1"","""",""null"",""audio_feedback/shuffles/shuffle01.mp3"",""null"","""","""",""0"",""8"",""60"",""300"",""[""""0044_N0300_K0060_CLIQUE"""",""""0077_N0300_K0060_NOCLIQUE""""]"","""","""""
","""","""","""","""",""canvas-keyboard-response"",""117"",""1054685"",""0.0-56.2-0.2-0.2"","""",""8332"","""",""arrowleft"",""[14,156,42,57,193,76,123,16,197,200,112,270,199,73,172,78,45,8,179,40,226,167,131,244,160,80,84,4,109,292,155,149,262,254,119,299,281,120,154,126,290,293,46,164,230,240,25,256,51,283,30,181,13,97,202,95,208,140,58,70,72,277,261,121,67,258,169,43,124,49,285,27,266,170,247,176,279,232,106,251,267,18,32,22,128,105,39,127,257,34,221,118,98,110,104,44,94,196,229,182,90,236,93,246,75,159,207,275,215,228,158,259,66,198,150,136,265,194,183,225,157,61,268,243,50,274,3,9,137,134,233,177,161,81,17,89,271,60,68,55,114,148,165,69,212,248,152,96,33,263,71,5,99,143,92,2,41,37,82,115,211,138,289,83,103,36,62,132,218,12,213,47,77,264,54,186,7,174,219,48,162,113,224,108,231,129,139,142,203,287,56,6,189,187,141,206,151,276,10,35,79,0,145,111,185,175,238,192,31,205,171,195,273,180,91,252,21,168,260,222,87,101,144,11,85,74,249,28,237,100,201,122,216,294,125,38,234,173,59,280,188,239,163,217,190,153,214,64,15,284,297,20,296,133,24,107,166,53,102,184,52,209,117,29,19,235,88,286,26,63,250,220,191,116,65,291,245,278,204,86,288,298,227,147,272,282,242,178,223,255,253,23,295,241,130,269,210,1,146,135]"",""arrowleft"",""0"",""8"",""60"",""300"",""[""""0044_N0300_K0060_CLIQUE"""",""""0077_N0300_K0060_NOCLIQUE""""]"","""",""true"""
","""","""","""","""",""audio-keyboard-response"",""118"",""1055123"",""0.0-56.2-0.2-1.2"","""",""null"",""audio_feedback/right/coin01.mp3"",""null"","""","""",""0"",""8"",""60"",""300"",""[""""0044_N0300_K0060_CLIQUE"""",""""0077_N0300_K0060_NOCLIQUE""""]"","""","""""
","""","""","""","""",""canvas-keyboard-response"",""119"",""1065697"",""0.0-57.0-0.0-0.0"","""",""10203"","""","" "",""[222,208,124,253,221,165,18,290,192,169,119,76,174,168,151,218,13,235,96,233,289,21,67,32,273,137,53,12,193,186,282,80,58,123,285,44,91,129,182,111,274,7,73,228,92,227,232,158,296,200,9,145,140,60,138,27,116,172,148,224,268,135,56,266,278,231,171,41,16,261,61,24,240,141,99,110,170,269,286,178,47,159,206,142,225,114,270,126,74,87,204,79,215,184,50,245,217,272,35,277,108,131,203,223,127,62,260,263,117,90,10,107,226,29,15,39,81,190,244,70,106,267,246,86,14,276,147,280,195,249,236,202,122,144,161,199,45,281,11,230,95,105,118,291,82,2,234,271,212,187,132,259,84,242,28,101,69,243,64,143,176,251,179,40,98,214,166,19,257,42,65,94,57,211,292,175,183,167,136,112,125,295,153,216,297,256,264,1,213,219,4,163,72,100,3,66,75,197,255,205,162,157,220,146,78,287,120,298,26,102,17,130,52,8,113,22,262,299,150,43,180,239,196,294,77,63,198,89,248,209,155,194,128,23,134,189,279,265,85,6,181,59,188,237,46,97,103,51,54,149,93,238,71,152,34,254,283,207,288,25,33,37,121,229,293,104,0,258,185,154,191,88,38,133,177,36,20,284,31,49,83,247,48,250,30,55,173,275,109,68,241,201,115,252,5,160,164,156,139,210]"",""arrowleft"",""0"",""9"",""60"",""300"",""[""""0027_N0300_K0060_CLIQUE"""",""""0034_N0300_K0060_NOCLIQUE""""]"","""","""""
","""","""","""","""",""audio-keyboard-response"",""120"",""1066247"",""0.0-57.0-0.0-1.0"","""",""null"",""audio_feedback/shuffles/shuffle01.mp3"",""null"","""","""",""0"",""9"",""60"",""300"",""[""""0027_N0300_K0060_CLIQUE"""",""""0034_N0300_K0060_NOCLIQUE""""]"","""","""""
","""","""","""","""",""canvas-keyboard-response"",""121"",""1073710"",""0.0-57.1-0.1-0.1"","""",""7051"","""","" "",""[112,193,90,22,262,5,282,122,130,179,30,0,198,291,273,253,78,245,32,159,96,129,131,87,296,172,3,277,181,164,31,284,136,146,271,65,104,144,231,16,27,70,83,182,76,157,142,285,257,93,140,199,103,265,264,263,165,100,126,225,161,249,23,134,227,180,85,79,18,203,219,270,158,21,55,248,37,45,28,297,59,185,275,54,205,75,294,29,274,201,123,162,290,211,95,53,43,63,241,259,88,73,169,1,251,234,228,267,50,15,77,34,176,125,99,160,86,38,102,44,72,110,250,220,132,40,94,2,207,118,292,236,119,156,233,167,138,152,149,150,283,13,299,8,288,280,89,287,235,200,279,244,238,243,215,114,57,278,39,10,36,155,60,190,281,197,212,221,260,4,66,24,115,51,121,208,68,216,41,7,293,26,17,46,48,232,35,173,170,42,9,52,71,109,224,111,276,298,242,261,194,135,258,269,62,74,107,151,168,106,237,289,184,33,183,82,113,255,166,209,189,11,202,64,137,133,195,218,175,127,286,174,222,206,268,108,67,98,272,101,92,81,69,226,49,148,154,105,58,25,14,178,210,47,256,139,84,171,196,204,213,187,214,117,80,192,188,163,246,116,217,145,56,295,229,91,240,12,266,124,252,177,239,141,147,97,230,20,61,191,223,254,153,128,247,186,19,143,120,6]"",""arrowleft"",""0"",""9"",""60"",""300"",""[""""0027_N0300_K0060_CLIQUE"""",""""0034_N0300_K0060_NOCLIQUE""""]"","""","""""
","""","""","""","""",""audio-keyboard-response"",""122"",""1074293"",""0.0-57.1-0.1-1.1"","""",""null"",""audio_feedback/shuffles/shuffle01.mp3"",""null"","""","""",""0"",""9"",""60"",""300"",""[""""0027_N0300_K0060_CLIQUE"""",""""0034_N0300_K0060_NOCLIQUE""""]"","""","""""
","""","""","""","""",""canvas-keyboard-response"",""123"",""1086018"",""0.0-57.2-0.2-0.2"","""",""11358"","""","" "",""[280,145,33,211,102,148,256,23,182,231,77,195,175,233,52,189,117,214,135,183,203,6,109,244,82,209,149,140,126,243,297,277,255,174,289,62,91,104,134,57,108,9,29,138,278,37,105,205,186,167,276,107,291,100,184,87,275,63,168,172,118,85,190,49,120,200,128,122,188,116,60,143,97,123,224,58,113,4,164,173,261,216,121,26,84,234,28,144,198,50,35,45,133,75,99,290,47,207,90,106,170,88,245,191,46,283,12,53,73,171,41,288,222,150,237,273,24,19,86,169,274,294,236,146,66,199,226,18,124,293,254,98,55,21,217,119,232,210,3,219,34,153,64,31,266,16,158,76,152,92,196,215,212,287,0,268,65,15,166,246,48,178,155,251,147,68,96,112,141,272,71,187,2,271,51,285,197,213,10,95,206,202,42,125,32,229,267,201,127,295,159,56,130,78,181,165,239,137,185,238,260,162,279,59,247,160,20,110,70,93,180,151,230,139,281,81,1,223,154,36,240,54,249,114,176,299,225,241,30,7,74,69,163,14,259,39,101,227,157,286,292,72,252,282,204,250,22,284,132,5,192,44,8,142,83,194,218,115,80,11,156,263,38,103,179,94,221,136,242,79,264,258,193,220,298,248,27,208,131,265,61,228,262,17,13,111,89,161,257,40,43,67,235,177,25,129,296,253,269,270]"",""arrowleft"",""0"",""9"",""60"",""300"",""[""""0027_N0300_K0060_CLIQUE"""",""""0034_N0300_K0060_NOCLIQUE""""]"","""","""""
","""","""","""","""",""audio-keyboard-response"",""124"",""1086564"",""0.0-57.2-0.2-1.2"","""",""null"",""audio_feedback/shuffles/shuffle01.mp3"",""null"","""","""",""0"",""9"",""60"",""300"",""[""""0027_N0300_K0060_CLIQUE"""",""""0034_N0300_K0060_NOCLIQUE""""]"","""","""""
","""","""","""","""",""canvas-keyboard-response"",""125"",""1093229"",""0.0-57.3-0.3-0.3"","""",""6286"","""","" "",""[175,123,57,156,126,266,283,125,113,46,99,70,16,134,33,232,13,151,278,17,272,143,62,167,183,59,77,51,295,184,253,271,132,87,202,130,194,25,18,197,124,161,228,164,44,268,66,215,95,292,102,38,81,281,86,26,213,261,47,106,174,30,235,243,91,155,195,296,192,267,61,138,94,293,233,238,36,12,186,43,89,150,53,93,84,260,225,114,141,290,173,179,193,185,244,31,219,230,71,200,170,144,8,263,217,90,152,249,201,4,27,104,216,209,254,231,277,208,28,109,56,11,100,23,135,166,118,245,9,34,247,76,88,264,265,211,258,5,291,284,163,259,37,196,205,289,69,198,187,148,241,101,74,287,54,190,35,182,171,105,237,274,83,75,20,222,250,252,137,7,257,0,165,2,131,146,80,29,177,55,92,294,223,67,64,299,288,242,160,72,1,139,122,15,6,41,120,206,236,239,221,121,181,154,111,119,149,63,282,256,21,58,142,52,48,127,207,199,246,220,262,45,107,68,145,176,214,10,40,188,96,147,248,158,157,3,298,224,140,22,129,286,203,269,226,39,276,42,229,136,275,270,279,204,168,110,78,82,255,19,180,98,73,14,50,65,240,24,49,162,85,115,128,108,273,251,172,212,153,116,169,234,97,32,189,178,227,117,297,210,191,133,159,280,112,103,218,285,79,60]"",""arrowleft"",""0"",""9"",""60"",""300"",""[""""0027_N0300_K0060_CLIQUE"""",""""0034_N0300_K0060_NOCLIQUE""""]"","""","""""
","""","""","""","""",""audio-keyboard-response"",""126"",""1093798"",""0.0-57.3-0.3-1.3"","""",""null"",""audio_feedback/shuffles/shuffle01.mp3"",""null"","""","""",""0"",""9"",""60"",""300"",""[""""0027_N0300_K0060_CLIQUE"""",""""0034_N0300_K0060_NOCLIQUE""""]"","""","""""
","""","""","""","""",""canvas-keyboard-response"",""127"",""1098807"",""0.0-57.4-0.4-0.4"","""",""4645"","""",""arrowright"",""[235,224,228,262,109,121,174,130,155,134,34,230,204,105,219,106,72,245,138,35,100,187,220,169,167,297,118,210,127,151,51,22,126,269,273,270,77,101,4,123,186,255,277,147,86,171,280,60,133,247,131,294,157,264,140,24,129,94,289,164,95,128,161,3,107,160,158,271,9,117,1,236,267,81,287,116,73,42,55,153,82,96,172,225,54,76,52,190,185,263,290,213,103,29,202,50,40,111,68,143,246,295,240,120,149,176,212,2,217,238,296,114,78,59,227,5,26,265,181,57,249,197,260,231,215,132,39,80,196,205,12,175,191,92,43,203,98,125,23,274,18,234,30,214,241,222,266,180,159,233,90,258,41,27,83,32,252,7,209,37,112,8,251,229,79,184,279,13,278,15,36,256,162,226,19,56,239,45,69,136,237,33,166,216,71,286,46,31,244,135,275,188,150,74,93,144,232,53,177,88,11,142,194,48,165,122,141,63,253,110,183,21,178,189,148,282,108,207,75,283,179,102,156,242,257,221,119,298,254,6,70,198,299,104,173,113,20,182,28,47,285,243,261,259,293,192,152,199,17,272,62,87,139,163,25,284,67,10,44,89,218,38,211,0,58,85,168,146,281,200,16,154,124,145,49,208,201,250,206,276,223,14,91,292,61,115,288,65,268,248,66,195,137,64,291,193,84,170,99,97]"",""arrowleft"",""0"",""9"",""60"",""300"",""[""""0027_N0300_K0060_CLIQUE"""",""""0034_N0300_K0060_NOCLIQUE""""]"","""",""false"""
","""","""","""","""",""audio-keyboard-response"",""128"",""1099423"",""0.0-57.4-0.4-1.4"","""",""null"",""audio_feedback/wrong/error01.mp3"",""null"","""","""",""0"",""9"",""60"",""300"",""[""""0027_N0300_K0060_CLIQUE"""",""""0034_N0300_K0060_NOCLIQUE""""]"","""","""""
","""","""","""","""",""canvas-keyboard-response"",""129"",""1107836"",""0.0-58.0-0.0-0.0"","""",""8034"","""","" "",""[158,129,40,75,252,225,15,228,85,45,57,8,70,128,290,126,245,174,152,91,223,188,23,119,296,230,77,50,193,179,125,49,216,17,143,25,221,257,264,171,154,222,274,99,271,109,209,46,167,199,110,44,7,280,227,184,203,141,51,186,200,97,194,173,100,127,164,0,263,295,282,120,181,101,175,64,297,187,207,177,191,185,134,218,136,208,224,277,234,10,269,59,258,33,254,196,60,145,137,155,281,63,124,283,165,255,22,6,287,169,243,146,65,88,47,266,237,67,90,52,112,176,241,123,43,268,21,273,2,3,20,83,232,284,133,39,240,197,157,35,272,131,201,172,38,261,102,231,163,285,135,189,18,34,32,105,118,235,239,270,236,48,159,29,275,242,76,24,238,250,11,108,116,233,53,138,106,14,139,153,122,42,178,162,61,74,58,190,96,28,87,82,66,9,36,115,81,288,89,220,130,144,27,12,251,214,5,86,113,292,212,279,256,111,247,78,180,170,68,156,229,211,132,114,93,182,267,104,298,54,84,226,107,140,183,72,55,286,213,95,79,192,1,166,217,205,278,62,198,204,26,19,253,259,219,195,161,98,92,160,293,73,276,13,202,168,210,289,150,206,148,4,103,260,147,56,30,151,248,249,117,246,121,69,37,142,294,265,215,299,244,149,41,71,80,94,262,16,291,31]"",""arrowright"",""0"",""10"",""55"",""300"",""[""""0078_N0300_K0055_NOCLIQUE"""",""""0008_N0300_K0055_CLIQUE""""]"","""","""""
","""","""","""","""",""audio-keyboard-response"",""130"",""1108406"",""0.0-58.0-0.0-1.0"","""",""null"",""audio_feedback/shuffles/shuffle01.mp3"",""null"","""","""",""0"",""10"",""55"",""300"",""[""""0078_N0300_K0055_NOCLIQUE"""",""""0008_N0300_K0055_CLIQUE""""]"","""","""""
","""","""","""","""",""canvas-keyboard-response"",""131"",""1110770"",""0.0-58.1-0.1-0.1"","""",""1995"","""",""arrowright"",""[156,286,273,190,240,36,233,218,78,150,151,124,165,96,132,147,74,174,180,21,272,56,48,231,275,107,232,187,212,175,103,118,137,266,127,164,85,6,252,19,18,67,211,149,116,13,66,296,64,139,20,61,220,229,249,145,33,236,158,24,205,99,11,73,77,246,117,292,176,294,269,255,198,109,299,210,276,83,196,12,265,142,235,130,148,221,68,226,101,203,199,242,121,216,186,188,270,41,278,154,112,178,254,239,0,268,23,172,26,206,43,86,32,287,60,166,224,115,45,53,46,260,153,262,243,152,100,161,16,92,257,141,264,28,72,40,213,91,202,8,248,80,207,280,261,133,189,277,122,191,173,47,9,253,298,50,171,106,215,14,289,263,200,119,126,105,283,39,228,170,52,195,256,144,167,169,274,193,135,281,282,267,297,162,183,251,104,76,223,219,185,192,134,177,259,31,4,63,120,44,5,75,238,201,271,241,30,208,194,131,37,94,129,163,155,55,168,181,3,22,79,237,42,90,82,70,143,214,49,69,81,38,15,295,230,2,97,250,258,245,87,57,247,179,110,62,98,157,88,225,138,89,65,217,84,95,111,54,146,234,17,114,279,102,27,204,197,10,285,113,293,209,58,291,244,51,140,29,34,290,71,284,222,136,93,123,7,184,128,227,25,35,1,159,125,182,288,160,59,108]"",""arrowright"",""0"",""10"",""55"",""300"",""[""""0078_N0300_K0055_NOCLIQUE"""",""""0008_N0300_K0055_CLIQUE""""]"","""",""true"""
","""","""","""","""",""audio-keyboard-response"",""132"",""1111189"",""0.0-58.1-0.1-1.1"","""",""null"",""audio_feedback/right/coin01.mp3"",""null"","""","""",""0"",""10"",""55"",""300"",""[""""0078_N0300_K0055_NOCLIQUE"""",""""0008_N0300_K0055_CLIQUE""""]"","""","""""
","""","""","""","""",""canvas-keyboard-response"",""133"",""1121345"",""0.0-59.0-0.0-0.0"","""",""9740"","""","" "",""[112,159,151,259,256,4,161,250,188,228,114,158,22,165,59,41,101,185,62,290,218,211,110,296,135,50,279,98,17,269,200,127,204,99,83,132,92,125,46,215,81,239,179,14,118,184,163,297,102,96,54,156,245,64,45,76,23,152,166,272,78,8,122,257,42,80,154,134,206,170,155,52,2,28,107,162,194,44,258,225,268,88,34,48,61,56,19,121,60,178,202,94,212,263,124,295,115,67,106,38,31,224,246,284,0,182,249,186,298,119,181,6,192,223,287,43,73,293,236,27,227,280,116,145,123,79,26,53,252,288,20,180,205,68,277,108,241,37,157,247,283,138,100,3,113,275,217,294,47,167,276,55,248,93,10,226,104,7,87,29,70,176,232,24,190,270,240,126,49,120,32,187,90,237,213,160,177,278,262,111,299,130,173,58,146,136,140,267,244,144,264,39,141,219,57,5,117,210,196,30,109,255,234,164,230,273,89,285,147,260,153,74,148,242,191,65,1,85,254,274,271,13,86,172,175,289,69,265,216,71,18,203,15,142,143,198,174,281,168,183,16,66,193,229,207,235,251,84,199,77,33,238,105,220,51,35,209,197,133,292,95,266,169,253,128,9,149,243,221,222,12,72,261,171,231,11,282,139,97,63,195,214,40,137,286,82,75,103,91,129,131,233,208,36,201,291,189,25,150,21]"",""arrowright"",""0"",""11"",""55"",""300"",""[""""0030_N0300_K0055_NOCLIQUE"""",""""0040_N0300_K0055_CLIQUE""""]"","""","""""
","""","""","""","""",""audio-keyboard-response"",""134"",""1121947"",""0.0-59.0-0.0-1.0"","""",""null"",""audio_feedback/shuffles/shuffle01.mp3"",""null"","""","""",""0"",""11"",""55"",""300"",""[""""0030_N0300_K0055_NOCLIQUE"""",""""0040_N0300_K0055_CLIQUE""""]"","""","""""
","""","""","""","""",""canvas-keyboard-response"",""135"",""1142973"",""0.0-59.1-0.1-0.1"","""",""20663"","""","" "",""[14,48,24,161,139,233,137,179,191,182,103,293,142,50,156,294,57,66,262,21,299,123,238,105,255,240,61,108,171,9,31,146,75,259,222,41,46,188,49,286,54,114,45,29,72,223,167,257,63,88,151,281,203,168,86,125,278,248,276,12,210,134,169,27,230,231,135,229,266,190,102,224,175,261,127,34,290,59,164,226,150,269,212,249,200,23,0,141,6,272,65,236,178,144,78,99,115,250,243,17,260,289,111,143,183,194,267,288,213,270,85,254,192,291,232,129,69,237,271,77,87,93,73,101,273,277,147,113,15,170,35,5,284,246,92,8,197,227,268,126,22,298,296,160,162,136,217,258,70,174,206,252,11,40,205,176,275,155,216,204,180,10,112,165,247,148,104,82,172,287,131,42,79,196,118,208,225,209,97,234,13,121,242,67,187,94,241,47,3,244,130,157,221,74,263,211,122,228,84,18,71,154,62,7,81,1,199,33,145,60,274,128,90,51,138,107,110,153,4,26,80,43,149,2,133,36,96,207,132,193,58,52,173,119,181,140,220,163,20,283,16,89,292,106,184,202,177,189,95,109,198,37,55,253,19,44,279,91,64,56,76,98,124,264,239,285,218,185,215,117,201,282,265,219,30,195,256,186,120,25,68,39,297,159,280,152,32,158,214,251,28,100,295,83,53,116,235,166,38,245]"",""arrowright"",""0"",""11"",""55"",""300"",""[""""0030_N0300_K0055_NOCLIQUE"""",""""0040_N0300_K0055_CLIQUE""""]"","""","""""
","""","""","""","""",""audio-keyboard-response"",""136"",""1143569"",""0.0-59.1-0.1-1.1"","""",""null"",""audio_feedback/shuffles/shuffle01.mp3"",""null"","""","""",""0"",""11"",""55"",""300"",""[""""0030_N0300_K0055_NOCLIQUE"""",""""0040_N0300_K0055_CLIQUE""""]"","""","""""
","""","""","""","""",""canvas-keyboard-response"",""137"",""1150771"",""0.0-59.2-0.2-0.2"","""",""6789"","""",""arrowright"",""[78,103,181,128,229,192,222,223,267,122,134,278,75,18,8,199,67,69,246,154,272,89,160,214,293,143,91,211,256,38,77,247,55,264,60,126,92,118,129,48,262,255,167,148,155,274,169,228,12,19,261,66,147,104,294,203,31,253,40,198,137,237,56,260,36,217,115,22,109,234,132,270,82,24,241,225,239,2,87,99,189,200,210,288,295,157,106,50,10,178,61,83,282,1,14,27,59,42,151,216,64,16,194,174,28,84,79,34,145,52,280,159,21,219,57,73,290,179,53,98,224,170,183,204,230,297,133,6,39,202,281,287,97,257,292,164,102,190,72,172,119,266,70,268,3,110,141,112,33,121,248,140,265,180,71,166,251,127,235,29,258,279,171,144,232,152,196,51,150,201,165,100,58,45,299,43,221,161,197,277,149,175,5,4,93,233,62,243,273,176,242,30,116,17,213,76,80,0,131,296,285,275,49,124,105,65,11,271,25,35,13,226,206,187,283,108,44,259,289,41,291,163,286,85,20,74,81,54,117,158,135,63,123,218,26,125,245,9,113,173,86,269,263,244,142,220,111,136,168,195,46,96,188,153,209,32,238,185,231,215,23,177,95,138,240,207,94,205,184,254,120,236,7,88,15,191,249,139,107,252,298,162,250,212,47,146,156,227,284,37,186,276,101,68,90,193,208,182,130,114]"",""arrowright"",""0"",""11"",""55"",""300"",""[""""0030_N0300_K0055_NOCLIQUE"""",""""0040_N0300_K0055_CLIQUE""""]"","""",""true"""
","""","""","""","""",""audio-keyboard-response"",""138"",""1151188"",""0.0-59.2-0.2-1.2"","""",""null"",""audio_feedback/right/coin01.mp3"",""null"","""","""",""0"",""11"",""55"",""300"",""[""""0030_N0300_K0055_NOCLIQUE"""",""""0040_N0300_K0055_CLIQUE""""]"","""","""""
","""","""","""","""",""canvas-keyboard-response"",""139"",""1161540"",""0.0-60.0-0.0-0.0"","""",""9985"","""","" "",""[110,273,182,113,211,281,111,207,191,13,299,175,104,5,3,7,214,133,53,171,140,178,228,163,72,267,225,146,222,126,263,295,94,27,240,61,0,71,75,56,210,29,45,165,286,258,23,239,12,177,179,213,227,122,89,276,138,208,157,76,235,98,247,142,148,137,154,84,83,127,64,257,217,264,153,17,204,266,284,97,115,33,123,166,189,161,158,114,187,91,168,289,215,255,170,47,81,37,11,120,291,195,85,73,92,234,136,21,74,107,42,172,67,80,194,173,131,77,134,106,236,252,231,260,112,103,265,156,57,183,198,229,245,16,14,275,105,24,20,8,282,290,288,270,248,212,216,25,22,167,190,44,209,52,40,38,54,196,128,143,101,9,241,78,278,277,69,176,243,230,294,201,117,116,253,108,30,298,121,70,48,86,49,238,244,233,32,197,186,88,262,254,95,160,293,100,43,150,82,35,63,31,184,181,39,4,162,206,55,1,28,223,144,287,202,246,279,99,280,251,79,90,118,41,192,26,68,283,199,60,141,174,249,36,124,256,66,102,129,62,269,272,149,147,96,242,93,218,139,224,130,193,203,205,65,145,259,237,151,220,250,50,125,271,109,261,219,285,6,59,87,274,152,232,164,221,292,58,188,296,51,46,135,159,34,297,132,185,155,268,10,119,180,19,15,2,169,18,226,200]"",""arrowright"",""0"",""12"",""50"",""300"",""[""""0048_N0300_K0050_NOCLIQUE"""",""""0001_N0300_K0050_CLIQUE""""]"","""","""""
","""","""","""","""",""audio-keyboard-response"",""140"",""1162089"",""0.0-60.0-0.0-1.0"","""",""null"",""audio_feedback/shuffles/shuffle01.mp3"",""null"","""","""",""0"",""12"",""50"",""300"",""[""""0048_N0300_K0050_NOCLIQUE"""",""""0001_N0300_K0050_CLIQUE""""]"","""","""""
","""","""","""","""",""canvas-keyboard-response"",""141"",""1171221"",""0.0-60.1-0.1-0.1"","""",""8724"","""","" "",""[48,2,0,73,253,18,264,218,82,81,237,89,225,109,187,262,260,124,136,272,227,77,59,160,150,130,96,80,219,45,180,257,14,156,141,31,68,28,78,8,162,25,192,62,232,5,247,286,198,172,295,179,79,108,246,34,293,100,95,282,195,38,56,33,177,182,252,83,271,47,210,91,122,142,76,249,261,143,178,287,10,1,244,119,268,37,240,263,71,121,200,106,298,193,140,75,199,138,221,230,194,63,19,72,74,203,126,248,276,241,22,132,154,40,216,256,145,229,254,223,299,54,114,250,42,294,98,21,243,90,131,259,139,166,46,9,65,283,113,169,158,231,163,24,52,69,184,201,275,234,273,183,258,146,161,274,226,291,30,215,235,3,224,265,39,110,128,85,153,117,92,120,94,211,213,57,190,88,35,189,86,49,285,217,123,222,66,11,127,15,278,149,168,208,245,116,281,228,43,175,16,55,165,99,107,134,13,36,239,115,23,238,206,242,266,87,186,173,212,64,17,6,277,159,170,267,118,181,157,204,251,214,155,167,290,104,137,297,233,20,105,93,144,58,125,196,67,205,148,70,270,292,269,112,50,171,147,32,4,220,12,60,207,29,280,289,111,284,84,185,102,7,26,288,197,53,151,176,133,202,236,129,44,41,209,51,152,279,97,101,191,164,174,135,27,61,103,188,296,255]"",""arrowright"",""0"",""12"",""50"",""300"",""[""""0048_N0300_K0050_NOCLIQUE"""",""""0001_N0300_K0050_CLIQUE""""]"","""","""""
","""","""","""","""",""audio-keyboard-response"",""142"",""1171781"",""0.0-60.1-0.1-1.1"","""",""null"",""audio_feedback/shuffles/shuffle01.mp3"",""null"","""","""",""0"",""12"",""50"",""300"",""[""""0048_N0300_K0050_NOCLIQUE"""",""""0001_N0300_K0050_CLIQUE""""]"","""","""""
","""","""","""","""",""canvas-keyboard-response"",""143"",""1182776"",""0.0-60.2-0.2-0.2"","""",""10628"","""","" "",""[132,253,70,157,54,206,22,210,232,107,76,147,24,144,71,83,195,284,98,141,117,242,47,150,280,116,277,258,191,186,198,212,145,124,92,233,245,197,178,130,20,193,53,51,200,234,126,166,27,289,0,185,68,266,9,274,229,48,184,162,228,32,171,26,136,230,167,263,252,8,55,121,14,44,12,158,10,4,190,222,23,281,270,138,256,244,69,61,36,75,115,110,128,288,208,11,39,202,151,218,113,243,89,80,259,175,19,50,56,7,84,283,285,31,111,241,199,293,180,2,165,94,58,29,275,182,131,170,188,18,43,85,227,257,77,181,125,67,104,49,123,135,99,215,292,248,6,207,79,237,33,66,153,152,282,159,65,137,249,239,240,261,297,279,59,192,16,187,250,13,119,276,146,216,103,294,95,287,156,272,87,268,139,118,72,34,262,15,189,271,286,246,214,46,201,177,265,267,40,247,236,17,45,142,114,204,41,88,299,176,209,73,91,164,173,28,37,42,100,81,25,155,161,183,269,174,220,90,295,219,194,160,154,64,213,254,143,255,223,251,163,82,78,273,109,225,211,63,235,35,296,217,30,290,196,264,298,169,203,105,3,97,179,148,120,133,60,112,74,168,62,221,260,86,172,106,1,127,96,224,38,93,122,57,238,291,149,231,21,52,134,101,129,5,205,108,140,226,102,278]"",""arrowright"",""0"",""12"",""50"",""300"",""[""""0048_N0300_K0050_NOCLIQUE"""",""""0001_N0300_K0050_CLIQUE""""]"","""","""""
","""","""","""","""",""audio-keyboard-response"",""144"",""1183320"",""0.0-60.2-0.2-1.2"","""",""null"",""audio_feedback/shuffles/shuffle01.mp3"",""null"","""","""",""0"",""12"",""50"",""300"",""[""""0048_N0300_K0050_NOCLIQUE"""",""""0001_N0300_K0050_CLIQUE""""]"","""","""""
","""","""","""","""",""canvas-keyboard-response"",""145"",""1191673"",""0.0-60.3-0.3-0.3"","""",""7926"","""",""arrowleft"",""[195,90,3,115,91,6,225,168,143,208,198,139,266,102,38,238,240,291,73,172,223,215,218,45,132,153,244,93,129,160,258,24,1,275,11,130,127,96,267,216,164,120,124,17,274,64,252,200,14,8,109,284,262,197,154,250,251,15,71,166,87,68,219,92,81,105,43,53,42,22,280,95,161,162,159,201,123,54,67,142,297,118,88,221,50,141,131,175,66,233,55,125,260,234,39,296,237,174,60,295,211,182,61,177,187,111,44,63,169,77,217,242,35,253,119,41,156,190,25,147,281,163,268,37,29,51,298,94,245,286,272,171,186,152,199,207,235,86,270,269,27,128,255,288,232,220,18,138,19,228,202,165,282,148,273,48,210,110,293,249,214,191,279,5,256,2,290,85,116,106,254,26,271,79,231,34,248,40,134,10,205,23,112,229,136,178,114,100,33,213,30,69,101,203,117,47,99,13,194,181,189,241,263,49,276,183,278,59,299,107,135,21,193,170,155,103,126,157,287,70,230,257,9,185,7,58,57,74,62,289,292,122,20,28,158,31,236,192,133,261,82,4,12,78,146,239,0,283,72,259,80,83,140,294,56,222,226,121,98,144,204,32,76,173,145,265,84,16,75,108,104,89,224,176,52,184,277,246,36,46,97,247,113,243,188,137,151,180,179,285,206,149,212,150,167,209,196,264,65,227]"",""arrowright"",""0"",""12"",""50"",""300"",""[""""0048_N0300_K0050_NOCLIQUE"""",""""0001_N0300_K0050_CLIQUE""""]"","""",""false"""
","""","""","""","""",""audio-keyboard-response"",""146"",""1192272"",""0.0-60.3-0.3-1.3"","""",""null"",""audio_feedback/wrong/error01.mp3"",""null"","""","""",""0"",""12"",""50"",""300"",""[""""0048_N0300_K0050_NOCLIQUE"""",""""0001_N0300_K0050_CLIQUE""""]"","""","""""
","""","""","""","""",""canvas-keyboard-response"",""147"",""1203676"",""0.0-61.0-0.0-0.0"","""",""11026"","""","" "",""[139,114,174,233,275,115,198,120,153,221,253,187,223,298,80,138,140,169,75,244,219,229,178,259,131,116,89,69,278,296,193,141,137,55,173,0,297,8,46,6,67,96,101,207,264,224,143,263,66,257,188,151,70,232,295,103,118,184,291,99,106,149,81,48,129,79,44,16,86,85,21,63,160,121,31,54,124,43,7,84,201,74,38,3,59,196,142,94,56,50,183,256,255,152,162,197,299,158,2,170,163,25,282,276,58,243,272,24,68,227,220,235,107,180,90,87,136,214,176,267,204,189,284,271,208,112,98,95,32,161,4,157,165,28,230,212,29,274,206,117,14,182,280,287,245,109,122,254,135,51,190,128,126,92,72,266,290,11,270,73,268,35,127,194,250,159,269,225,34,222,273,241,110,185,108,217,172,133,148,228,102,240,216,77,134,226,45,285,76,234,150,154,252,258,175,168,147,277,164,171,218,200,239,33,195,144,166,20,5,213,100,119,42,91,61,211,53,286,294,10,260,60,146,15,113,265,145,210,251,62,123,156,88,41,261,71,281,26,39,18,199,97,177,279,262,203,242,283,49,17,192,293,125,13,132,65,105,104,238,9,47,209,52,231,83,93,249,57,37,181,202,64,179,246,130,288,155,1,237,36,215,22,78,167,289,186,111,12,191,40,236,23,205,248,247,292,19,30,27,82]"",""arrowright"",""0"",""13"",""50"",""300"",""[""""0002_N0300_K0050_NOCLIQUE"""",""""0041_N0300_K0050_CLIQUE""""]"","""","""""
","""","""","""","""",""audio-keyboard-response"",""148"",""1204228"",""0.0-61.0-0.0-1.0"","""",""null"",""audio_feedback/shuffles/shuffle01.mp3"",""null"","""","""",""0"",""13"",""50"",""300"",""[""""0002_N0300_K0050_NOCLIQUE"""",""""0041_N0300_K0050_CLIQUE""""]"","""","""""
