"success","timeout","failed_images","failed_audio","failed_video","trial_type","trial_index","time_elapsed","internal_node_id","view_history","rt","stimulus","response","nodes_order","correct_response","graphs_couple","accuracy","block_index","presentation_index","clique_size","graph_size","graphs_names"
"true","false","[]","[]","[]","preload","0","404","0.0-0.0","","","","","","","","","","","","",""
"","","","","","pavlovia","1","1179","0.0-1.0","","","","","","","","","","","","",""
"","","","","","instructions","2","44680","0.0-2.0","[{""page_index"":0,""viewing_time"":5007},{""page_index"":1,""viewing_time"":38491}]","43499","","","","","","","","","","",""
"true","false","[]","[]","[]","preload","3","56350","0.0-3.0","","","","","","","","","","","","",""
"","","","","","instructions","4","245444","0.0-4.0","[{""page_index"":0,""viewing_time"":3388},{""page_index"":1,""viewing_time"":2939},{""page_index"":2,""viewing_time"":2139},{""page_index"":3,""viewing_time"":4033},{""page_index"":4,""viewing_time"":1305},{""page_index"":3,""viewing_time"":6395},{""page_index"":4,""viewing_time"":6008},{""page_index"":5,""viewing_time"":3472},{""page_index"":6,""viewing_time"":9282},{""page_index"":7,""viewing_time"":2529},{""page_index"":8,""viewing_time"":3459},{""page_index"":9,""viewing_time"":2608},{""page_index"":10,""viewing_time"":2098},{""page_index"":11,""viewing_time"":817},{""page_index"":10,""viewing_time"":675},{""page_index"":11,""viewing_time"":1299},{""page_index"":12,""viewing_time"":2518},{""page_index"":13,""viewing_time"":1572},{""page_index"":14,""viewing_time"":1954},{""page_index"":15,""viewing_time"":1337},{""page_index"":16,""viewing_time"":1632},{""page_index"":17,""viewing_time"":2490},{""page_index"":18,""viewing_time"":861},{""page_index"":19,""viewing_time"":2363},{""page_index"":20,""viewing_time"":1651},{""page_index"":21,""viewing_time"":3341},{""page_index"":22,""viewing_time"":2854},{""page_index"":21,""viewing_time"":61},{""page_index"":22,""viewing_time"":638},{""page_index"":23,""viewing_time"":1052},{""page_index"":24,""viewing_time"":866},{""page_index"":25,""viewing_time"":2345},{""page_index"":26,""viewing_time"":2827},{""page_index"":27,""viewing_time"":4285},{""page_index"":28,""viewing_time"":5961},{""page_index"":29,""viewing_time"":7091},{""page_index"":30,""viewing_time"":2177},{""page_index"":29,""viewing_time"":202},{""page_index"":28,""viewing_time"":498},{""page_index"":27,""viewing_time"":1371},{""page_index"":28,""viewing_time"":1276},{""page_index"":29,""viewing_time"":1233},{""page_index"":30,""viewing_time"":1859},{""page_index"":31,""viewing_time"":5415},{""page_index"":32,""viewing_time"":4478},{""page_index"":33,""viewing_time"":4466},{""page_index"":34,""viewing_time"":6319},{""page_index"":33,""viewing_time"":653},{""page_index"":34,""viewing_time"":461},{""page_index"":35,""viewing_time"":2654},{""page_index"":36,""viewing_time"":2748},{""page_index"":37,""viewing_time"":2529},{""page_index"":36,""viewing_time"":732},{""page_index"":37,""viewing_time"":1067},{""page_index"":38,""viewing_time"":3205},{""page_index"":39,""viewing_time"":1089},{""page_index"":40,""viewing_time"":2030},{""page_index"":41,""viewing_time"":3766},{""page_index"":42,""viewing_time"":2146},{""page_index"":43,""viewing_time"":7262},{""page_index"":44,""viewing_time"":3025},{""page_index"":45,""viewing_time"":4639},{""page_index"":44,""viewing_time"":760},{""page_index"":43,""viewing_time"":971},{""page_index"":44,""viewing_time"":573},{""page_index"":45,""viewing_time"":4668},{""page_index"":46,""viewing_time"":2891},{""page_index"":47,""viewing_time"":1724},{""page_index"":48,""viewing_time"":3066},{""page_index"":49,""viewing_time"":1133},{""page_index"":50,""viewing_time"":1754},{""page_index"":51,""viewing_time"":4111}]","189092","","","","","","","","","","",""
"","","","","","instructions","5","250066","0.0-5.0","[{""page_index"":0,""viewing_time"":4621}]","4622","","","","","","","","","","",""
"true","false","[]","[]","[]","preload","6","259408","0.0-6.0","","","","","","","","","","","","",""
"","","","","","image-keyboard-response","7","264601","0.0-7.0","","5188","tutorial/task_familiarization_images/part 1/01_N160_K90_cliqueRight_question1.PNG"," ","","","","","","","","",""
"","","","","","image-keyboard-response","8","267445","0.0-8.0","","2842","tutorial/task_familiarization_images/part 1/02_N160_K90_cliqueRight_question2.PNG"," ","","","","","","","","",""
"","","","","","image-keyboard-response","9","269525","0.0-9.0","","2077","tutorial/task_familiarization_images/part 1/03_N160_K90_cliqueRight_question3.PNG","arrowright","","","","","","","","",""
"","","","","","image-keyboard-response","10","271336","0.0-10.0","","1807","tutorial/task_familiarization_images/part 1/04_N160_K90_cliqueRight_solution.PNG"," ","","","","","","","","",""
"","","","","","image-keyboard-response","11","276091","0.0-11.0","","4752","tutorial/task_familiarization_images/part 1/05_N160_K65_cliqueRight_question1.PNG"," ","","","","","","","","",""
"","","","","","image-keyboard-response","12","277848","0.0-12.0","","1753","tutorial/task_familiarization_images/part 1/06_N160_K65_cliqueRight_question2.PNG"," ","","","","","","","","",""
"","","","","","image-keyboard-response","13","279423","0.0-13.0","","1573","tutorial/task_familiarization_images/part 1/07_N160_K65_cliqueRight_question3.PNG","arrowright","","","","","","","","",""
"","","","","","image-keyboard-response","14","280848","0.0-14.0","","1421","tutorial/task_familiarization_images/part 1/08_N160_K65_cliqueRight_solution.PNG"," ","","","","","","","","",""
"","","","","","image-keyboard-response","15","282841","0.0-15.0","","1991","tutorial/task_familiarization_images/part 1/09_N160_K50_cliqueLeft_question1.PNG"," ","","","","","","","","",""
"","","","","","image-keyboard-response","16","284297","0.0-16.0","","1453","tutorial/task_familiarization_images/part 1/10_N160_K50_cliqueLeft_question2.PNG"," ","","","","","","","","",""
"","","","","","image-keyboard-response","17","286184","0.0-17.0","","1885","tutorial/task_familiarization_images/part 1/11_N160_K50_cliqueLeft_question3.PNG","arrowleft","","","","","","","","",""
"","","","","","image-keyboard-response","18","289267","0.0-18.0","","3080","tutorial/task_familiarization_images/part 1/12_N160_K50_cliqueLeft_solution.PNG"," ","","","","","","","","",""
"","","","","","image-keyboard-response","19","291290","0.0-19.0","","2021","tutorial/task_familiarization_images/part 1/13_N160_K80_cliqueLeft_question1.PNG"," ","","","","","","","","",""
"","","","","","image-keyboard-response","20","292294","0.0-20.0","","1002","tutorial/task_familiarization_images/part 1/14_N160_K80_cliqueLeft_question2.PNG"," ","","","","","","","","",""
"","","","","","image-keyboard-response","21","293611","0.0-21.0","","1314","tutorial/task_familiarization_images/part 1/15_N160_K80_cliqueLeft_question3.PNG","arrowleft","","","","","","","","",""
"","","","","","image-keyboard-response","22","295611","0.0-22.0","","1998","tutorial/task_familiarization_images/part 1/16_N160_K80_cliqueLeft_solution.PNG"," ","","","","","","","","",""
"","","","","","image-keyboard-response","23","300481","0.0-23.0","","4869","tutorial/task_familiarization_images/part 1/17_N160_K40_cliqueRight_question1.PNG"," ","","","","","","","","",""
"","","","","","image-keyboard-response","24","301887","0.0-24.0","","1405","tutorial/task_familiarization_images/part 1/18_N160_K40_cliqueRight_question2.PNG"," ","","","","","","","","",""
"","","","","","image-keyboard-response","25","304822","0.0-25.0","","2932","tutorial/task_familiarization_images/part 1/19_N160_K40_cliqueRight_question3.PNG","arrowright","","","","","","","","",""
"","","","","","image-keyboard-response","26","307828","0.0-26.0","","3004","tutorial/task_familiarization_images/part 1/20_N160_K40_cliqueRight_solution.PNG"," ","","","","","","","","",""
"","","","","","image-keyboard-response","27","310961","0.0-27.0","","3132","tutorial/task_familiarization_images/part 1/21_N160_K70_cliqueLeft_question1.PNG"," ","","","","","","","","",""
"","","","","","image-keyboard-response","28","312106","0.0-28.0","","1143","tutorial/task_familiarization_images/part 1/22_N160_K70_cliqueLeft_question2.PNG"," ","","","","","","","","",""
"","","","","","image-keyboard-response","29","312981","0.0-29.0","","873","tutorial/task_familiarization_images/part 1/23_N160_K70_cliqueLeft_question3.PNG","arrowleft","","","","","","","","",""
"","","","","","image-keyboard-response","30","314598","0.0-30.0","","1615","tutorial/task_familiarization_images/part 1/24_N160_K70_cliqueLeft_solution.PNG"," ","","","","","","","","",""
"true","false","[]","[]","[]","preload","31","318031","0.0-31.0","","","","","","","","","","","","",""
"","","","","","image-keyboard-response","32","330021","0.0-32.0","","11988","tutorial/task_familiarization_images/part 2/01_160_80_cliqueLeft_withFeedback_1.PNG"," ","","","","","","","","",""
"","","","","","image-keyboard-response","33","337047","0.0-33.0","","7023","tutorial/task_familiarization_images/part 2/02_160_80_cliqueLeft_withFeedback_1.PNG"," ","","","","","","","","",""
"","","","","","image-keyboard-response","34","338075","0.0-34.0","","1027","tutorial/task_familiarization_images/part 2/03_160_80_cliqueLeft_withFeedback_3.PNG","arrowleft","","","","","","","","",""
"","","","","","image-keyboard-response","35","341156","0.0-35.0","","3079","tutorial/task_familiarization_images/part 2/04_160_80_cliqueLeft_withFeedback_correct.PNG"," ","","","","","","","","",""
"","","","","","image-keyboard-response","36","346653","0.0-36.0","","5496","tutorial/task_familiarization_images/part 2/05_160_55_cliqueRight_withFeedback_1.PNG"," ","","","","","","","","",""
"","","","","","image-keyboard-response","37","362302","0.0-37.0","","15647","tutorial/task_familiarization_images/part 2/06_160_55_cliqueRight_withFeedback_2.PNG"," ","","","","","","","","",""
"","","","","","image-keyboard-response","38","366994","0.0-38.0","","4690","tutorial/task_familiarization_images/part 2/07_160_55_cliqueRight_withFeedback_3.PNG","arrowright","","","","","","","","",""
"","","","","","image-keyboard-response","39","370973","0.0-39.0","","3980","tutorial/task_familiarization_images/part 2/08_160_55_cliqueRight_withFeedback_correct.PNG"," ","","","","","","","","",""
"","","","","","image-keyboard-response","40","376635","0.0-40.0","","5659","tutorial/task_familiarization_images/part 2/09_160_70_cliqueLeft_withFeedback_1.PNG"," ","","","","","","","","",""
"","","","","","image-keyboard-response","41","382108","0.0-41.0","","5471","tutorial/task_familiarization_images/part 2/10_160_70_cliqueLeft_withFeedback_2.PNG"," ","","","","","","","","",""
"","","","","","image-keyboard-response","42","382876","0.0-42.0","","753","tutorial/task_familiarization_images/part 2/11_160_70_cliqueLeft_withFeedback_3.PNG","arrowleft","","","","","","","","",""
"","","","","","image-keyboard-response","43","386701","0.0-43.0","","3822","tutorial/task_familiarization_images/part 2/12_160_70_cliqueLeft_withFeedback_correct.PNG"," ","","","","","","","","",""
"","","","","","survey-html-form","44","405927","0.0-44.0","","19224","","{""gender"":""female"",""age"":""25""}","","","","","","","","",""
"","","","","","instructions","45","414988","0.0-45.0","[{""page_index"":0,""viewing_time"":9060}]","9060","","","","","","","","","","",""
"true","","","","","fullscreen","46","417748","0.0-47.0","","","","","","","","","","","","",""
"","","","","","canvas-keyboard-response","47","420869","0.0-48.0-0.0-0.0","","3022","","arrowleft","[176,287,284,36,159,68,181,64,112,28,224,121,212,86,165,157,266,61,198,268,208,75,168,65,179,45,262,275,252,41,130,31,248,10,253,273,47,283,152,150,125,8,278,32,55,52,58,134,214,1,153,162,231,102,14,128,9,291,185,178,148,27,163,133,138,210,87,175,95,92,119,193,101,234,235,131,245,7,236,151,147,89,203,182,105,171,279,286,117,11,24,88,106,297,90,141,50,209,49,220,83,223,54,104,187,269,154,67,63,73,39,173,247,38,46,227,108,99,25,270,186,219,107,238,29,172,298,77,192,167,70,191,81,204,15,2,233,264,265,243,170,230,206,156,109,114,277,3,69,98,239,42,6,218,211,20,222,258,62,299,116,136,60,281,255,26,115,215,228,123,254,143,161,189,110,4,142,79,13,146,78,71,124,30,155,100,126,74,240,66,242,174,43,113,18,12,127,96,94,244,80,200,237,251,35,280,232,226,213,149,118,135,91,202,194,56,166,59,207,259,34,216,19,37,217,158,48,145,137,249,103,169,0,33,76,246,184,164,295,250,294,129,296,51,57,289,5,285,276,180,256,241,97,40,177,229,183,196,23,257,21,263,274,271,199,190,188,72,132,22,111,292,160,267,293,201,221,205,120,260,122,282,197,93,261,16,225,44,17,85,84,288,144,272,53,139,82,140,195,290]","arrowleft","","true","0","0","90","300","[""0056_N0300_K0090_CLIQUE"",""0073_N0300_K0090_NOCLIQUE""]"
"","","","","","audio-keyboard-response","48","421790","0.0-48.0-0.0-1.0","","null","audio_feedback/right/coin01.mp3","null","","","","","0","0","90","300","[""0056_N0300_K0090_CLIQUE"",""0073_N0300_K0090_NOCLIQUE""]"
"","","","","","canvas-keyboard-response","49","428368","0.0-49.0-0.0-0.0","","6497","","arrowright","[6,170,248,219,187,142,126,65,113,80,87,77,63,124,128,108,17,118,83,191,282,147,143,2,175,73,163,156,60,28,66,233,93,150,162,35,45,184,13,294,207,161,185,290,240,234,31,144,15,12,97,55,183,272,214,283,149,49,189,256,227,36,270,199,92,295,201,271,171,160,114,52,211,119,96,139,82,166,190,277,194,242,220,79,5,121,117,59,197,286,205,236,44,267,195,155,135,39,288,216,204,51,280,179,146,27,279,62,101,23,225,269,273,230,134,22,260,221,165,258,263,299,241,209,46,131,47,140,208,54,67,226,222,123,95,215,76,176,218,88,11,244,100,266,43,116,75,188,50,287,102,122,86,297,10,68,278,192,177,7,109,281,182,137,238,243,29,99,154,159,275,203,0,104,217,138,89,231,250,110,19,265,1,40,14,141,69,213,168,284,41,237,127,181,106,64,180,9,255,24,261,239,38,252,20,16,42,169,145,56,74,120,264,81,259,193,58,202,129,246,25,158,78,173,151,206,167,107,132,32,212,136,276,254,268,232,37,253,130,289,198,262,53,61,292,125,33,298,228,34,153,274,71,85,296,152,178,133,148,94,98,257,84,105,3,26,72,103,249,21,48,229,251,4,210,18,112,90,196,91,111,200,8,186,224,174,245,172,30,164,291,115,57,247,285,157,223,235,70,293]","arrowright","","true","0","1","90","300","[""0075_N0300_K0090_NOCLIQUE"",""0084_N0300_K0090_CLIQUE""]"
"","","","","","audio-keyboard-response","50","428989","0.0-49.0-0.0-1.0","","null","audio_feedback/right/coin01.mp3","null","","","","","0","1","90","300","[""0075_N0300_K0090_NOCLIQUE"",""0084_N0300_K0090_CLIQUE""]"
"","","","","","canvas-keyboard-response","51","431373","0.0-50.0-0.0-0.0","","2317","","arrowleft","[277,168,182,236,245,24,293,13,55,120,157,264,93,230,262,134,159,292,148,202,250,110,259,122,216,99,183,33,95,123,8,252,81,285,0,261,226,83,64,54,43,214,90,149,288,276,249,195,176,108,20,140,294,253,56,275,181,212,129,295,117,233,7,12,133,201,32,21,111,35,10,243,203,208,15,171,279,104,299,263,45,62,257,180,260,173,23,86,166,36,60,119,137,139,155,221,143,25,88,290,74,161,242,272,187,121,37,135,186,70,97,77,42,17,167,66,63,232,87,269,131,76,124,198,94,136,109,71,284,113,38,204,240,238,228,170,125,197,107,289,270,114,2,31,258,266,19,142,22,101,84,298,267,268,72,158,52,28,265,235,92,211,287,282,218,175,189,185,164,51,50,9,1,130,85,200,205,179,44,98,103,154,105,53,239,144,102,177,291,18,4,190,152,116,223,29,244,48,196,65,151,234,209,69,27,156,184,30,193,68,255,115,61,75,14,215,132,248,286,220,222,278,153,271,128,80,280,58,199,40,165,229,57,59,246,47,78,231,73,207,273,247,296,192,219,217,163,145,82,178,100,118,34,79,162,16,106,6,213,112,274,5,26,191,227,237,3,256,224,160,283,46,141,172,89,281,254,225,241,188,91,96,194,150,297,206,39,11,251,49,174,138,147,169,146,41,126,127,67,210]","arrowleft","","true","0","2","80","300","[""0099_N0300_K0080_CLIQUE"",""0075_N0300_K0080_NOCLIQUE""]"
"","","","","","audio-keyboard-response","52","431993","0.0-50.0-0.0-1.0","","null","audio_feedback/right/coin01.mp3","null","","","","","0","2","80","300","[""0099_N0300_K0080_CLIQUE"",""0075_N0300_K0080_NOCLIQUE""]"
"","","","","","canvas-keyboard-response","53","432904","0.0-51.0-0.0-0.0","","831","","arrowright","[38,278,273,205,261,227,297,203,127,23,144,118,49,296,77,14,248,86,115,29,85,88,211,17,7,204,223,78,290,250,123,253,271,174,240,258,106,71,149,178,187,30,153,137,130,107,228,167,31,268,66,157,26,299,87,47,155,201,44,189,56,216,5,119,141,36,74,213,198,63,185,68,262,197,182,214,112,208,103,4,117,73,83,109,260,136,21,218,32,295,232,245,41,193,280,113,259,1,57,52,284,13,12,207,210,151,199,126,91,217,243,277,158,34,60,94,152,70,160,265,171,206,234,257,22,35,220,67,11,75,92,102,138,65,215,298,121,209,145,242,169,111,287,289,108,97,25,19,294,225,3,10,95,134,175,194,226,162,131,114,235,161,291,135,15,148,132,176,154,238,192,236,20,62,249,100,170,8,116,229,51,61,76,293,59,69,231,104,98,247,48,101,184,163,263,177,255,164,80,281,45,159,239,283,274,43,140,120,122,267,143,166,156,105,241,16,188,221,42,282,64,125,251,72,6,252,181,266,128,53,81,165,279,196,55,133,237,0,256,168,180,272,195,276,37,150,270,139,286,142,186,93,50,79,275,33,146,285,84,96,269,18,24,39,233,288,110,244,58,224,183,82,99,129,190,200,89,264,28,46,27,2,172,40,54,9,179,147,90,222,173,230,124,292,219,191,254,202,246,212]","arrowright","","true","0","3","80","300","[""0060_N0300_K0080_NOCLIQUE"",""0052_N0300_K0080_CLIQUE""]"
"","","","","","audio-keyboard-response","54","433512","0.0-51.0-0.0-1.0","","null","audio_feedback/right/coin01.mp3","null","","","","","0","3","80","300","[""0060_N0300_K0080_NOCLIQUE"",""0052_N0300_K0080_CLIQUE""]"
"","","","","","canvas-keyboard-response","55","434889","0.0-52.0-0.0-0.0","","1311","","arrowleft","[265,228,28,124,193,254,118,140,230,42,6,279,139,71,37,33,183,212,30,16,76,106,241,225,99,8,157,292,162,132,1,131,135,293,240,11,255,207,26,216,24,122,114,123,23,87,86,15,36,296,35,247,161,120,51,249,219,128,202,181,266,196,204,200,160,214,72,44,239,237,159,190,17,169,119,178,0,244,238,281,166,290,231,156,294,205,154,186,199,112,195,282,41,218,226,49,203,116,121,283,192,65,277,177,270,288,5,260,182,213,75,110,125,174,285,14,291,208,96,62,211,253,164,133,70,210,184,98,48,175,77,286,9,187,66,69,115,220,2,12,273,50,217,198,171,146,3,172,234,209,155,276,233,107,179,22,147,61,297,18,101,38,158,80,136,82,20,95,153,94,188,141,43,47,173,108,67,103,64,129,191,97,39,287,299,113,32,92,267,127,232,256,68,45,78,289,248,58,236,242,145,73,189,243,74,151,25,150,40,142,56,126,143,90,54,111,201,149,206,215,298,284,246,221,83,165,272,134,7,235,176,79,229,222,262,59,168,197,89,91,170,257,295,10,85,278,93,57,224,52,81,163,84,268,109,29,27,144,148,60,117,31,261,63,185,46,280,259,264,34,138,21,104,55,100,53,271,274,180,102,167,252,258,88,194,227,245,13,269,105,152,19,223,250,4,251,137,263,130,275]","arrowleft","","true","0","4","70","300","[""0023_N0300_K0070_CLIQUE"",""0066_N0300_K0070_NOCLIQUE""]"
"","","","","","audio-keyboard-response","56","435513","0.0-52.0-0.0-1.0","","null","audio_feedback/right/coin01.mp3","null","","","","","0","4","70","300","[""0023_N0300_K0070_CLIQUE"",""0066_N0300_K0070_NOCLIQUE""]"
"","","","","","canvas-keyboard-response","57","437699","0.0-53.0-0.0-0.0","","2111",""," ","[33,69,13,211,110,153,1,80,292,15,51,44,235,71,229,162,144,258,158,241,100,32,79,84,255,108,284,164,138,277,114,240,38,278,225,226,83,296,282,217,175,150,283,106,266,55,176,179,104,244,293,219,227,267,2,252,34,209,116,45,93,50,30,239,88,118,147,75,76,180,167,129,92,41,196,66,186,3,191,181,208,107,178,89,291,203,214,49,194,122,91,133,212,281,238,223,87,160,280,204,222,128,146,126,52,215,11,139,187,260,140,288,271,259,94,159,172,72,168,287,4,70,207,42,20,96,265,131,230,24,97,22,145,37,234,127,253,121,141,257,109,200,197,254,242,269,86,27,136,81,9,190,276,275,210,206,64,237,65,6,58,295,236,82,182,102,205,248,17,61,137,40,151,95,202,249,192,29,74,36,19,184,298,21,171,185,216,279,177,224,199,125,201,243,14,149,220,60,62,134,274,246,268,263,183,8,115,251,120,16,231,101,124,157,213,169,154,99,28,67,47,174,198,218,48,189,156,286,155,233,297,148,232,228,59,294,57,188,170,111,299,68,56,193,132,152,166,73,261,195,256,273,173,117,31,272,63,7,262,0,143,123,112,130,245,221,285,90,135,46,163,250,23,53,119,103,290,247,12,43,289,142,270,26,85,165,54,35,264,10,78,25,18,113,39,161,98,77,5,105]","arrowright","","","0","5","70","300","[""0074_N0300_K0070_NOCLIQUE"",""0068_N0300_K0070_CLIQUE""]"
"","","","","","audio-keyboard-response","58","438492","0.0-53.0-0.0-1.0","","null","audio_feedback/shuffles/shuffle01.mp3","null","","","","","0","5","70","300","[""0074_N0300_K0070_NOCLIQUE"",""0068_N0300_K0070_CLIQUE""]"
"","","","","","canvas-keyboard-response","59","440380","0.0-53.1-0.1-0.1","","1822","","arrowright","[100,103,54,166,130,171,12,210,270,131,78,203,160,151,195,86,115,199,191,256,262,77,179,263,85,84,144,41,104,186,274,227,226,152,68,273,205,52,107,16,10,1,133,126,244,165,92,223,280,43,148,57,228,108,48,87,269,194,53,174,169,111,102,289,134,95,75,276,117,60,299,2,234,182,81,183,17,192,124,290,167,7,38,11,173,13,252,287,241,128,266,293,118,222,259,176,114,219,34,59,281,157,233,254,197,96,209,47,39,296,127,3,73,268,93,46,6,230,187,105,21,25,162,184,74,251,298,164,122,172,291,141,64,211,257,242,285,27,32,4,238,295,255,202,275,82,9,28,61,265,138,44,67,177,235,208,217,45,278,14,196,214,175,246,112,20,155,97,36,139,18,282,62,215,58,24,0,142,120,250,19,149,123,116,216,224,249,247,272,218,213,94,154,212,201,207,49,198,121,30,31,279,231,79,56,29,50,132,113,71,106,294,42,98,261,163,23,136,190,129,90,236,286,153,297,267,178,150,72,70,188,180,204,283,89,229,225,288,221,264,170,248,277,206,146,181,110,65,189,22,161,258,8,245,83,239,143,51,5,80,109,63,99,271,35,145,284,140,69,147,156,159,33,185,260,101,125,240,119,193,253,76,55,292,66,168,15,137,232,200,88,243,91,40,26,237,220,37,158,135]","arrowright","","true","0","5","70","300","[""0074_N0300_K0070_NOCLIQUE"",""0068_N0300_K0070_CLIQUE""]"
"","","","","","audio-keyboard-response","60","440992","0.0-53.1-0.1-1.1","","null","audio_feedback/right/coin01.mp3","null","","","","","0","5","70","300","[""0074_N0300_K0070_NOCLIQUE"",""0068_N0300_K0070_CLIQUE""]"
"","","","","","canvas-keyboard-response","61","443812","0.0-54.0-0.0-0.0","","2755","","arrowright","[160,296,250,214,53,75,277,3,199,128,13,210,213,266,82,243,262,240,116,278,97,275,212,132,59,230,187,85,2,163,193,215,155,99,269,231,256,29,257,23,83,129,54,30,114,276,259,62,172,274,294,36,93,217,148,56,197,79,94,265,233,12,188,66,47,154,100,227,288,109,286,111,40,76,165,32,293,261,223,121,72,218,164,244,50,289,45,295,161,1,185,267,95,87,238,239,37,224,195,170,176,113,16,206,120,204,287,39,150,51,180,67,260,279,220,80,69,25,284,263,181,273,41,143,208,192,175,15,229,174,226,57,237,31,21,190,86,26,179,298,130,89,189,198,282,158,138,157,78,4,10,249,125,119,122,246,107,283,28,58,46,73,136,27,84,203,253,228,254,42,38,105,112,131,135,235,11,49,146,248,297,281,43,236,245,173,64,166,61,159,48,91,202,7,6,168,0,9,137,101,184,183,81,191,211,234,17,151,272,205,221,139,44,252,92,118,117,207,52,70,209,177,71,20,115,127,34,18,268,171,194,142,77,241,285,133,104,225,200,149,102,126,19,291,88,74,35,162,103,140,271,178,242,290,153,251,8,60,258,219,22,292,24,68,232,222,216,123,196,14,65,141,108,156,167,110,55,299,280,264,134,255,63,152,98,106,201,270,33,90,5,182,145,186,96,147,247,124,169,144]","arrowright","","true","0","6","65","300","[""0053_N0300_K0065_NOCLIQUE"",""0094_N0300_K0065_CLIQUE""]"
"","","","","","audio-keyboard-response","62","444432","0.0-54.0-0.0-1.0","","null","audio_feedback/right/coin01.mp3","null","","","","","0","6","65","300","[""0053_N0300_K0065_NOCLIQUE"",""0094_N0300_K0065_CLIQUE""]"
"","","","","","canvas-keyboard-response","63","446373","0.0-55.0-0.0-0.0","","1861","","arrowleft","[3,127,275,297,257,99,197,102,100,93,181,198,252,293,269,67,233,146,214,126,134,58,114,74,22,66,44,18,35,32,268,256,87,216,61,235,78,122,234,150,157,291,149,209,40,57,52,278,189,207,174,248,41,250,199,51,271,159,131,48,47,103,26,116,190,42,183,139,180,265,224,76,64,286,238,266,152,140,125,240,220,168,27,39,192,6,156,82,221,170,121,247,188,14,81,210,167,21,13,86,166,196,284,16,107,112,132,223,141,178,11,213,123,294,130,281,0,187,151,279,111,241,85,296,245,79,138,106,133,70,222,142,217,73,272,36,12,77,124,43,236,228,147,270,202,60,258,205,244,144,173,24,160,201,75,119,282,145,34,65,7,95,255,264,176,8,285,169,287,184,164,55,163,20,1,239,226,177,208,91,50,298,59,88,15,2,172,212,259,206,137,161,227,90,158,56,68,108,23,242,218,289,182,5,215,113,277,98,292,229,101,154,261,33,92,69,89,115,290,10,109,117,31,249,204,54,110,283,105,4,274,299,25,9,72,243,19,30,179,71,63,148,185,200,162,295,288,195,53,193,280,251,153,135,230,203,186,273,143,260,128,94,84,17,96,262,263,118,37,80,254,219,28,253,225,175,194,231,276,97,62,104,171,49,246,191,83,136,237,267,155,38,232,120,29,211,129,45,165,46]","arrowleft","","true","0","7","65","300","[""0050_N0300_K0065_CLIQUE"",""0034_N0300_K0065_NOCLIQUE""]"
"","","","","","audio-keyboard-response","64","446993","0.0-55.0-0.0-1.0","","null","audio_feedback/right/coin01.mp3","null","","","","","0","7","65","300","[""0050_N0300_K0065_CLIQUE"",""0034_N0300_K0065_NOCLIQUE""]"
"","","","","","canvas-keyboard-response","65","448001","0.0-56.0-0.0-0.0","","942",""," ","[67,254,1,80,188,59,10,14,253,190,225,269,110,159,236,182,242,166,53,198,13,32,144,244,15,122,184,261,264,140,16,73,51,297,87,89,252,118,63,135,99,187,194,106,294,28,155,208,260,139,81,268,76,162,61,158,271,3,298,113,164,165,64,283,206,79,116,68,209,137,256,105,174,177,84,115,46,211,255,92,75,37,241,197,17,24,91,109,228,193,40,153,179,218,98,97,47,88,219,262,123,245,203,7,72,263,55,192,170,233,296,127,167,267,183,221,19,163,200,119,227,157,44,185,131,120,27,142,18,149,202,288,230,212,96,74,258,239,77,286,205,180,150,43,128,49,134,71,38,111,293,45,69,237,42,2,251,48,102,104,207,52,299,62,50,4,82,284,85,289,214,250,143,175,282,243,34,132,101,25,141,136,94,273,229,12,249,220,275,257,9,274,126,191,213,26,90,78,178,103,160,57,107,31,266,121,114,39,259,246,23,265,226,199,291,112,29,33,235,95,0,171,290,173,100,117,217,54,210,222,129,36,204,156,232,145,280,151,125,181,66,189,216,152,8,70,231,108,133,285,172,270,148,41,154,215,124,138,21,272,201,35,247,146,277,83,292,86,223,279,65,176,5,186,30,60,295,195,161,278,20,93,56,11,169,240,287,6,130,58,248,238,147,22,168,281,276,234,196,224]","arrowleft","","","0","8","60","300","[""0079_N0300_K0060_CLIQUE"",""0055_N0300_K0060_NOCLIQUE""]"
"","","","","","audio-keyboard-response","66","448792","0.0-56.0-0.0-1.0","","null","audio_feedback/shuffles/shuffle01.mp3","null","","","","","0","8","60","300","[""0079_N0300_K0060_CLIQUE"",""0055_N0300_K0060_NOCLIQUE""]"
"","","","","","canvas-keyboard-response","67","451759","0.0-56.1-0.1-0.1","","2886","","arrowleft","[100,54,270,220,256,183,121,296,279,138,173,36,25,99,29,143,252,212,119,16,95,255,207,156,74,116,101,43,179,217,42,155,87,195,247,188,284,19,145,9,191,292,49,205,293,137,65,152,223,184,18,163,269,294,177,257,96,254,281,234,209,39,235,178,154,299,225,41,146,170,150,246,120,17,227,276,197,90,168,174,242,196,132,86,151,261,82,263,8,111,3,203,236,274,110,125,21,52,79,1,230,275,68,66,250,214,113,44,73,135,104,147,128,148,285,129,185,271,118,126,71,289,124,28,84,70,139,47,169,159,23,189,216,241,166,222,58,165,77,298,291,253,144,218,56,114,34,200,130,131,158,164,172,105,167,180,215,141,107,78,287,282,297,80,61,59,109,248,15,94,277,190,51,213,26,262,249,81,14,35,182,181,202,97,60,46,134,149,27,224,229,295,187,140,266,199,55,278,208,219,283,10,89,198,91,33,161,37,83,20,53,206,280,32,103,231,98,228,221,237,133,251,260,233,267,24,142,45,192,75,76,265,6,13,290,204,160,244,239,31,2,48,232,106,273,5,258,127,153,272,67,112,123,69,122,226,193,88,85,92,162,115,268,264,288,64,175,245,240,4,11,259,108,210,136,194,102,93,22,238,63,211,117,243,38,201,157,176,30,7,12,0,186,286,171,62,50,40,57,72]","arrowleft","","true","0","8","60","300","[""0079_N0300_K0060_CLIQUE"",""0055_N0300_K0060_NOCLIQUE""]"
"","","","","","audio-keyboard-response","68","452373","0.0-56.1-0.1-1.1","","null","audio_feedback/right/coin01.mp3","null","","","","","0","8","60","300","[""0079_N0300_K0060_CLIQUE"",""0055_N0300_K0060_NOCLIQUE""]"
"","","","","","canvas-keyboard-response","69","454196","0.0-57.0-0.0-0.0","","1759","","arrowleft","[141,13,103,105,20,26,98,91,182,228,44,60,284,174,276,132,80,138,222,253,264,68,282,209,89,5,45,18,262,128,84,52,177,39,23,87,194,122,121,65,102,8,62,48,226,254,70,248,150,278,101,241,158,71,76,256,153,272,130,169,19,0,170,206,142,239,123,156,148,96,114,4,29,155,180,294,289,95,160,188,196,83,203,227,216,230,191,81,181,56,111,131,260,270,146,41,36,112,67,82,212,251,49,17,33,211,73,14,261,224,185,250,292,51,266,175,245,242,32,94,275,210,86,171,15,119,263,61,53,265,198,295,187,54,30,183,257,104,110,279,63,12,37,74,162,281,247,207,243,268,283,72,115,145,236,195,199,176,88,127,97,186,58,66,109,204,172,147,124,113,197,273,168,139,134,6,231,16,106,201,9,21,258,40,240,28,1,42,151,215,229,79,55,165,208,120,100,234,93,167,225,78,7,218,99,217,163,43,293,202,133,69,149,255,205,299,277,249,22,237,92,108,154,244,233,27,280,235,267,252,193,192,64,137,117,287,50,31,200,11,274,140,220,157,161,116,298,164,296,219,213,271,189,85,179,107,136,10,223,75,159,129,184,34,285,59,286,152,221,166,125,291,269,232,24,118,57,173,90,144,214,135,290,238,297,46,288,190,38,126,3,77,259,25,178,246,143,47,35,2]","arrowleft","","true","0","9","60","300","[""0053_N0300_K0060_CLIQUE"",""0047_N0300_K0060_NOCLIQUE""]"
"","","","","","audio-keyboard-response","70","454812","0.0-57.0-0.0-1.0","","null","audio_feedback/right/coin01.mp3","null","","","","","0","9","60","300","[""0053_N0300_K0060_CLIQUE"",""0047_N0300_K0060_NOCLIQUE""]"
"","","","","","canvas-keyboard-response","71","456580","0.0-58.0-0.0-0.0","","1705","","arrowleft","[137,11,144,235,219,182,270,269,108,148,272,249,38,119,232,132,15,123,36,231,175,209,40,154,281,291,44,204,278,220,109,294,120,259,69,141,77,243,84,59,233,93,70,238,73,198,101,35,134,221,23,67,10,61,297,57,229,285,255,125,260,4,76,247,215,207,280,3,293,299,133,240,98,277,95,26,222,258,295,27,171,275,206,29,190,46,173,193,21,284,188,12,8,149,89,245,83,237,194,179,177,48,37,227,131,65,192,7,283,60,13,105,117,139,1,102,152,176,172,296,5,205,166,19,88,62,124,30,0,196,126,122,78,218,202,116,90,184,228,276,45,147,197,31,33,251,156,2,50,189,268,150,242,213,288,135,107,151,290,170,114,136,63,97,103,178,66,248,51,236,273,140,199,216,271,183,187,159,47,68,262,201,241,127,129,28,223,286,104,17,167,96,52,87,25,55,142,92,164,112,225,115,145,265,217,128,230,113,9,130,34,81,298,82,24,74,224,155,91,138,274,118,239,100,43,58,161,208,252,214,210,41,94,195,75,287,168,79,163,39,158,160,254,279,42,18,289,174,181,186,106,211,169,110,250,71,203,32,64,226,180,200,256,244,56,6,165,86,185,253,80,267,85,261,72,153,121,266,49,257,16,22,14,111,246,162,191,157,234,292,146,264,53,263,20,143,54,212,282,99]","arrowright","","false","0","10","55","300","[""0069_N0300_K0055_NOCLIQUE"",""0019_N0300_K0055_CLIQUE""]"
"","","","","","audio-keyboard-response","72","457392","0.0-58.0-0.0-1.0","","null","audio_feedback/wrong/error01.mp3","null","","","","","0","10","55","300","[""0069_N0300_K0055_NOCLIQUE"",""0019_N0300_K0055_CLIQUE""]"
"","","","","","canvas-keyboard-response","73","458773","0.0-59.0-0.0-0.0","","1316",""," ","[71,257,5,194,13,135,277,275,54,217,55,200,273,229,279,187,118,83,218,147,148,128,18,296,74,222,215,115,29,43,114,294,150,239,193,52,254,190,17,264,97,100,233,86,28,291,212,36,87,199,195,288,40,7,3,292,175,225,203,255,37,9,220,14,32,116,149,205,19,30,210,65,223,57,241,103,90,263,123,98,10,69,92,49,287,84,260,236,119,189,47,177,261,11,16,293,185,110,1,66,138,67,58,139,132,235,271,259,152,159,295,99,285,39,219,51,122,186,50,232,165,176,248,140,63,23,211,117,251,192,270,214,164,184,172,246,171,157,127,42,143,153,104,299,56,81,188,62,38,231,230,179,243,44,173,158,207,156,234,133,204,226,129,21,282,124,15,12,278,154,33,280,237,26,197,8,213,95,198,178,6,53,224,269,130,96,266,78,170,146,73,61,181,144,182,163,102,2,120,109,145,126,166,125,89,167,64,151,238,82,101,60,94,206,91,286,227,284,41,70,0,252,228,249,183,202,27,289,168,274,134,161,24,76,247,77,216,191,258,201,46,80,142,169,244,59,245,281,283,93,242,253,262,105,108,75,196,160,137,113,297,85,112,48,131,121,141,268,35,31,250,162,25,20,272,240,290,265,256,155,34,221,180,136,68,22,107,111,4,267,106,209,298,72,208,276,174,45,79,88]","arrowright","","","0","11","55","300","[""0089_N0300_K0055_NOCLIQUE"",""0065_N0300_K0055_CLIQUE""]"
"","","","","","audio-keyboard-response","74","459552","0.0-59.0-0.0-1.0","","null","audio_feedback/shuffles/shuffle01.mp3","null","","","","","0","11","55","300","[""0089_N0300_K0055_NOCLIQUE"",""0065_N0300_K0055_CLIQUE""]"
"","","","","","canvas-keyboard-response","75","463142","0.0-59.1-0.1-0.1","","3524","","arrowleft","[269,285,46,188,116,214,60,278,253,215,87,296,279,7,144,12,65,170,74,182,166,115,167,32,102,123,56,38,97,277,294,43,238,91,134,45,149,27,247,181,288,241,157,17,82,146,175,252,177,81,130,201,202,232,96,84,245,291,237,205,152,292,228,121,207,160,260,143,137,263,268,9,221,2,18,89,100,274,267,196,230,248,153,108,163,216,148,78,266,68,88,8,176,139,297,195,76,280,168,58,272,150,295,190,39,4,213,244,198,219,138,246,136,24,199,5,62,209,225,164,233,6,111,162,217,103,86,281,262,30,51,1,13,180,92,258,48,249,159,141,33,210,208,50,299,83,75,85,72,243,257,49,135,69,169,80,293,223,186,165,37,158,183,67,128,16,161,41,11,287,145,192,206,204,55,140,133,234,270,194,23,155,264,131,34,3,61,222,250,57,142,289,224,42,227,132,171,110,298,290,185,124,261,129,174,212,271,187,93,26,114,147,118,112,242,265,71,22,126,36,239,193,255,40,104,259,35,275,284,226,229,286,200,218,191,107,10,54,90,113,235,189,66,220,47,256,120,282,197,52,59,203,31,184,240,79,21,117,151,179,283,178,231,28,106,236,20,105,156,53,254,77,276,273,127,19,25,251,73,44,154,29,15,125,101,63,173,14,122,0,70,99,98,119,172,211,64,95,94,109]","arrowright","","false","0","11","55","300","[""0089_N0300_K0055_NOCLIQUE"",""0065_N0300_K0055_CLIQUE""]"
"","","","","","audio-keyboard-response","76","463934","0.0-59.1-0.1-1.1","","null","audio_feedback/wrong/error01.mp3","null","","","","","0","11","55","300","[""0089_N0300_K0055_NOCLIQUE"",""0065_N0300_K0055_CLIQUE""]"
"","","","","","canvas-keyboard-response","77","466134","0.0-60.0-0.0-0.0","","2130","","arrowright","[167,207,168,164,152,235,117,32,149,75,103,208,67,100,77,166,291,280,7,252,215,201,247,64,186,260,138,251,212,287,273,175,253,210,180,268,244,194,66,293,97,24,63,113,272,217,58,23,195,106,295,223,44,13,245,33,236,161,290,92,279,62,233,246,14,136,187,126,288,107,94,232,31,5,270,55,151,52,53,135,2,275,111,199,238,65,61,274,209,266,11,25,51,30,46,198,105,122,17,72,241,220,261,257,206,83,89,178,188,69,8,248,170,141,38,259,146,219,242,85,9,263,29,112,123,200,37,73,281,226,172,229,3,45,299,267,173,150,71,283,87,277,163,80,70,15,82,153,39,137,285,40,47,169,234,0,1,174,129,84,228,192,81,221,230,35,26,4,240,76,297,90,157,237,216,196,265,165,185,190,239,143,27,127,132,110,68,56,96,19,243,134,57,193,145,159,255,109,227,49,144,202,296,114,128,262,269,250,181,184,205,214,182,222,130,278,218,148,22,158,177,133,28,50,256,203,231,125,118,91,142,289,197,211,264,74,225,160,21,204,154,116,54,258,121,78,12,93,34,41,115,140,294,86,20,249,79,36,124,6,104,59,179,176,191,131,60,139,189,156,282,171,42,213,101,284,18,108,162,120,43,102,298,276,88,292,155,99,271,98,147,95,286,16,224,10,254,119,48,183]","arrowright","","true","0","12","50","300","[""0043_N0300_K0050_NOCLIQUE"",""0015_N0300_K0050_CLIQUE""]"
"","","","","","audio-keyboard-response","78","466754","0.0-60.0-0.0-1.0","","null","audio_feedback/right/coin01.mp3","null","","","","","0","12","50","300","[""0043_N0300_K0050_NOCLIQUE"",""0015_N0300_K0050_CLIQUE""]"
"","","","","","canvas-keyboard-response","79","468661","0.0-61.0-0.0-0.0","","1842",""," ","[4,227,132,68,5,121,244,117,251,298,98,214,44,144,103,90,148,70,160,147,267,172,120,20,299,269,141,156,233,128,82,159,178,196,229,84,34,94,78,263,255,284,155,40,71,85,16,201,89,12,11,39,260,174,256,296,38,131,241,93,293,281,138,230,33,261,137,162,253,288,167,163,139,113,100,273,37,17,36,257,252,188,42,86,116,186,114,266,223,35,239,83,133,152,60,124,292,111,199,80,191,151,276,24,206,108,211,204,0,150,28,193,54,295,75,236,43,280,6,274,158,65,198,216,136,248,249,154,61,41,231,210,142,212,143,208,185,30,215,297,149,146,63,96,294,32,287,112,87,183,217,164,166,67,51,238,145,126,286,46,207,161,275,56,109,8,105,48,74,91,101,92,234,283,129,194,9,1,140,72,222,219,31,195,187,182,209,184,272,2,135,50,123,52,7,118,289,22,197,97,125,243,64,10,265,53,220,157,179,271,29,247,250,218,282,258,246,76,73,262,290,104,107,242,49,47,240,245,175,110,115,77,225,21,228,66,259,95,268,180,190,176,25,127,23,203,181,99,291,168,3,79,62,169,170,14,173,237,232,226,134,57,254,213,45,235,264,200,224,59,81,189,278,119,19,153,58,69,165,279,192,130,171,177,102,18,122,55,221,106,27,205,285,270,88,13,202,15,26,277]","arrowleft","","","0","13","50","300","[""0050_N0300_K0050_CLIQUE"",""0086_N0300_K0050_NOCLIQUE""]"
"","","","","","audio-keyboard-response","80","469432","0.0-61.0-0.0-1.0","","null","audio_feedback/shuffles/shuffle01.mp3","null","","","","","0","13","50","300","[""0050_N0300_K0050_CLIQUE"",""0086_N0300_K0050_NOCLIQUE""]"
"","","","","","canvas-keyboard-response","81","471205","0.0-61.1-0.1-0.1","","1709",""," ","[211,124,174,90,65,291,252,259,55,106,287,94,11,236,36,83,145,42,276,142,59,171,144,136,230,17,261,267,172,221,18,39,273,10,102,256,117,270,121,222,189,275,258,184,290,4,33,255,257,213,293,111,23,176,133,75,253,198,101,238,24,135,296,137,76,146,151,31,60,9,91,237,122,68,294,93,188,168,191,110,80,233,62,147,8,219,181,266,187,116,263,48,81,243,195,173,44,71,164,100,26,49,107,98,201,127,280,260,224,274,56,118,272,120,115,209,109,226,182,193,283,21,19,292,1,103,47,246,112,0,95,46,61,63,78,215,180,192,152,77,130,297,268,7,105,79,140,20,150,161,288,204,228,244,15,6,202,185,157,84,153,128,212,235,126,97,216,3,289,286,43,139,229,2,85,149,134,262,285,51,96,67,250,269,264,29,217,220,53,279,183,125,37,227,58,179,169,178,22,104,282,87,123,271,158,34,52,50,234,73,25,129,113,206,207,74,249,28,254,232,13,99,299,205,143,241,277,208,141,69,197,242,89,16,239,218,203,247,159,40,225,41,114,210,194,245,12,200,82,186,54,223,295,278,32,119,162,148,108,154,251,265,92,156,298,64,70,281,196,57,160,5,14,27,240,66,167,231,45,138,177,175,165,163,214,30,72,248,132,199,190,284,166,86,170,38,131,155,35,88]","arrowleft","","","0","13","50","300","[""0050_N0300_K0050_CLIQUE"",""0086_N0300_K0050_NOCLIQUE""]"
"","","","","","audio-keyboard-response","82","471972","0.0-61.1-0.1-1.1","","null","audio_feedback/shuffles/shuffle01.mp3","null","","","","","0","13","50","300","[""0050_N0300_K0050_CLIQUE"",""0086_N0300_K0050_NOCLIQUE""]"
"","","","","","canvas-keyboard-response","83","473209","0.0-61.2-0.2-0.2","","1173",""," ","[225,7,123,244,86,166,192,18,257,124,172,16,231,178,245,252,109,48,127,43,40,59,194,20,8,219,77,21,104,296,82,51,139,220,207,247,34,270,117,196,4,197,115,38,28,191,15,228,256,282,42,79,54,176,173,294,263,187,234,63,213,11,149,10,130,265,158,269,95,287,297,215,25,87,267,202,84,211,91,183,233,31,226,118,107,240,23,0,76,67,156,37,281,39,255,186,85,253,157,26,175,27,89,167,230,204,57,190,222,70,241,135,218,274,101,250,299,227,216,64,205,88,147,292,9,99,286,145,238,293,179,162,261,201,5,295,280,284,151,58,131,2,111,203,254,55,73,249,277,36,50,136,229,41,75,132,181,90,112,137,98,49,208,83,266,258,235,182,177,74,184,239,29,60,114,159,138,103,161,143,56,100,170,140,96,97,271,155,53,209,268,153,199,214,160,217,17,206,92,69,273,174,289,189,68,45,285,24,102,133,35,80,106,66,212,126,116,168,108,200,81,52,105,44,61,46,141,188,119,148,122,290,134,144,221,165,260,210,33,171,30,121,152,163,125,1,236,243,72,283,237,154,246,3,198,120,94,12,248,276,129,232,78,291,279,275,262,47,242,6,14,180,110,193,146,164,71,128,22,278,19,93,62,150,224,13,251,288,169,298,65,272,223,259,32,185,142,264,113,195]","arrowleft","","","0","13","50","300","[""0050_N0300_K0050_CLIQUE"",""0086_N0300_K0050_NOCLIQUE""]"
"","","","","","audio-keyboard-response","84","473992","0.0-61.2-0.2-1.2","","null","audio_feedback/shuffles/shuffle01.mp3","null","","","","","0","13","50","300","[""0050_N0300_K0050_CLIQUE"",""0086_N0300_K0050_NOCLIQUE""]"
"","","","","","canvas-keyboard-response","85","477339","0.0-61.3-0.3-0.3","","3276",""," ","[121,118,290,194,240,229,4,92,42,148,84,174,117,210,190,239,75,243,74,59,78,65,35,255,247,202,268,271,267,16,146,173,43,58,107,246,143,204,168,214,132,189,299,108,207,83,291,95,289,284,298,273,17,62,196,223,128,232,187,24,64,66,278,100,249,120,276,297,10,259,251,19,119,96,221,73,205,111,138,134,166,261,102,177,70,209,263,135,193,217,56,149,103,288,125,258,97,2,60,15,227,101,114,6,109,286,7,71,34,179,90,164,192,277,215,169,152,87,178,235,162,20,237,231,208,14,13,44,91,265,116,220,197,253,130,29,122,12,275,21,167,139,18,219,141,182,28,0,294,8,81,260,88,172,153,30,234,285,85,163,31,195,158,226,46,238,211,230,213,126,105,200,150,136,270,57,82,170,244,137,188,33,147,250,165,55,1,281,293,25,157,50,67,206,252,287,86,80,274,292,159,279,61,110,241,113,76,266,269,112,69,106,257,151,123,104,228,186,191,9,222,49,38,183,201,176,272,171,212,218,54,264,154,185,94,160,23,280,145,41,32,40,283,175,140,248,181,155,79,233,131,224,37,93,124,52,142,98,39,45,282,51,225,72,11,22,180,296,256,89,184,198,242,36,77,133,115,127,295,216,5,199,262,236,27,48,63,99,68,156,203,161,3,129,26,144,245,254,47,53]","arrowleft","","","0","13","50","300","[""0050_N0300_K0050_CLIQUE"",""0086_N0300_K0050_NOCLIQUE""]"
"","","","","","audio-keyboard-response","86","478111","0.0-61.3-0.3-1.3","","null","audio_feedback/shuffles/shuffle01.mp3","null","","","","","0","13","50","300","[""0050_N0300_K0050_CLIQUE"",""0086_N0300_K0050_NOCLIQUE""]"
"","","","","","canvas-keyboard-response","87","479556","0.0-61.4-0.4-0.4","","1383",""," ","[249,4,228,186,225,294,69,280,160,282,14,286,106,127,50,276,116,142,205,169,76,203,180,244,12,154,190,0,42,74,212,135,207,257,16,131,275,261,134,230,102,267,299,241,82,287,290,139,240,140,148,176,83,24,27,218,221,43,23,216,278,251,53,149,22,71,105,164,28,220,85,67,222,20,36,11,163,104,298,15,34,95,204,89,258,117,48,259,264,189,130,136,272,281,270,30,237,295,197,64,208,100,115,213,52,296,10,123,227,291,158,231,233,260,129,209,179,266,8,153,98,46,113,2,137,236,235,59,111,18,187,171,63,268,284,77,25,248,289,126,66,5,256,61,56,161,196,214,279,90,223,173,170,45,283,181,44,167,93,297,49,37,162,293,215,157,101,229,242,175,217,133,177,3,146,292,232,166,35,128,17,234,183,91,121,57,143,87,41,155,119,7,9,224,273,195,265,247,54,159,60,206,147,124,40,201,151,29,288,219,269,1,125,185,68,211,182,172,114,19,210,188,277,97,246,198,73,21,202,174,108,238,168,96,26,274,132,99,250,138,65,239,31,79,285,200,150,262,94,156,110,145,81,51,47,118,86,58,271,70,122,84,255,38,144,80,194,13,39,245,254,103,226,112,165,243,6,263,55,152,62,109,192,191,120,107,199,92,141,72,178,88,184,78,253,193,252,75,33,32]","arrowleft","","","0","13","50","300","[""0050_N0300_K0050_CLIQUE"",""0086_N0300_K0050_NOCLIQUE""]"
"","","","","","audio-keyboard-response","88","480332","0.0-61.4-0.4-1.4","","null","audio_feedback/shuffles/shuffle01.mp3","null","","","","","0","13","50","300","[""0050_N0300_K0050_CLIQUE"",""0086_N0300_K0050_NOCLIQUE""]"
"","","","","","canvas-keyboard-response","89","481686","0.0-61.5-0.5-0.5","","1290","","arrowleft","[56,241,16,138,188,122,217,102,251,48,111,299,204,259,91,286,132,167,74,191,109,208,269,86,45,216,287,258,278,255,44,154,149,180,223,99,90,89,239,185,160,139,264,112,1,60,210,195,156,79,29,83,128,232,189,61,75,158,118,32,147,136,207,271,15,9,76,297,163,123,226,272,276,228,49,229,96,164,88,57,37,0,24,52,222,238,206,227,247,298,72,113,31,2,155,225,66,119,198,190,200,130,40,71,285,201,273,275,213,212,14,68,38,170,187,27,152,53,293,82,144,256,26,131,137,270,126,34,5,220,73,257,143,250,182,20,240,260,18,10,7,281,252,17,157,87,116,282,69,78,290,186,77,12,106,245,97,235,279,192,36,103,115,146,59,108,219,145,98,292,142,42,178,125,95,55,92,177,242,133,233,11,266,43,166,234,101,215,6,267,39,148,236,23,237,169,129,194,141,224,22,8,81,179,209,46,221,63,196,120,19,218,67,246,162,85,93,231,277,21,159,244,94,84,4,248,280,3,64,114,243,174,127,62,51,176,171,35,202,211,168,172,134,181,199,184,283,70,50,183,289,203,30,150,165,41,205,173,13,28,265,274,214,175,230,268,124,288,254,197,65,296,110,263,294,253,161,105,295,104,249,80,262,193,135,107,291,151,100,261,58,25,121,284,33,54,117,153,47,140]","arrowleft","","true","0","13","50","300","[""0050_N0300_K0050_CLIQUE"",""0086_N0300_K0050_NOCLIQUE""]"
"","","","","","audio-keyboard-response","90","482291","0.0-61.5-0.5-1.5","","null","audio_feedback/right/coin01.mp3","null","","","","","0","13","50","300","[""0050_N0300_K0050_CLIQUE"",""0086_N0300_K0050_NOCLIQUE""]"
"","","","","","canvas-keyboard-response","91","485343","0.0-62.0-0.0-0.0","","2987",""," ","[237,14,261,26,68,166,180,67,281,250,181,47,99,79,93,282,15,110,257,116,87,108,6,4,188,254,284,214,203,53,117,19,124,136,155,33,121,208,74,39,244,223,61,270,0,253,215,24,62,64,150,145,131,76,11,219,112,222,182,243,57,137,256,158,122,60,9,290,54,25,236,69,202,280,207,51,245,36,135,220,294,102,239,260,98,171,234,105,267,63,176,44,97,156,288,5,213,173,255,179,159,29,199,7,84,232,187,23,190,100,292,89,17,119,129,86,80,230,240,77,298,186,183,49,278,90,52,168,120,231,91,152,291,185,138,285,8,269,277,148,165,206,175,55,154,287,103,126,144,286,92,279,289,22,101,134,296,276,161,58,200,42,71,221,162,195,81,198,130,128,262,107,109,275,66,193,167,211,141,45,265,242,299,226,149,132,224,50,78,233,266,48,40,251,218,142,143,82,177,1,169,189,34,172,38,32,43,196,209,35,59,216,273,227,204,111,28,249,170,178,3,18,37,96,20,2,229,113,212,259,268,114,95,295,73,10,163,228,94,241,293,197,157,27,297,246,274,88,146,264,184,164,235,115,201,225,133,21,252,248,151,210,16,283,12,85,30,46,83,160,139,271,56,72,174,247,70,192,127,106,118,217,104,147,13,263,205,125,140,191,238,31,194,75,272,258,65,153,41,123]","arrowright","","","0","14","45","300","[""0089_N0300_K0045_NOCLIQUE"",""0080_N0300_K0045_CLIQUE""]"
"","","","","","audio-keyboard-response","92","486111","0.0-62.0-0.0-1.0","","null","audio_feedback/shuffles/shuffle01.mp3","null","","","","","0","14","45","300","[""0089_N0300_K0045_NOCLIQUE"",""0080_N0300_K0045_CLIQUE""]"
"","","","","","canvas-keyboard-response","93","487492","0.0-62.1-0.1-0.1","","1257","","arrowright","[102,265,160,44,53,67,274,282,230,228,12,199,23,278,94,219,22,267,185,43,299,157,167,289,60,54,149,78,59,163,77,205,18,186,91,131,291,192,257,115,117,15,79,263,100,50,165,279,158,196,202,118,164,184,223,288,293,42,82,243,297,235,153,172,150,41,213,85,145,130,92,69,47,207,142,7,209,68,103,35,220,273,146,65,183,34,138,114,180,168,107,226,4,266,124,253,276,181,198,176,46,254,49,261,246,179,126,287,188,262,123,285,83,239,269,275,252,112,238,104,125,173,286,280,96,76,140,190,294,93,177,191,81,122,71,256,106,236,66,63,25,247,248,26,215,45,87,264,30,221,251,201,169,290,143,214,108,73,21,88,2,5,255,193,36,283,147,178,259,57,159,136,1,144,39,58,175,260,233,241,13,222,9,203,271,84,80,38,182,111,119,89,211,170,135,148,128,227,162,277,154,113,200,132,206,99,37,97,249,134,129,237,16,216,295,292,245,101,231,240,212,64,155,171,32,217,8,10,187,11,166,116,120,24,161,270,204,95,137,56,208,296,121,109,225,75,29,152,250,244,86,31,139,218,156,189,141,14,51,298,17,28,258,70,90,72,19,194,3,174,61,6,284,98,232,0,224,27,268,229,52,105,133,74,33,62,20,234,151,55,48,242,110,195,281,127,40,197,210,272]","arrowright","","true","0","14","45","300","[""0089_N0300_K0045_NOCLIQUE"",""0080_N0300_K0045_CLIQUE""]"
"","","","","","audio-keyboard-response","94","488112","0.0-62.1-0.1-1.1","","null","audio_feedback/right/coin01.mp3","null","","","","","0","14","45","300","[""0089_N0300_K0045_NOCLIQUE"",""0080_N0300_K0045_CLIQUE""]"
"","","","","","canvas-keyboard-response","95","489364","0.0-63.0-0.0-0.0","","1176",""," ","[212,40,240,162,292,246,58,140,281,67,80,26,239,235,236,156,153,249,66,273,232,28,0,207,163,261,39,173,48,296,279,141,145,132,255,161,20,276,8,30,269,297,282,222,18,57,169,60,128,277,183,56,250,160,247,192,241,170,217,193,158,103,223,121,108,291,178,124,100,6,176,19,283,41,59,299,149,226,109,271,49,10,16,7,68,203,229,36,31,182,105,107,150,177,214,266,65,5,136,274,137,118,110,104,129,54,63,52,155,210,127,264,75,55,206,143,167,213,120,166,196,22,13,47,76,219,204,242,187,188,244,237,53,125,230,62,122,102,9,14,172,51,115,254,93,79,114,32,231,289,24,238,285,25,205,11,287,44,95,201,293,151,227,190,3,220,92,185,27,258,77,117,225,248,189,34,218,111,147,81,234,284,202,106,265,253,21,251,208,200,15,195,221,288,43,45,233,194,133,270,61,280,87,286,74,157,4,91,184,101,259,134,144,252,228,267,90,275,97,42,142,12,83,70,295,73,64,159,99,175,180,209,197,260,86,96,256,85,165,1,2,294,23,38,199,278,94,37,35,98,78,298,186,148,71,84,123,168,272,135,268,152,113,263,191,174,257,139,245,72,69,164,171,216,224,211,126,116,88,215,179,262,290,130,46,82,131,181,89,50,198,29,146,243,17,138,112,33,119,154]","arrowleft","","","0","15","45","300","[""0089_N0300_K0045_CLIQUE"",""0045_N0300_K0045_NOCLIQUE""]"
"","","","","","audio-keyboard-response","96","490132","0.0-63.0-0.0-1.0","","null","audio_feedback/shuffles/shuffle01.mp3","null","","","","","0","15","45","300","[""0089_N0300_K0045_CLIQUE"",""0045_N0300_K0045_NOCLIQUE""]"
"","","","","","canvas-keyboard-response","97","491117","0.0-63.1-0.1-0.1","","923",""," ","[67,89,78,182,287,241,170,38,232,249,10,136,126,105,280,163,140,185,197,104,70,119,144,14,274,24,31,59,4,132,252,44,212,194,9,156,40,150,66,27,229,238,298,237,99,138,106,64,178,123,264,288,279,36,82,143,225,61,216,291,39,54,292,65,81,28,95,42,19,96,160,187,84,79,114,227,155,73,97,267,251,268,175,63,118,180,172,72,277,260,263,85,5,26,116,113,222,295,293,30,7,77,209,207,224,107,16,198,208,171,281,257,159,289,184,41,22,98,261,270,228,69,52,231,133,235,124,13,75,195,15,243,131,35,122,296,32,48,62,130,8,174,165,129,152,282,149,200,12,242,125,3,151,272,168,47,135,92,221,154,146,68,88,215,148,233,139,217,275,246,285,250,186,11,244,258,71,247,183,20,202,158,169,86,6,253,269,190,53,204,128,21,153,286,297,58,166,206,203,55,276,51,196,34,214,177,50,162,108,29,37,110,188,57,25,278,189,0,94,234,120,145,101,230,290,218,87,33,254,56,23,157,211,102,117,226,76,49,147,17,142,255,46,2,100,176,236,93,161,1,191,266,219,127,240,43,294,199,283,245,193,213,259,256,60,134,45,141,284,220,299,262,115,248,90,210,205,74,167,111,80,192,164,83,265,239,181,179,137,103,223,109,18,201,112,121,173,273,91,271]","arrowleft","","","0","15","45","300","[""0089_N0300_K0045_CLIQUE"",""0045_N0300_K0045_NOCLIQUE""]"
"","","","","","audio-keyboard-response","98","491893","0.0-63.1-0.1-1.1","","null","audio_feedback/shuffles/shuffle01.mp3","null","","","","","0","15","45","300","[""0089_N0300_K0045_CLIQUE"",""0045_N0300_K0045_NOCLIQUE""]"
"","","","","","canvas-keyboard-response","99","492755","0.0-63.2-0.2-0.2","","793","","arrowright","[100,99,230,155,273,149,80,55,66,202,269,43,190,27,156,137,158,70,193,125,296,3,185,130,90,263,167,69,212,154,19,73,16,224,39,148,115,0,143,280,265,139,163,150,259,93,140,297,247,159,71,84,120,279,31,253,196,6,199,10,86,28,257,283,222,233,97,170,79,119,124,53,255,87,117,65,118,214,33,131,285,262,18,110,299,54,189,235,187,176,186,146,211,168,200,248,34,49,207,161,4,290,75,275,274,101,246,228,67,286,14,260,142,78,1,184,254,206,17,56,183,21,295,174,208,8,298,98,116,50,126,209,277,2,181,245,32,195,169,152,76,172,82,113,236,44,22,238,229,282,36,162,226,271,268,109,261,122,237,252,46,47,220,240,243,48,157,52,74,225,11,227,81,9,38,105,62,51,175,59,94,218,91,287,289,151,251,204,180,203,77,24,166,111,188,89,42,239,121,293,213,272,197,15,266,112,221,194,83,40,144,217,198,223,23,232,234,171,61,92,138,60,244,160,216,133,264,192,256,37,177,201,72,164,153,127,85,281,210,278,96,205,179,132,103,294,219,41,64,25,284,88,292,35,178,182,102,128,5,123,215,57,231,58,147,145,30,45,267,107,135,191,7,13,270,276,165,106,136,250,141,242,20,249,68,114,29,173,129,26,104,12,291,241,258,134,108,288,95,63]","arrowleft","","false","0","15","45","300","[""0089_N0300_K0045_CLIQUE"",""0045_N0300_K0045_NOCLIQUE""]"
"","","","","","audio-keyboard-response","100","493553","0.0-63.2-0.2-1.2","","null","audio_feedback/wrong/error01.mp3","null","","","","","0","15","45","300","[""0089_N0300_K0045_CLIQUE"",""0045_N0300_K0045_NOCLIQUE""]"
"","","","","","canvas-keyboard-response","101","495154","0.0-64.0-0.0-0.0","","1533",""," ","[17,71,26,7,70,289,21,297,145,263,299,163,195,179,167,171,220,249,0,38,14,143,184,236,142,20,242,223,216,119,189,210,268,19,87,276,74,270,272,164,41,128,75,258,132,247,2,46,67,30,172,260,237,91,250,34,288,286,37,100,116,133,256,129,248,160,61,162,282,298,44,114,277,63,64,81,90,98,265,130,293,12,221,170,273,238,15,88,51,192,193,134,159,230,235,264,47,200,104,29,89,199,78,28,27,228,125,77,54,158,188,82,190,202,4,194,92,110,227,49,72,156,267,9,146,204,62,174,255,8,284,271,287,135,22,253,147,111,136,79,257,219,53,80,149,94,33,198,139,281,214,42,206,234,55,23,5,182,187,124,150,85,246,76,127,259,50,69,186,141,274,86,32,154,97,224,279,109,58,196,102,45,203,60,278,275,137,157,73,176,59,107,155,115,217,180,243,6,48,266,3,131,165,152,240,120,113,99,24,175,215,1,261,211,178,83,118,209,65,25,117,290,205,148,140,181,169,245,294,218,225,183,231,285,244,93,144,212,153,16,208,283,40,68,108,191,18,161,112,84,126,168,241,166,123,232,10,96,101,95,201,280,213,103,13,39,252,36,122,57,229,66,52,254,197,56,11,291,138,173,105,177,269,296,239,251,222,207,121,106,295,292,31,262,185,35,233,43,226,151]","arrowright","","","0","16","40","300","[""0078_N0300_K0040_NOCLIQUE"",""0027_N0300_K0040_CLIQUE""]"
"","","","","","audio-keyboard-response","102","495935","0.0-64.0-0.0-1.0","","null","audio_feedback/shuffles/shuffle01.mp3","null","","","","","0","16","40","300","[""0078_N0300_K0040_NOCLIQUE"",""0027_N0300_K0040_CLIQUE""]"
"","","","","","canvas-keyboard-response","103","498102","0.0-64.1-0.1-0.1","","2101","","arrowright","[9,296,275,104,297,79,62,36,29,193,174,96,273,11,18,195,23,255,267,271,142,232,192,107,213,218,2,20,185,74,116,169,293,235,279,119,8,63,250,66,215,109,136,106,47,180,99,234,52,203,6,26,87,253,283,166,95,211,214,191,73,53,31,230,264,292,118,124,129,167,51,97,194,168,39,277,276,25,248,249,152,90,70,60,175,286,212,132,67,159,48,237,82,246,58,165,282,21,236,76,145,42,170,94,125,35,86,154,242,240,171,3,71,156,239,206,7,84,289,204,183,285,227,257,40,224,16,68,91,146,148,100,160,238,108,110,222,44,0,178,201,190,261,290,69,187,46,216,299,65,226,135,268,188,245,105,284,219,274,172,262,1,228,77,147,177,158,59,131,45,161,10,122,24,54,140,33,64,278,32,259,197,17,186,143,247,120,281,229,112,241,233,221,243,202,244,55,209,14,270,287,88,49,117,251,210,13,137,134,272,15,28,61,205,41,173,231,56,225,27,266,254,149,126,223,260,111,89,114,123,162,12,199,133,198,208,72,75,93,128,288,102,181,196,80,176,38,34,184,92,207,144,57,291,101,157,263,5,295,164,4,265,189,130,43,85,121,78,258,217,50,81,252,22,200,30,163,294,151,298,127,103,179,138,155,37,141,220,115,269,256,153,19,98,280,150,182,139,113,83]","arrowright","","true","0","16","40","300","[""0078_N0300_K0040_NOCLIQUE"",""0027_N0300_K0040_CLIQUE""]"
"","","","","","audio-keyboard-response","104","498714","0.0-64.1-0.1-1.1","","null","audio_feedback/right/coin01.mp3","null","","","","","0","16","40","300","[""0078_N0300_K0040_NOCLIQUE"",""0027_N0300_K0040_CLIQUE""]"
"","","","","","canvas-keyboard-response","105","499826","0.0-65.0-0.0-0.0","","1047",""," ","[87,254,200,24,103,120,284,92,154,115,125,128,1,263,249,272,137,298,222,247,299,66,61,282,5,144,96,42,170,34,114,188,146,178,105,112,292,130,158,46,163,240,181,243,142,2,206,166,193,90,208,30,26,198,165,233,211,8,265,45,274,147,225,20,123,153,236,177,157,277,47,139,134,218,197,94,124,102,255,285,226,52,49,99,150,48,107,185,69,261,74,64,164,273,111,168,201,259,11,192,60,266,35,190,67,212,204,86,257,291,187,151,251,83,246,290,149,98,189,279,7,79,77,264,108,140,23,199,296,232,40,276,85,53,252,213,80,14,179,297,171,138,121,19,283,287,0,205,253,16,101,78,161,223,242,174,194,152,57,176,136,72,148,21,129,231,28,122,55,235,9,93,13,31,244,110,288,97,51,180,73,230,217,145,68,109,162,271,250,135,248,118,141,59,182,12,39,260,245,295,104,269,81,280,267,56,89,173,220,203,175,184,70,62,224,237,278,37,156,215,119,191,65,38,143,3,229,132,63,228,36,210,196,58,195,29,10,91,27,216,167,238,41,82,286,219,227,275,15,17,207,117,186,214,294,258,202,209,22,75,18,241,127,76,281,54,4,133,84,221,33,234,268,71,43,169,25,106,113,289,131,160,100,159,183,239,126,256,88,44,50,270,155,262,32,172,6,95,293,116]","arrowleft","","","0","17","40","300","[""0088_N0300_K0040_CLIQUE"",""0054_N0300_K0040_NOCLIQUE""]"
"","","","","","audio-keyboard-response","106","500593","0.0-65.0-0.0-1.0","","null","audio_feedback/shuffles/shuffle01.mp3","null","","","","","0","17","40","300","[""0088_N0300_K0040_CLIQUE"",""0054_N0300_K0040_NOCLIQUE""]"
"","","","","","canvas-keyboard-response","107","501412","0.0-65.1-0.1-0.1","","755",""," ","[250,206,235,73,179,53,146,195,59,32,164,159,284,139,297,173,157,262,101,54,199,289,79,261,128,263,286,94,100,220,231,24,276,239,221,249,229,299,76,136,141,37,46,227,252,271,171,111,71,102,44,280,277,23,228,104,253,293,83,65,278,112,233,26,190,224,97,142,288,55,274,11,200,13,287,211,208,275,105,152,264,255,237,16,203,232,238,148,162,60,121,61,14,27,217,260,254,51,268,10,207,114,214,7,31,92,281,219,8,89,196,95,107,124,245,147,48,22,66,223,57,19,123,116,169,175,33,161,129,72,35,170,188,140,9,186,119,192,225,137,82,138,165,279,180,68,84,74,81,127,88,113,298,154,185,49,38,191,184,132,265,295,58,108,77,122,182,183,160,201,62,96,131,87,273,118,292,34,296,30,43,285,47,6,168,202,194,163,52,126,258,212,283,45,156,12,269,4,187,158,109,248,267,145,117,246,189,193,290,67,178,257,135,1,166,15,266,247,42,63,36,218,270,150,230,110,236,75,25,234,215,39,197,294,242,70,155,272,198,98,174,282,0,20,216,50,172,2,91,18,243,28,143,240,120,85,259,17,40,69,56,80,222,291,29,149,210,226,106,181,151,134,93,90,167,176,78,205,64,213,209,86,3,177,204,115,21,41,244,153,133,103,251,125,99,241,144,5,256,130]","arrowleft","","","0","17","40","300","[""0088_N0300_K0040_CLIQUE"",""0054_N0300_K0040_NOCLIQUE""]"
"","","","","","audio-keyboard-response","108","502193","0.0-65.1-0.1-1.1","","null","audio_feedback/shuffles/shuffle01.mp3","null","","","","","0","17","40","300","[""0088_N0300_K0040_CLIQUE"",""0054_N0300_K0040_NOCLIQUE""]"
"","","","","","canvas-keyboard-response","109","503332","0.0-65.2-0.2-0.2","","1078",""," ","[220,201,253,162,216,155,147,185,126,9,107,222,283,225,43,56,272,35,207,3,29,182,115,291,78,194,80,148,292,62,248,138,299,179,37,268,94,219,166,245,2,20,7,137,223,152,13,134,142,259,178,24,119,240,173,252,293,8,217,247,209,195,28,125,213,296,113,103,239,205,49,136,40,47,58,123,109,206,141,187,46,30,271,246,39,231,38,67,18,281,110,120,10,168,157,263,260,289,19,22,116,212,77,159,282,114,196,160,262,97,229,175,82,27,295,76,153,1,129,14,60,234,150,50,75,140,61,297,51,261,34,131,274,96,86,57,266,81,91,87,290,31,183,287,258,89,79,169,203,59,190,66,132,279,170,124,32,73,99,244,71,106,215,280,278,21,257,238,199,233,100,130,52,270,269,265,88,63,121,45,111,33,53,221,17,256,237,163,251,108,16,191,122,218,204,25,64,255,210,146,186,154,242,0,285,26,4,151,135,127,273,69,70,171,180,189,208,294,284,161,267,145,200,276,174,48,158,227,42,84,54,288,6,72,101,117,5,93,264,241,104,85,250,193,211,133,98,15,181,23,298,228,144,36,230,214,235,90,177,12,167,275,83,105,197,143,44,202,192,65,149,176,112,165,254,139,232,226,286,41,74,128,277,198,164,172,118,236,11,243,188,224,92,95,55,68,184,249,156,102]","arrowleft","","","0","17","40","300","[""0088_N0300_K0040_CLIQUE"",""0054_N0300_K0040_NOCLIQUE""]"
"","","","","","audio-keyboard-response","110","504114","0.0-65.2-0.2-1.2","","null","audio_feedback/shuffles/shuffle01.mp3","null","","","","","0","17","40","300","[""0088_N0300_K0040_CLIQUE"",""0054_N0300_K0040_NOCLIQUE""]"
"","","","","","canvas-keyboard-response","111","504958","0.0-65.3-0.3-0.3","","776",""," ","[8,244,250,172,102,93,151,181,38,85,40,204,68,213,11,129,16,275,124,21,271,147,58,31,247,170,270,173,20,126,255,199,90,281,73,162,188,79,219,53,69,72,61,59,30,221,17,84,249,26,266,140,193,27,237,142,245,205,67,290,144,4,88,243,35,235,168,202,49,171,135,264,115,28,283,175,46,227,195,236,291,98,185,155,81,5,163,197,228,122,138,259,208,176,288,125,231,261,39,54,267,136,114,120,42,157,192,100,76,83,179,287,223,108,263,29,298,37,294,226,299,55,10,80,268,207,47,127,41,44,52,178,284,89,217,121,186,50,167,149,62,153,296,232,248,24,198,274,200,152,143,101,77,6,19,32,150,253,191,25,278,13,180,139,123,99,137,165,272,15,82,174,87,164,116,158,106,117,279,222,297,177,190,209,119,286,156,206,258,132,94,57,160,12,182,130,289,3,189,64,230,71,183,95,293,216,75,218,66,256,0,251,148,194,210,201,60,45,273,92,118,107,97,229,86,48,23,36,238,265,252,134,104,203,2,285,211,128,225,105,145,242,22,109,234,246,9,96,240,280,56,65,159,133,257,146,187,1,74,110,161,112,295,113,154,169,18,70,215,239,277,14,196,262,220,7,166,214,103,276,63,43,224,33,111,51,282,212,233,254,184,292,78,269,91,34,260,131,241,141]","arrowleft","","","0","17","40","300","[""0088_N0300_K0040_CLIQUE"",""0054_N0300_K0040_NOCLIQUE""]"
"","","","","","audio-keyboard-response","112","505733","0.0-65.3-0.3-1.3","","null","audio_feedback/shuffles/shuffle01.mp3","null","","","","","0","17","40","300","[""0088_N0300_K0040_CLIQUE"",""0054_N0300_K0040_NOCLIQUE""]"
"","","","","","canvas-keyboard-response","113","506754","0.0-65.4-0.4-0.4","","939",""," ","[105,278,50,207,65,13,257,232,145,28,245,240,147,149,167,117,15,286,274,116,57,121,254,188,71,59,6,98,66,118,95,125,97,115,39,185,276,177,68,204,235,83,119,241,193,183,20,173,101,78,298,186,46,255,38,261,48,90,134,142,133,209,230,264,284,267,164,87,62,202,21,140,279,210,195,144,19,187,295,191,263,77,162,217,196,211,35,86,49,44,242,146,233,122,169,252,82,244,100,250,88,159,253,84,109,139,138,160,29,190,249,85,273,127,259,247,93,34,52,11,158,2,53,299,199,94,229,224,143,10,238,297,152,126,103,289,271,189,18,8,61,40,60,198,174,176,296,5,81,265,231,3,129,42,72,206,208,36,148,73,91,225,256,243,55,113,205,175,130,128,200,166,135,239,292,262,120,22,112,154,219,237,184,108,223,153,64,251,228,171,56,111,291,248,234,285,290,270,281,236,106,136,165,272,269,282,201,222,218,178,150,216,45,43,203,76,7,194,70,161,80,1,24,258,212,99,197,30,27,170,226,58,41,31,293,79,172,96,179,37,131,132,74,14,192,168,182,151,221,155,16,102,287,17,181,0,294,156,137,107,180,268,54,275,283,280,288,12,260,63,51,124,47,4,277,141,215,114,89,157,26,32,163,67,123,213,33,75,220,266,23,9,227,246,69,104,92,25,110,214]","arrowleft","","","0","17","40","300","[""0088_N0300_K0040_CLIQUE"",""0054_N0300_K0040_NOCLIQUE""]"
"","","","","","audio-keyboard-response","114","507534","0.0-65.4-0.4-1.4","","null","audio_feedback/shuffles/shuffle01.mp3","null","","","","","0","17","40","300","[""0088_N0300_K0040_CLIQUE"",""0054_N0300_K0040_NOCLIQUE""]"
"","","","","","canvas-keyboard-response","115","508944","0.0-65.5-0.5-0.5","","1344","","arrowright","[54,236,56,134,242,218,265,82,257,20,135,10,204,131,247,189,38,258,23,68,93,44,240,174,266,78,88,63,237,137,150,165,119,210,222,132,64,22,9,197,46,77,188,212,40,221,224,191,239,26,85,177,158,0,184,28,260,125,127,15,104,200,273,193,287,279,112,36,267,115,168,286,147,268,139,21,178,95,252,154,27,19,163,62,91,13,34,14,179,103,52,160,114,113,213,292,2,226,157,29,102,217,294,59,274,70,106,140,42,289,208,128,256,55,76,255,100,175,275,209,66,285,4,295,109,198,263,261,277,162,190,24,203,228,192,94,159,296,282,232,81,169,39,186,84,89,156,251,173,245,229,155,11,6,83,133,278,196,171,288,299,8,271,223,111,107,290,269,5,291,262,96,69,73,122,124,249,281,244,53,215,246,101,216,152,87,151,195,235,75,185,65,233,138,51,270,129,1,86,41,121,182,183,90,225,241,231,67,32,187,7,145,202,161,118,206,243,43,99,284,146,3,74,167,60,116,149,211,72,253,12,31,92,220,172,280,250,57,49,18,50,248,153,166,37,276,272,148,176,61,234,80,97,30,136,298,98,141,264,297,181,45,117,144,205,123,143,142,130,199,170,120,126,201,105,219,180,17,71,214,254,293,207,194,164,230,16,25,33,79,35,227,283,259,58,110,47,48,108,238]","arrowleft","","false","0","17","40","300","[""0088_N0300_K0040_CLIQUE"",""0054_N0300_K0040_NOCLIQUE""]"
"","","","","","audio-keyboard-response","116","509734","0.0-65.5-0.5-1.5","","null","audio_feedback/wrong/error01.mp3","null","","","","","0","17","40","300","[""0088_N0300_K0040_CLIQUE"",""0054_N0300_K0040_NOCLIQUE""]"
"","","","","","canvas-keyboard-response","117","510857","0.0-66.0-0.0-0.0","","1053",""," ","[32,193,192,96,80,142,270,167,276,133,81,66,259,146,187,230,91,105,8,217,46,279,158,152,280,175,223,27,298,267,13,73,248,112,239,211,45,218,39,42,121,67,237,222,36,78,153,110,136,16,41,53,151,59,94,89,71,212,43,199,141,15,183,34,50,9,201,213,210,271,129,93,263,128,228,202,254,114,220,165,191,127,224,173,48,284,157,240,274,178,77,290,257,242,102,100,2,264,60,253,38,92,145,197,70,76,104,234,40,229,272,132,37,225,235,5,244,179,63,255,58,161,26,195,297,215,62,57,147,189,85,88,252,156,169,35,22,299,206,150,72,23,120,287,247,116,25,159,135,216,65,3,82,196,177,266,17,204,171,283,99,6,154,160,184,0,90,61,296,134,126,162,295,250,208,261,249,278,11,143,256,74,251,54,19,186,107,140,258,84,227,124,10,232,117,273,31,281,12,18,47,243,286,292,131,294,233,194,49,260,207,97,198,200,289,209,125,69,68,168,79,149,221,265,155,163,33,138,282,291,122,226,285,113,231,172,7,205,139,118,1,180,268,269,181,236,238,75,64,214,86,109,166,106,24,111,30,29,245,246,241,188,103,56,98,137,176,55,101,262,119,185,190,148,174,123,144,115,83,21,4,44,20,87,51,288,170,164,275,28,108,277,95,52,14,219,130,182,203,293]","arrowleft","","","0","18","35","300","[""0044_N0300_K0035_CLIQUE"",""0098_N0300_K0035_NOCLIQUE""]"
"","","","","","audio-keyboard-response","118","511634","0.0-66.0-0.0-1.0","","null","audio_feedback/shuffles/shuffle01.mp3","null","","","","","0","18","35","300","[""0044_N0300_K0035_CLIQUE"",""0098_N0300_K0035_NOCLIQUE""]"
"","","","","","canvas-keyboard-response","119","512479","0.0-66.1-0.1-0.1","","771",""," ","[270,5,200,58,102,195,212,236,120,280,268,152,161,140,257,75,298,293,16,8,25,250,32,283,241,111,13,181,226,94,133,148,234,38,231,30,266,19,101,170,116,83,232,198,91,230,146,163,11,210,192,258,1,264,160,93,36,244,57,87,131,227,261,56,20,282,253,40,97,26,213,86,205,45,110,193,295,145,14,137,194,99,122,191,185,53,221,68,171,59,201,219,206,70,135,289,235,121,176,46,245,240,262,260,162,296,215,134,168,78,217,80,130,71,44,228,216,254,202,150,105,4,174,223,259,103,114,49,128,207,263,279,199,106,273,158,47,276,35,9,109,165,218,76,272,292,100,22,180,184,72,182,285,177,278,166,42,291,98,74,271,224,175,277,64,63,287,66,151,51,149,286,119,239,3,275,123,281,124,256,12,255,108,55,62,186,127,169,189,79,290,118,37,125,274,15,147,297,249,129,88,48,29,188,69,155,126,141,82,81,7,21,132,187,90,52,173,33,142,113,246,220,265,196,284,222,159,197,154,164,167,61,2,18,10,190,117,203,138,17,77,31,144,43,39,73,233,208,104,248,60,34,183,247,225,156,251,136,153,107,95,294,252,242,179,267,288,112,204,115,209,28,41,96,54,172,23,237,92,269,67,6,178,214,85,27,139,299,24,229,211,157,0,238,65,50,143,84,243,89]","arrowleft","","","0","18","35","300","[""0044_N0300_K0035_CLIQUE"",""0098_N0300_K0035_NOCLIQUE""]"
"","","","","","audio-keyboard-response","120","513254","0.0-66.1-0.1-1.1","","null","audio_feedback/shuffles/shuffle01.mp3","null","","","","","0","18","35","300","[""0044_N0300_K0035_CLIQUE"",""0098_N0300_K0035_NOCLIQUE""]"
"","","","","","canvas-keyboard-response","121","515007","0.0-66.2-0.2-0.2","","1689",""," ","[258,219,206,19,193,136,257,54,181,158,28,226,123,114,127,106,285,167,205,216,241,62,49,208,189,73,6,282,184,284,174,281,24,270,171,96,161,259,283,252,278,225,271,4,198,210,110,33,288,47,217,50,70,32,86,269,144,244,135,178,254,182,248,109,13,256,38,113,263,57,273,23,213,157,140,242,264,142,155,22,36,168,261,108,120,180,21,103,195,35,14,207,43,187,76,25,92,230,159,26,88,139,79,203,46,18,60,267,280,152,126,162,124,253,131,156,249,191,298,87,77,222,160,176,134,266,55,98,118,147,215,69,296,199,243,218,183,15,85,51,164,125,197,154,37,268,293,138,227,245,107,1,41,105,95,111,247,149,84,44,145,202,42,228,16,82,9,91,238,214,209,204,5,128,0,201,200,151,66,89,119,115,68,194,137,39,299,240,31,237,3,232,17,75,122,196,212,132,275,20,276,279,177,291,172,112,133,251,10,58,81,102,129,153,27,294,169,130,185,63,12,192,221,286,7,163,30,234,289,255,262,146,188,94,104,224,179,235,2,190,56,100,272,53,45,61,165,295,72,229,141,292,64,211,175,74,220,236,260,166,65,233,71,80,67,223,170,265,117,239,29,250,277,274,78,83,246,11,231,143,93,90,116,186,48,148,52,121,150,99,297,34,97,290,40,8,287,173,59,101]","arrowleft","","","0","18","35","300","[""0044_N0300_K0035_CLIQUE"",""0098_N0300_K0035_NOCLIQUE""]"
"","","","","","audio-keyboard-response","122","515774","0.0-66.2-0.2-1.2","","null","audio_feedback/shuffles/shuffle01.mp3","null","","","","","0","18","35","300","[""0044_N0300_K0035_CLIQUE"",""0098_N0300_K0035_NOCLIQUE""]"
"","","","","","canvas-keyboard-response","123","517325","0.0-66.3-0.3-0.3","","1484",""," ","[48,253,254,140,221,25,228,229,29,204,94,61,137,159,210,295,271,93,4,152,275,6,160,12,279,247,250,32,106,287,86,77,117,108,200,125,63,17,135,53,251,261,277,75,56,84,161,55,183,22,134,299,182,54,9,136,268,23,154,199,297,237,120,156,266,298,59,76,269,190,169,257,16,144,145,69,239,170,215,8,185,211,171,81,158,35,258,1,41,288,118,293,240,99,189,146,83,238,233,89,202,255,276,24,19,235,72,207,201,155,175,186,14,194,49,122,227,26,213,177,219,172,246,88,82,203,95,206,60,78,36,100,236,274,198,103,129,180,262,163,187,273,10,193,285,217,226,124,150,241,27,242,164,280,70,222,57,195,115,188,286,65,283,113,178,87,284,270,58,64,232,121,33,157,278,256,184,212,294,208,38,73,47,148,92,128,179,214,282,127,42,43,176,289,2,130,62,149,181,147,220,91,116,252,248,68,153,111,45,272,224,197,168,196,90,67,249,30,139,292,132,265,209,7,143,50,51,31,66,291,244,98,296,173,138,245,28,191,97,133,44,74,37,162,11,39,112,102,80,151,123,3,126,231,109,290,5,110,13,18,218,101,114,234,40,142,119,71,21,259,46,267,105,141,52,107,104,0,96,281,15,79,34,223,243,264,20,192,230,165,166,263,167,85,260,225,131,174,205,216]","arrowleft","","","0","18","35","300","[""0044_N0300_K0035_CLIQUE"",""0098_N0300_K0035_NOCLIQUE""]"
"","","","","","audio-keyboard-response","124","518093","0.0-66.3-0.3-1.3","","null","audio_feedback/shuffles/shuffle01.mp3","null","","","","","0","18","35","300","[""0044_N0300_K0035_CLIQUE"",""0098_N0300_K0035_NOCLIQUE""]"
"","","","","","canvas-keyboard-response","125","519405","0.0-66.4-0.4-0.4","","1248",""," ","[229,75,138,214,263,1,259,40,177,158,202,110,142,281,16,153,49,33,272,253,96,73,269,143,139,84,216,70,21,249,66,18,39,152,148,299,6,79,128,99,112,37,223,122,240,86,53,173,162,182,3,48,7,31,54,25,50,155,52,193,100,283,276,268,93,270,64,44,258,59,8,170,174,291,261,227,239,211,257,237,282,23,230,150,85,165,274,71,260,123,117,220,45,65,238,149,205,104,35,296,228,156,58,232,116,203,195,121,28,51,295,94,278,67,273,285,172,186,80,134,171,234,19,169,106,267,47,242,293,190,161,181,145,4,107,119,154,131,29,225,219,191,215,250,197,297,69,218,277,22,144,132,105,83,115,201,196,226,289,26,189,118,11,294,90,244,38,235,199,168,92,126,284,188,137,236,98,245,109,24,146,204,81,14,60,209,46,212,127,68,262,12,89,233,246,252,251,56,101,114,76,95,63,208,17,141,255,135,151,55,130,125,184,265,111,292,9,113,241,13,185,61,221,42,72,20,288,10,120,129,124,0,32,175,200,194,5,77,178,160,192,167,183,97,210,88,180,271,207,102,36,82,74,217,62,157,15,264,247,57,34,290,213,30,43,164,133,159,286,224,166,140,287,231,27,91,248,187,87,280,41,275,298,108,256,176,222,266,78,163,198,279,2,103,206,147,254,136,179,243]","arrowleft","","","0","18","35","300","[""0044_N0300_K0035_CLIQUE"",""0098_N0300_K0035_NOCLIQUE""]"
"","","","","","audio-keyboard-response","126","520174","0.0-66.4-0.4-1.4","","null","audio_feedback/shuffles/shuffle01.mp3","null","","","","","0","18","35","300","[""0044_N0300_K0035_CLIQUE"",""0098_N0300_K0035_NOCLIQUE""]"
"","","","","","canvas-keyboard-response","127","521644","0.0-66.5-0.5-0.5","","1405",""," ","[33,137,189,221,260,128,55,121,164,32,122,86,117,71,261,264,133,243,257,274,64,49,271,146,194,139,265,156,291,151,60,93,17,2,10,238,66,222,56,298,252,286,225,284,281,199,223,141,294,160,178,37,148,85,95,159,175,103,231,234,166,48,97,129,65,113,29,119,219,108,196,105,161,203,145,153,22,287,188,283,9,169,279,94,269,241,220,18,109,167,24,206,163,136,172,228,183,280,110,198,63,147,214,158,262,176,31,244,7,67,193,69,57,83,35,208,165,230,227,19,250,270,23,236,134,174,118,3,12,58,224,62,68,70,98,135,91,266,34,218,80,217,84,132,235,92,277,140,150,232,171,273,229,212,130,195,88,112,192,288,247,75,289,200,237,297,282,275,61,268,11,213,267,152,43,155,82,242,44,209,89,40,124,256,162,179,53,248,0,182,116,1,210,36,52,186,173,245,143,102,74,14,101,251,16,20,254,50,131,190,51,149,25,144,38,28,81,276,204,197,184,138,76,181,123,278,125,253,142,180,293,285,154,6,233,111,90,177,73,45,54,46,30,272,299,296,78,39,120,185,211,207,168,201,100,127,79,290,59,27,72,42,170,246,191,249,87,26,8,263,259,115,157,114,295,4,41,126,106,107,215,202,104,239,13,5,258,99,96,292,205,255,240,21,187,226,15,216,77,47]","arrowleft","","","0","18","35","300","[""0044_N0300_K0035_CLIQUE"",""0098_N0300_K0035_NOCLIQUE""]"
"","","","","","audio-keyboard-response","128","522413","0.0-66.5-0.5-1.5","","null","audio_feedback/shuffles/shuffle01.mp3","null","","","","","0","18","35","300","[""0044_N0300_K0035_CLIQUE"",""0098_N0300_K0035_NOCLIQUE""]"
"","","","","","canvas-keyboard-response","129","523227","0.0-66.6-0.6-0.6","","746","","arrowleft","[111,262,181,239,277,145,39,2,189,206,256,50,223,42,165,164,45,209,116,207,152,79,98,249,117,237,124,268,93,36,77,13,81,131,71,91,89,62,172,198,100,185,28,226,44,167,155,174,217,149,156,16,173,196,70,5,108,222,147,19,95,179,137,215,141,284,276,78,295,170,55,119,272,294,40,128,221,49,138,184,248,257,292,146,35,104,1,105,136,291,51,41,66,187,30,97,34,264,168,142,265,242,298,72,229,96,107,9,150,109,204,83,253,269,86,273,46,202,212,65,112,176,103,48,140,190,235,234,143,238,114,18,261,195,247,7,17,56,23,161,182,278,115,24,263,293,246,73,8,33,200,224,260,157,280,12,219,177,14,130,60,180,158,254,274,218,270,113,296,139,169,134,99,94,29,53,214,67,43,118,279,54,227,153,151,10,132,159,283,258,191,106,192,213,38,122,220,52,259,299,31,133,135,47,68,85,6,82,63,193,287,127,250,123,166,228,15,3,154,241,88,240,61,211,203,289,183,194,236,171,205,4,267,0,210,125,90,255,271,281,188,244,74,57,252,37,208,75,178,288,64,11,282,186,266,297,27,230,162,110,175,148,285,233,20,69,243,121,92,120,163,232,201,84,21,197,25,102,199,80,231,160,251,216,58,101,32,286,275,22,290,87,144,245,76,126,225,26,59,129]","arrowleft","","true","0","18","35","300","[""0044_N0300_K0035_CLIQUE"",""0098_N0300_K0035_NOCLIQUE""]"
"","","","","","audio-keyboard-response","130","523854","0.0-66.6-0.6-1.6","","null","audio_feedback/right/coin01.mp3","null","","","","","0","18","35","300","[""0044_N0300_K0035_CLIQUE"",""0098_N0300_K0035_NOCLIQUE""]"
"","","","","","canvas-keyboard-response","131","524917","0.0-67.0-0.0-0.0","","999",""," ","[101,114,212,258,76,64,192,62,275,243,172,124,81,19,224,113,229,35,148,115,23,171,270,25,6,221,191,137,241,268,271,80,272,278,91,265,277,140,120,50,162,261,175,121,134,52,40,251,292,74,263,136,159,75,94,174,237,250,20,150,127,207,274,217,282,149,279,254,160,201,227,226,100,239,147,53,70,143,42,63,43,56,281,183,206,138,126,200,49,73,170,146,22,165,9,153,128,208,284,2,116,54,294,240,31,289,107,151,13,24,223,58,29,12,85,67,104,202,211,44,65,291,225,276,293,204,166,155,238,273,242,14,3,141,122,190,295,108,180,287,252,154,219,33,118,198,193,55,215,260,34,296,21,48,39,18,179,106,197,133,220,117,185,188,5,95,51,262,164,1,233,90,176,60,230,244,299,168,8,253,68,77,169,111,57,205,214,203,245,257,11,59,7,266,290,288,130,173,37,123,178,286,0,184,97,259,79,61,234,152,47,102,88,247,89,131,144,161,72,167,10,86,82,255,142,158,32,36,30,222,38,216,280,235,189,4,66,157,17,71,298,93,110,129,119,186,283,195,139,99,112,69,26,256,145,248,231,105,98,210,135,196,246,132,78,28,16,83,199,181,218,285,249,87,96,92,187,84,125,27,45,109,269,177,213,156,236,15,41,228,46,209,163,232,182,297,267,103,194,264]","arrowright","","","0","19","35","300","[""0081_N0300_K0035_NOCLIQUE"",""0005_N0300_K0035_CLIQUE""]"
"","","","","","audio-keyboard-response","132","525695","0.0-67.0-0.0-1.0","","null","audio_feedback/shuffles/shuffle01.mp3","null","","","","","0","19","35","300","[""0081_N0300_K0035_NOCLIQUE"",""0005_N0300_K0035_CLIQUE""]"
"","","","","","canvas-keyboard-response","133","527040","0.0-67.1-0.1-0.1","","1277",""," ","[171,266,96,145,28,261,76,102,276,61,227,140,35,131,245,103,249,244,134,41,232,50,46,280,235,200,53,93,15,243,112,237,187,110,77,21,17,14,119,197,173,65,47,260,170,99,242,210,52,214,116,105,57,55,177,98,8,172,72,168,167,153,251,6,163,144,196,217,241,84,157,64,264,68,138,186,221,139,152,159,154,295,263,192,247,291,125,253,182,176,166,255,81,128,216,32,175,252,136,25,184,285,230,86,40,94,246,85,284,274,275,269,267,270,127,111,161,169,289,190,31,62,101,58,281,33,225,135,71,254,3,143,206,122,198,238,80,211,88,2,11,39,10,141,45,7,13,95,236,179,19,296,219,0,107,48,209,5,91,224,87,215,59,287,34,201,27,203,160,240,70,195,239,283,208,202,178,212,12,162,97,43,24,174,220,133,222,147,259,146,67,199,234,228,44,258,18,288,158,205,37,22,256,60,194,26,204,89,155,193,292,82,265,290,114,257,56,286,75,149,207,130,120,189,181,151,63,9,1,293,74,38,113,298,126,16,183,78,129,218,268,213,294,277,250,124,142,30,123,188,106,233,226,165,83,156,164,23,137,185,36,90,29,4,108,229,273,100,49,73,271,282,248,79,278,20,223,115,51,121,299,104,109,231,118,150,54,66,148,297,191,132,42,117,92,279,180,69,262,272]","arrowright","","","0","19","35","300","[""0081_N0300_K0035_NOCLIQUE"",""0005_N0300_K0035_CLIQUE""]"
"","","","","","audio-keyboard-response","134","527813","0.0-67.1-0.1-1.1","","null","audio_feedback/shuffles/shuffle01.mp3","null","","","","","0","19","35","300","[""0081_N0300_K0035_NOCLIQUE"",""0005_N0300_K0035_CLIQUE""]"
"","","","","","canvas-keyboard-response","135","528600","0.0-67.2-0.2-0.2","","719",""," ","[79,99,46,87,286,27,232,114,31,187,112,9,11,95,61,227,256,293,294,261,289,36,51,24,109,152,59,83,266,221,81,82,145,16,8,201,205,268,10,2,189,299,47,29,297,170,134,267,248,101,184,1,22,208,57,183,108,207,194,14,94,119,50,63,213,251,175,26,263,77,210,4,193,272,0,246,73,260,238,128,281,126,172,56,188,240,202,78,220,154,150,257,231,92,180,91,96,296,65,137,280,103,195,151,148,179,217,55,80,66,39,142,168,93,273,6,62,209,282,204,199,181,235,230,100,234,279,85,135,45,258,43,48,269,191,165,214,116,111,265,229,176,5,21,138,252,192,233,237,60,291,161,13,182,37,177,198,163,255,136,212,206,124,115,35,243,241,144,107,88,32,271,123,64,125,25,167,69,52,215,288,120,158,250,157,74,226,200,197,133,155,262,70,118,15,140,75,259,18,290,132,44,276,219,292,105,166,224,17,42,153,295,211,169,67,190,40,139,129,228,54,72,222,283,20,86,254,185,76,225,164,174,285,162,178,97,239,244,284,104,149,38,33,28,143,113,173,278,264,147,122,203,277,30,49,270,89,98,68,287,34,245,102,218,242,275,236,253,159,110,106,156,298,58,196,130,141,146,127,186,41,171,7,249,12,3,247,53,274,84,160,71,19,131,216,223,117,23,121,90]","arrowright","","","0","19","35","300","[""0081_N0300_K0035_NOCLIQUE"",""0005_N0300_K0035_CLIQUE""]"
"","","","","","audio-keyboard-response","136","529373","0.0-67.2-0.2-1.2","","null","audio_feedback/shuffles/shuffle01.mp3","null","","","","","0","19","35","300","[""0081_N0300_K0035_NOCLIQUE"",""0005_N0300_K0035_CLIQUE""]"
"","","","","","canvas-keyboard-response","137","530757","0.0-67.3-0.3-0.3","","1320",""," ","[20,5,201,29,122,244,77,236,84,208,211,279,294,282,257,157,123,6,72,296,186,246,81,263,98,34,256,185,167,198,238,107,8,224,254,297,145,280,64,139,156,124,225,292,11,26,39,68,172,184,33,85,161,115,200,270,114,78,159,194,285,252,63,0,140,240,153,181,241,288,148,44,94,287,291,79,273,266,195,80,133,258,138,90,38,91,207,127,248,293,150,229,189,231,51,95,125,9,147,73,53,132,116,74,82,104,109,50,232,143,112,234,175,239,83,204,110,30,70,118,163,21,176,99,35,96,111,213,188,71,286,169,227,160,52,233,242,272,222,259,251,202,203,24,22,18,278,101,170,108,262,100,4,40,210,49,48,190,193,89,215,271,57,220,136,54,86,27,178,3,228,43,230,2,75,218,168,66,299,120,141,219,129,154,235,32,164,177,216,245,290,249,217,97,131,106,62,283,277,46,117,180,165,151,76,17,25,102,58,28,36,166,119,92,243,197,152,144,88,130,199,59,45,269,65,267,253,19,14,268,192,179,134,265,12,113,61,221,37,205,149,214,126,158,128,226,155,60,289,135,237,41,255,105,295,137,1,183,212,47,121,209,196,13,247,223,67,56,191,146,10,173,298,174,55,187,284,23,93,281,206,15,7,250,276,103,260,16,142,275,42,162,261,274,31,182,171,87,69,264]","arrowright","","","0","19","35","300","[""0081_N0300_K0035_NOCLIQUE"",""0005_N0300_K0035_CLIQUE""]"
"","","","","","audio-keyboard-response","138","531534","0.0-67.3-0.3-1.3","","null","audio_feedback/shuffles/shuffle01.mp3","null","","","","","0","19","35","300","[""0081_N0300_K0035_NOCLIQUE"",""0005_N0300_K0035_CLIQUE""]"
"","","","","","canvas-keyboard-response","139","536043","0.0-67.4-0.4-0.4","","4425","","arrowleft","[112,120,184,9,260,4,116,126,217,55,93,8,287,16,262,40,143,268,85,5,174,115,39,141,207,84,57,18,255,79,165,76,47,20,82,240,291,73,283,63,214,281,198,62,118,121,67,272,23,69,89,204,29,289,154,210,134,234,152,290,191,127,14,188,171,102,34,186,100,209,267,60,242,173,98,125,245,181,97,114,292,86,175,107,236,133,74,158,59,148,259,166,253,81,296,250,177,224,50,33,149,231,206,91,124,94,196,78,235,58,90,274,137,25,130,105,153,38,119,167,278,251,101,104,13,205,12,280,66,277,230,135,219,83,194,140,108,31,239,161,201,147,109,285,150,122,111,103,203,269,61,286,211,48,22,123,17,208,43,144,68,11,19,221,146,30,178,265,80,218,28,136,75,270,244,298,46,176,288,15,95,160,71,213,247,106,77,1,32,197,216,51,159,299,157,41,202,113,117,249,44,164,261,139,258,56,132,190,252,228,26,243,195,192,212,35,163,155,6,271,142,248,49,256,275,53,294,110,169,222,99,21,45,64,24,254,151,238,215,10,199,193,2,273,279,87,187,180,297,36,54,263,65,162,282,284,72,232,92,70,233,131,42,7,0,237,264,179,172,185,27,266,138,226,156,129,182,241,189,293,227,96,3,37,246,276,128,225,168,183,52,257,200,170,145,88,295,220,223,229]","arrowright","","false","0","19","35","300","[""0081_N0300_K0035_NOCLIQUE"",""0005_N0300_K0035_CLIQUE""]"
"","","","","","audio-keyboard-response","140","536853","0.0-67.4-0.4-1.4","","null","audio_feedback/wrong/error01.mp3","null","","","","","0","19","35","300","[""0081_N0300_K0035_NOCLIQUE"",""0005_N0300_K0035_CLIQUE""]"
"","","","","","canvas-keyboard-response","141","538979","0.0-68.0-0.0-0.0","","2057",""," ","[25,59,134,55,122,46,180,207,23,133,278,44,167,220,297,171,43,34,142,8,146,274,181,208,256,236,168,47,64,243,246,188,14,205,5,298,266,97,31,147,238,193,119,191,270,50,186,222,259,192,35,268,164,77,110,68,65,138,121,103,170,190,126,3,247,251,60,19,262,183,169,89,129,105,139,282,45,156,241,114,177,145,62,176,242,219,127,12,206,204,210,273,158,226,184,174,227,73,106,141,237,151,299,124,72,13,293,285,263,39,79,22,157,112,209,228,182,149,15,221,240,276,216,48,271,187,291,144,70,94,0,118,295,49,199,211,67,51,37,82,286,196,115,283,128,85,290,132,279,117,57,40,225,11,125,42,32,235,30,203,155,7,2,76,294,280,212,41,292,160,231,264,198,154,261,10,277,78,20,54,101,178,107,63,233,179,95,98,109,75,197,189,143,165,91,99,33,162,234,265,175,260,248,29,288,18,195,296,83,135,87,255,281,254,100,223,229,58,108,252,289,232,27,26,185,224,161,230,244,202,1,38,257,213,201,275,88,172,113,131,71,123,140,152,92,159,4,287,36,249,96,267,269,215,69,272,163,6,153,218,120,214,21,253,116,81,56,61,104,258,245,173,66,102,150,148,24,284,17,136,239,53,137,166,250,74,111,93,86,84,16,9,130,194,52,80,217,28,90,200]","arrowright","","","0","20","30","300","[""0089_N0300_K0030_NOCLIQUE"",""0016_N0300_K0030_CLIQUE""]"
"","","","","","audio-keyboard-response","142","539754","0.0-68.0-0.0-1.0","","null","audio_feedback/shuffles/shuffle01.mp3","null","","","","","0","20","30","300","[""0089_N0300_K0030_NOCLIQUE"",""0016_N0300_K0030_CLIQUE""]"
"","","","","","canvas-keyboard-response","143","540757","0.0-68.1-0.1-0.1","","939",""," ","[202,257,173,70,269,144,48,151,212,182,187,83,18,20,262,12,132,223,1,134,129,235,162,5,53,34,114,240,71,178,33,43,116,40,101,287,222,243,155,214,102,185,103,260,250,104,82,264,2,196,251,126,51,87,113,284,255,148,24,85,221,281,211,57,59,90,115,55,158,120,292,189,131,176,56,146,159,227,184,121,299,216,143,65,289,89,111,123,213,230,95,224,208,246,0,127,64,154,17,279,11,294,39,201,88,234,93,68,140,13,195,256,29,130,45,30,166,25,199,156,84,119,7,297,46,21,192,135,231,160,10,15,265,78,228,217,136,54,282,76,164,248,194,229,157,128,210,9,50,42,58,273,183,268,8,239,186,63,81,177,200,106,44,163,233,6,61,188,37,107,203,98,172,174,35,286,293,218,298,207,249,296,41,141,258,137,225,252,242,165,288,276,122,191,75,168,266,14,283,152,72,244,193,60,97,117,171,62,271,190,49,238,204,247,280,138,94,125,237,77,215,96,150,142,278,261,66,254,149,274,16,295,52,32,38,80,219,105,27,169,145,277,110,73,112,167,253,197,267,205,124,99,3,290,241,79,206,153,180,26,291,170,220,181,272,67,36,245,175,28,232,100,133,285,263,236,23,270,275,179,91,19,22,259,108,92,47,69,198,86,109,147,226,209,31,161,74,139,118,4]","arrowright","","","0","20","30","300","[""0089_N0300_K0030_NOCLIQUE"",""0016_N0300_K0030_CLIQUE""]"
"","","","","","audio-keyboard-response","144","541535","0.0-68.1-0.1-1.1","","null","audio_feedback/shuffles/shuffle01.mp3","null","","","","","0","20","30","300","[""0089_N0300_K0030_NOCLIQUE"",""0016_N0300_K0030_CLIQUE""]"
"","","","","","canvas-keyboard-response","145","542426","0.0-68.2-0.2-0.2","","826","","arrowright","[192,7,217,221,4,23,97,79,130,116,171,44,125,17,5,190,253,234,285,268,132,49,118,250,69,246,297,129,298,61,91,211,106,215,47,223,205,276,272,24,70,16,141,228,28,27,154,252,249,105,292,111,238,164,12,138,212,117,169,60,83,45,56,258,140,161,174,39,187,2,90,77,149,22,197,243,278,127,8,191,120,259,202,155,159,98,108,89,11,168,40,208,222,160,242,257,78,287,121,286,185,182,9,143,152,101,166,231,13,162,1,145,136,233,163,255,176,232,266,51,50,52,265,199,144,239,29,173,80,247,206,73,236,30,35,220,75,193,264,180,55,139,153,241,110,71,58,123,256,96,282,227,92,198,18,230,240,209,76,226,225,274,184,25,109,218,289,224,156,104,88,113,107,203,53,179,295,204,294,82,248,128,41,142,15,99,66,207,260,6,291,115,229,216,210,103,148,124,177,263,269,20,133,178,21,288,299,63,214,181,119,3,31,64,189,14,114,283,267,284,183,251,201,135,196,72,46,235,26,175,281,279,81,100,254,93,262,273,134,194,36,195,126,200,293,65,85,62,188,42,34,213,37,32,270,137,186,244,158,19,38,0,290,57,172,237,95,74,54,167,261,122,271,94,48,280,147,165,150,112,296,86,68,43,219,151,157,87,275,59,170,102,84,146,277,67,131,33,10,245]","arrowright","","true","0","20","30","300","[""0089_N0300_K0030_NOCLIQUE"",""0016_N0300_K0030_CLIQUE""]"
"","","","","","audio-keyboard-response","146","543053","0.0-68.2-0.2-1.2","","null","audio_feedback/right/coin01.mp3","null","","","","","0","20","30","300","[""0089_N0300_K0030_NOCLIQUE"",""0016_N0300_K0030_CLIQUE""]"
"","","","","","canvas-keyboard-response","147","544053","0.0-69.0-0.0-0.0","","925",""," ","[214,112,44,84,268,115,109,0,110,215,125,61,41,285,24,75,129,16,237,243,88,284,267,2,155,8,258,172,189,131,56,143,113,292,65,222,74,133,135,18,218,116,117,144,54,26,274,255,146,259,78,181,171,107,233,9,183,213,126,202,266,169,96,43,29,85,136,167,70,92,105,145,242,208,108,197,4,137,14,99,175,13,235,81,179,114,15,251,28,277,160,238,231,33,139,217,7,154,152,298,244,153,95,21,87,83,82,79,295,280,123,48,103,120,281,166,204,37,283,50,265,170,106,58,249,221,148,211,91,122,38,264,162,42,199,104,34,36,282,223,220,138,5,66,141,272,165,192,62,174,256,297,64,193,140,216,232,149,257,279,102,276,118,250,261,150,206,30,35,180,6,191,45,230,294,46,128,240,98,248,100,226,299,203,234,164,159,247,130,63,40,163,227,187,142,86,228,288,157,23,291,168,287,55,158,263,69,134,176,269,77,22,47,124,229,246,53,190,205,289,156,101,151,25,210,270,224,293,19,275,51,186,239,196,209,252,76,212,20,49,188,17,147,32,90,200,111,10,57,71,73,72,225,219,198,127,182,201,161,273,173,195,271,121,236,278,132,260,12,119,286,290,31,1,3,52,67,11,27,80,60,94,177,89,253,296,59,93,184,97,68,39,194,245,241,262,207,178,254,185]","arrowleft","","","0","21","30","300","[""0027_N0300_K0030_CLIQUE"",""0042_N0300_K0030_NOCLIQUE""]"
"","","","","","audio-keyboard-response","148","544835","0.0-69.0-0.0-1.0","","null","audio_feedback/shuffles/shuffle01.mp3","null","","","","","0","21","30","300","[""0027_N0300_K0030_CLIQUE"",""0042_N0300_K0030_NOCLIQUE""]"
"","","","","","canvas-keyboard-response","149","545671","0.0-69.1-0.1-0.1","","769",""," ","[216,87,147,94,43,71,149,133,186,237,236,79,44,9,230,145,196,35,2,109,265,42,281,75,93,181,29,107,102,129,130,226,119,253,118,234,266,217,23,218,184,225,61,134,222,141,144,172,213,227,239,203,291,57,278,164,83,207,143,293,128,256,95,243,193,233,86,270,26,258,139,52,131,162,111,59,215,90,262,66,82,231,251,244,198,40,158,223,173,195,168,171,46,169,245,260,224,24,73,49,64,15,283,219,177,201,39,166,178,206,289,140,84,240,275,298,120,261,50,284,78,137,121,18,62,183,54,106,163,48,248,88,100,189,21,268,285,36,0,99,246,148,14,165,142,274,264,53,255,156,68,6,126,157,155,159,65,296,208,167,31,117,185,299,282,70,103,200,27,197,85,241,179,271,76,250,34,272,89,122,153,204,33,20,8,170,150,192,45,7,127,280,269,190,135,16,96,110,292,199,74,114,116,263,5,249,77,297,32,214,211,4,19,154,91,279,138,112,41,187,252,125,108,132,11,288,98,60,276,277,22,286,257,123,55,294,176,175,37,115,182,242,105,80,136,104,212,146,295,17,287,205,101,3,228,56,152,151,210,67,38,92,235,247,209,220,1,10,51,113,180,254,267,63,12,202,28,160,124,161,13,81,238,69,174,259,188,273,30,191,58,72,229,232,97,290,47,25,194,221]","arrowleft","","","0","21","30","300","[""0027_N0300_K0030_CLIQUE"",""0042_N0300_K0030_NOCLIQUE""]"
"","","","","","audio-keyboard-response","150","546452","0.0-69.1-0.1-1.1","","null","audio_feedback/shuffles/shuffle01.mp3","null","","","","","0","21","30","300","[""0027_N0300_K0030_CLIQUE"",""0042_N0300_K0030_NOCLIQUE""]"
"","","","","","canvas-keyboard-response","151","547976","0.0-69.2-0.2-0.2","","1459","","arrowleft","[162,122,19,231,67,130,251,205,134,189,28,30,0,236,77,41,72,215,149,100,129,273,201,88,242,218,176,37,266,132,280,52,54,40,38,121,174,8,31,248,260,173,82,213,245,101,61,151,238,185,187,286,285,94,271,153,237,14,71,107,48,258,78,65,244,297,179,105,135,235,127,181,1,290,228,93,99,263,267,204,92,191,180,289,79,125,112,115,188,255,230,269,111,62,282,63,195,216,212,46,200,299,73,150,259,283,81,168,279,190,103,24,12,288,164,114,232,11,44,98,219,84,95,110,142,75,186,158,131,36,90,210,252,49,257,155,136,234,120,224,80,43,58,22,291,34,254,184,241,35,284,66,169,97,20,281,116,256,148,183,250,264,199,74,126,16,261,211,96,147,265,202,15,10,274,128,70,141,13,246,278,91,2,165,217,118,166,170,182,207,247,145,221,9,163,262,144,193,87,51,143,76,27,159,160,214,253,39,208,124,222,293,47,154,298,6,157,7,119,85,60,69,137,104,139,86,106,32,227,53,29,268,25,89,45,146,113,229,277,203,270,5,226,102,175,225,292,161,197,140,240,243,295,171,275,287,209,172,18,220,59,239,178,57,206,152,194,223,68,21,109,198,26,296,23,55,33,294,133,138,177,249,50,117,276,156,83,17,42,272,233,123,4,196,167,3,108,64,192,56]","arrowleft","","true","0","21","30","300","[""0027_N0300_K0030_CLIQUE"",""0042_N0300_K0030_NOCLIQUE""]"
"","","","","","audio-keyboard-response","152","548594","0.0-69.2-0.2-1.2","","null","audio_feedback/right/coin01.mp3","null","","","","","0","21","30","300","[""0027_N0300_K0030_CLIQUE"",""0042_N0300_K0030_NOCLIQUE""]"
"","","","","","canvas-keyboard-response","153","549702","0.0-70.0-0.0-0.0","","1041",""," ","[166,51,277,130,10,193,118,44,160,212,293,89,278,282,291,154,137,82,250,90,221,191,23,2,263,30,55,19,174,198,173,8,213,79,245,228,85,16,297,105,269,132,60,112,287,267,273,222,91,99,3,138,153,52,33,156,53,64,179,125,264,199,84,24,155,1,17,242,216,25,40,188,284,192,219,115,101,144,161,164,186,195,76,128,234,62,169,209,135,241,96,110,289,98,170,206,46,211,148,86,104,268,70,225,56,0,102,131,117,107,93,177,189,48,190,141,42,28,239,6,251,200,39,262,36,295,97,208,281,94,35,205,126,50,68,80,259,12,183,37,210,114,14,296,81,45,204,43,123,67,27,92,194,7,38,66,11,143,139,288,235,152,253,260,202,121,280,73,72,175,218,5,276,109,226,230,167,224,49,172,223,231,261,103,57,122,270,29,100,243,69,83,184,265,151,149,249,201,18,65,77,290,71,134,258,255,133,220,182,299,207,274,142,106,147,88,214,26,176,240,120,59,187,178,127,9,87,171,63,283,257,298,272,158,54,246,233,185,244,196,22,20,47,157,252,247,285,4,215,279,32,227,31,286,271,294,95,162,78,237,58,254,119,165,163,74,238,292,229,116,34,15,159,41,136,197,236,21,111,61,203,181,248,140,275,108,266,75,168,150,180,124,256,145,217,232,129,113,146,13]","arrowright","","","0","22","25","300","[""0026_N0300_K0025_NOCLIQUE"",""0031_N0300_K0025_CLIQUE""]"
"","","","","","audio-keyboard-response","154","550473","0.0-70.0-0.0-1.0","","null","audio_feedback/shuffles/shuffle01.mp3","null","","","","","0","22","25","300","[""0026_N0300_K0025_NOCLIQUE"",""0031_N0300_K0025_CLIQUE""]"
"","","","","","canvas-keyboard-response","155","551402","0.0-70.1-0.1-0.1","","852",""," ","[110,63,252,232,259,277,263,134,90,213,285,199,99,215,140,72,53,60,168,15,117,261,73,6,273,147,132,70,268,210,242,4,178,1,164,282,64,260,128,113,286,25,102,295,148,254,23,131,67,154,49,174,21,276,46,181,173,176,104,77,111,270,233,81,266,8,200,278,170,9,209,85,218,120,288,61,186,205,235,69,211,214,253,121,118,244,166,122,231,52,230,55,5,289,223,217,42,94,208,65,150,143,212,179,194,225,271,265,91,284,299,35,127,10,175,204,264,292,201,11,169,237,177,32,257,139,298,258,107,247,58,22,171,182,250,246,189,101,272,162,245,291,220,45,224,103,109,152,119,192,124,43,108,236,0,153,39,195,198,193,283,29,89,88,155,78,151,238,98,159,287,84,146,17,180,158,116,87,68,222,26,241,16,136,167,279,48,96,95,249,281,262,248,293,256,133,80,12,129,93,82,100,44,255,267,92,274,163,105,13,142,37,280,183,2,57,50,294,24,172,196,36,188,185,156,79,275,125,86,221,28,114,138,197,18,106,216,14,56,31,59,160,137,75,30,234,227,54,40,190,269,239,71,51,149,207,184,191,219,38,161,203,229,83,66,20,135,7,141,240,290,115,165,62,74,33,145,47,243,123,206,97,157,130,226,126,34,19,228,3,202,251,296,112,27,187,41,76,144,297]","arrowright","","","0","22","25","300","[""0026_N0300_K0025_NOCLIQUE"",""0031_N0300_K0025_CLIQUE""]"
"","","","","","audio-keyboard-response","156","552175","0.0-70.1-0.1-1.1","","null","audio_feedback/shuffles/shuffle01.mp3","null","","","","","0","22","25","300","[""0026_N0300_K0025_NOCLIQUE"",""0031_N0300_K0025_CLIQUE""]"
"","","","","","canvas-keyboard-response","157","553371","0.0-70.2-0.2-0.2","","1131",""," ","[58,211,290,37,178,135,114,265,217,80,149,249,158,88,244,141,12,46,134,248,86,10,22,35,42,4,185,162,183,234,271,224,142,29,235,133,128,17,131,174,182,177,76,230,147,225,275,43,100,238,223,179,140,106,123,215,258,87,93,145,276,220,170,188,59,166,120,210,296,233,109,27,95,24,61,295,19,187,103,94,69,195,240,112,31,57,226,157,176,268,246,153,164,205,200,190,139,36,47,107,26,278,214,237,113,14,34,105,216,49,269,232,287,82,284,152,253,189,213,16,13,51,111,202,20,15,272,203,218,18,281,167,196,266,77,229,242,85,104,79,68,89,168,41,1,283,25,184,129,241,175,286,204,180,256,186,63,171,243,181,255,39,291,264,192,254,108,55,299,9,136,228,260,91,239,54,207,159,282,288,161,45,101,11,236,75,289,132,150,201,259,160,146,252,73,90,52,250,7,66,78,21,33,292,155,5,99,0,206,8,143,212,261,222,285,6,297,151,293,294,209,102,163,267,96,92,119,30,165,251,199,122,53,110,67,198,115,23,194,72,60,38,28,116,2,148,193,127,144,263,84,191,83,44,118,62,97,277,270,126,221,125,98,173,219,81,172,130,247,117,48,262,154,74,50,279,56,40,197,32,70,274,169,65,121,273,208,124,298,227,64,257,137,245,156,280,231,138,3,71]","arrowright","","","0","22","25","300","[""0026_N0300_K0025_NOCLIQUE"",""0031_N0300_K0025_CLIQUE""]"
"","","","","","audio-keyboard-response","158","554154","0.0-70.2-0.2-1.2","","null","audio_feedback/shuffles/shuffle01.mp3","null","","","","","0","22","25","300","[""0026_N0300_K0025_NOCLIQUE"",""0031_N0300_K0025_CLIQUE""]"
"","","","","","canvas-keyboard-response","159","555137","0.0-70.3-0.3-0.3","","917",""," ","[81,237,220,162,102,150,215,187,119,129,291,269,248,286,243,184,134,214,238,16,266,25,99,11,194,0,189,265,55,70,283,103,223,63,97,82,152,293,228,7,98,56,251,186,26,84,10,113,29,213,282,52,33,218,147,180,106,121,156,62,41,294,22,69,261,3,93,234,64,14,236,72,278,111,193,245,221,263,281,86,115,146,95,67,74,157,183,274,198,267,47,208,122,185,258,107,8,257,277,60,58,35,205,151,27,206,154,264,174,161,239,235,114,226,83,128,271,250,136,139,19,39,91,80,138,254,182,32,142,231,270,177,195,285,28,65,123,13,37,118,171,175,192,50,112,117,222,54,92,288,148,227,216,109,57,66,241,207,4,256,15,131,36,34,18,46,232,197,168,87,140,68,247,144,160,104,279,24,101,298,100,203,253,275,59,169,96,75,290,280,49,284,23,127,38,51,135,204,12,224,6,73,217,268,240,181,179,164,200,272,17,43,165,158,45,196,190,108,273,120,149,1,191,249,292,77,209,40,9,252,297,141,133,79,21,259,153,78,167,211,233,212,116,229,178,125,244,2,44,155,130,88,296,287,31,61,219,5,242,145,225,260,170,299,89,188,110,137,71,42,289,85,166,20,76,202,201,176,172,210,199,159,295,132,53,94,30,143,163,90,230,276,173,246,255,105,48,262,124,126]","arrowright","","","0","22","25","300","[""0026_N0300_K0025_NOCLIQUE"",""0031_N0300_K0025_CLIQUE""]"
"","","","","","audio-keyboard-response","160","555913","0.0-70.3-0.3-1.3","","null","audio_feedback/shuffles/shuffle01.mp3","null","","","","","0","22","25","300","[""0026_N0300_K0025_NOCLIQUE"",""0031_N0300_K0025_CLIQUE""]"
"","","","","","canvas-keyboard-response","161","557297","0.0-70.4-0.4-0.4","","1312",""," ","[189,97,95,299,257,75,150,288,174,28,105,111,276,245,79,237,182,186,249,135,239,76,230,225,32,12,259,96,3,160,47,284,275,66,92,180,233,148,64,90,289,6,37,112,21,219,262,293,247,188,48,229,109,15,212,236,201,248,104,166,177,163,256,106,215,273,35,165,266,18,9,55,101,183,231,227,118,60,7,240,147,194,73,146,138,100,265,77,203,58,149,110,74,208,159,204,167,115,272,46,205,4,155,71,294,50,56,131,242,191,142,264,134,1,140,190,287,43,41,241,282,216,292,85,40,267,157,20,209,213,87,271,102,176,0,235,171,129,250,114,298,254,123,89,221,119,207,232,214,49,277,199,234,253,59,164,281,34,113,103,274,23,120,197,222,124,2,63,51,130,5,19,169,72,62,126,158,251,268,153,8,211,121,94,179,10,223,154,243,161,98,168,187,107,82,270,45,260,173,27,151,297,116,172,67,93,295,122,108,99,263,283,244,175,127,196,261,31,296,132,218,258,252,24,226,38,141,178,22,162,80,117,195,84,224,91,86,145,206,30,29,65,156,280,144,220,285,70,200,291,128,198,228,181,269,88,139,16,78,17,53,279,81,26,278,33,152,25,192,42,202,137,68,61,210,184,83,11,57,136,170,36,246,39,286,133,143,217,238,290,52,54,185,255,44,13,69,193,125,14]","arrowright","","","0","22","25","300","[""0026_N0300_K0025_NOCLIQUE"",""0031_N0300_K0025_CLIQUE""]"
"","","","","","audio-keyboard-response","162","558074","0.0-70.4-0.4-1.4","","null","audio_feedback/shuffles/shuffle01.mp3","null","","","","","0","22","25","300","[""0026_N0300_K0025_NOCLIQUE"",""0031_N0300_K0025_CLIQUE""]"
