"success,""timeout"",""failed_images"",""failed_audio"",""failed_video"",""trial_type"",""trial_index"",""time_elapsed"",""internal_node_id"",""view_history"",""rt"",""stimulus"",""response"",""nodes_order"",""correct_response"",""block_index"",""presentation_index"",""clique_size"",""graph_size"",""graphs_names"",""graphs_couple"",""accuracy"""
"true,""false"",""[]"",""[]"",""[]"",""preload"",""0"",""102"",""0.0-0.0"","""","""","""","""","""","""","""","""","""","""","""","""","""""
","""","""","""","""",""pavlovia"",""1"",""603"",""0.0-1.0"","""","""","""","""","""","""","""","""","""","""","""","""","""""
","""","""","""","""",""instructions"",""2"",""52241"",""0.0-2.0"",""[{""""page_index"""":0,""""viewing_time"""":13285},{""""page_index"""":1,""""viewing_time"""":38346}]"",""51631"","""","""","""","""","""","""","""","""","""","""","""""
"true,""false"",""[]"",""[]"",""[]"",""preload"",""3"",""54714"",""0.0-3.0"","""","""","""","""","""","""","""","""","""","""","""","""","""""
","""","""","""","""",""instructions"",""4"",""382480"",""0.0-4.0"",""[{""""page_index"""":0,""""viewing_time"""":4934},{""""page_index"""":1,""""viewing_time"""":2270},{""""page_index"""":2,""""viewing_time"""":1530},{""""page_index"""":3,""""viewing_time"""":7360},{""""page_index"""":4,""""viewing_time"""":5140},{""""page_index"""":3,""""viewing_time"""":1049},{""""page_index"""":4,""""viewing_time"""":350},{""""page_index"""":3,""""viewing_time"""":270},{""""page_index"""":4,""""viewing_time"""":440},{""""page_index"""":3,""""viewing_time"""":310},{""""page_index"""":4,""""viewing_time"""":330},{""""page_index"""":3,""""viewing_time"""":340},{""""page_index"""":4,""""viewing_time"""":340},{""""page_index"""":3,""""viewing_time"""":350},{""""page_index"""":4,""""viewing_time"""":360},{""""page_index"""":3,""""viewing_time"""":360},{""""page_index"""":4,""""viewing_time"""":320},{""""page_index"""":3,""""viewing_time"""":499},{""""page_index"""":4,""""viewing_time"""":361},{""""page_index"""":5,""""viewing_time"""":3460},{""""page_index"""":6,""""viewing_time"""":1430},{""""page_index"""":7,""""viewing_time"""":1010},{""""page_index"""":8,""""viewing_time"""":870},{""""page_index"""":7,""""viewing_time"""":700},{""""page_index"""":8,""""viewing_time"""":430},{""""page_index"""":7,""""viewing_time"""":2631},{""""page_index"""":8,""""viewing_time"""":801},{""""page_index"""":7,""""viewing_time"""":1219},{""""page_index"""":8,""""viewing_time"""":639},{""""page_index"""":7,""""viewing_time"""":4721},{""""page_index"""":8,""""viewing_time"""":900},{""""page_index"""":7,""""viewing_time"""":11040},{""""page_index"""":8,""""viewing_time"""":750},{""""page_index"""":7,""""viewing_time"""":1220},{""""page_index"""":8,""""viewing_time"""":540},{""""page_index"""":7,""""viewing_time"""":3130},{""""page_index"""":6,""""viewing_time"""":390},{""""page_index"""":5,""""viewing_time"""":661},{""""page_index"""":4,""""viewing_time"""":369},{""""page_index"""":3,""""viewing_time"""":3171},{""""page_index"""":4,""""viewing_time"""":509},{""""page_index"""":3,""""viewing_time"""":350},{""""page_index"""":4,""""viewing_time"""":710},{""""page_index"""":3,""""viewing_time"""":390},{""""page_index"""":4,""""viewing_time"""":360},{""""page_index"""":3,""""viewing_time"""":340},{""""page_index"""":4,""""viewing_time"""":421},{""""page_index"""":3,""""viewing_time"""":1609},{""""page_index"""":4,""""viewing_time"""":440},{""""page_index"""":3,""""viewing_time"""":9681},{""""page_index"""":4,""""viewing_time"""":750},{""""page_index"""":3,""""viewing_time"""":859},{""""page_index"""":4,""""viewing_time"""":430},{""""page_index"""":3,""""viewing_time"""":1370},{""""page_index"""":4,""""viewing_time"""":800},{""""page_index"""":3,""""viewing_time"""":830},{""""page_index"""":4,""""viewing_time"""":390},{""""page_index"""":3,""""viewing_time"""":3150},{""""page_index"""":4,""""viewing_time"""":290},{""""page_index"""":5,""""viewing_time"""":370},{""""page_index"""":6,""""viewing_time"""":990},{""""page_index"""":7,""""viewing_time"""":520},{""""page_index"""":8,""""viewing_time"""":2060},{""""page_index"""":9,""""viewing_time"""":2700},{""""page_index"""":10,""""viewing_time"""":2070},{""""page_index"""":11,""""viewing_time"""":1930},{""""page_index"""":12,""""viewing_time"""":3030},{""""page_index"""":11,""""viewing_time"""":289},{""""page_index"""":12,""""viewing_time"""":520},{""""page_index"""":13,""""viewing_time"""":2230},{""""page_index"""":14,""""viewing_time"""":1240},{""""page_index"""":13,""""viewing_time"""":260},{""""page_index"""":14,""""viewing_time"""":350},{""""page_index"""":15,""""viewing_time"""":760},{""""page_index"""":14,""""viewing_time"""":300},{""""page_index"""":15,""""viewing_time"""":400},{""""page_index"""":16,""""viewing_time"""":860},{""""page_index"""":15,""""viewing_time"""":1130},{""""page_index"""":16,""""viewing_time"""":1269},{""""page_index"""":17,""""viewing_time"""":851},{""""page_index"""":18,""""viewing_time"""":929},{""""page_index"""":19,""""viewing_time"""":2400},{""""page_index"""":20,""""viewing_time"""":651},{""""page_index"""":21,""""viewing_time"""":3640},{""""page_index"""":20,""""viewing_time"""":389},{""""page_index"""":21,""""viewing_time"""":341},{""""page_index"""":20,""""viewing_time"""":330},{""""page_index"""":21,""""viewing_time"""":340},{""""page_index"""":20,""""viewing_time"""":281},{""""page_index"""":21,""""viewing_time"""":359},{""""page_index"""":20,""""viewing_time"""":1121},{""""page_index"""":21,""""viewing_time"""":480},{""""page_index"""":20,""""viewing_time"""":2799},{""""page_index"""":21,""""viewing_time"""":571},{""""page_index"""":20,""""viewing_time"""":2720},{""""page_index"""":19,""""viewing_time"""":450},{""""page_index"""":20,""""viewing_time"""":850},{""""page_index"""":19,""""viewing_time"""":200},{""""page_index"""":18,""""viewing_time"""":160},{""""page_index"""":17,""""viewing_time"""":200},{""""page_index"""":16,""""viewing_time"""":10830},{""""page_index"""":15,""""viewing_time"""":660},{""""page_index"""":16,""""viewing_time"""":16711},{""""page_index"""":17,""""viewing_time"""":930},{""""page_index"""":18,""""viewing_time"""":1270},{""""page_index"""":19,""""viewing_time"""":1209},{""""page_index"""":20,""""viewing_time"""":710},{""""page_index"""":21,""""viewing_time"""":521},{""""page_index"""":22,""""viewing_time"""":1589},{""""page_index"""":23,""""viewing_time"""":10442},{""""page_index"""":24,""""viewing_time"""":3540},{""""page_index"""":25,""""viewing_time"""":669},{""""page_index"""":24,""""viewing_time"""":831},{""""page_index"""":25,""""viewing_time"""":500},{""""page_index"""":24,""""viewing_time"""":2140},{""""page_index"""":25,""""viewing_time"""":560},{""""page_index"""":26,""""viewing_time"""":1088},{""""page_index"""":27,""""viewing_time"""":2613},{""""page_index"""":28,""""viewing_time"""":1639},{""""page_index"""":27,""""viewing_time"""":1371},{""""page_index"""":28,""""viewing_time"""":4759},{""""page_index"""":29,""""viewing_time"""":630},{""""page_index"""":30,""""viewing_time"""":3461},{""""page_index"""":31,""""viewing_time"""":2289},{""""page_index"""":32,""""viewing_time"""":8441},{""""page_index"""":33,""""viewing_time"""":3612},{""""page_index"""":34,""""viewing_time"""":4708},{""""page_index"""":35,""""viewing_time"""":3050},{""""page_index"""":36,""""viewing_time"""":2470},{""""page_index"""":37,""""viewing_time"""":2409},{""""page_index"""":38,""""viewing_time"""":1861},{""""page_index"""":39,""""viewing_time"""":5020},{""""page_index"""":40,""""viewing_time"""":2470},{""""page_index"""":41,""""viewing_time"""":3569},{""""page_index"""":42,""""viewing_time"""":5881},{""""page_index"""":43,""""viewing_time"""":7290},{""""page_index"""":44,""""viewing_time"""":1880},{""""page_index"""":43,""""viewing_time"""":310},{""""page_index"""":44,""""viewing_time"""":3111},{""""page_index"""":45,""""viewing_time"""":14300},{""""page_index"""":46,""""viewing_time"""":1609},{""""page_index"""":45,""""viewing_time"""":1280},{""""page_index"""":44,""""viewing_time"""":430},{""""page_index"""":45,""""viewing_time"""":13931},{""""page_index"""":46,""""viewing_time"""":2219},{""""page_index"""":47,""""viewing_time"""":2790},{""""page_index"""":48,""""viewing_time"""":6891},{""""page_index"""":49,""""viewing_time"""":2629},{""""page_index"""":48,""""viewing_time"""":660},{""""page_index"""":49,""""viewing_time"""":340},{""""page_index"""":48,""""viewing_time"""":380},{""""page_index"""":49,""""viewing_time"""":2350},{""""page_index"""":50,""""viewing_time"""":1490},{""""page_index"""":49,""""viewing_time"""":231},{""""page_index"""":50,""""viewing_time"""":409},{""""page_index"""":49,""""viewing_time"""":180},{""""page_index"""":50,""""viewing_time"""":8731},{""""page_index"""":51,""""viewing_time"""":5859}]"",""327765"","""","""","""","""","""","""","""","""","""","""","""""
","""","""","""","""",""instructions"",""5"",""390502"",""0.0-5.0"",""[{""""page_index"""":0,""""viewing_time"""":8020}]"",""8021"","""","""","""","""","""","""","""","""","""","""","""""
"true,""false"",""[]"",""[]"",""[]"",""preload"",""6"",""391624"",""0.0-6.0"","""","""","""","""","""","""","""","""","""","""","""","""","""""
","""","""","""","""",""image-keyboard-response"",""7"",""402552"",""0.0-7.0"","""",""10923"",""tutorial/task_familiarization_images/part 1/01_N160_K90_cliqueRight_question1.PNG"","" "","""","""","""","""","""","""","""","""","""""
","""","""","""","""",""image-keyboard-response"",""8"",""403200"",""0.0-8.0"","""",""645"",""tutorial/task_familiarization_images/part 1/02_N160_K90_cliqueRight_question2.PNG"","" "","""","""","""","""","""","""","""","""","""""
","""","""","""","""",""image-keyboard-response"",""9"",""407160"",""0.0-9.0"","""",""3958"",""tutorial/task_familiarization_images/part 1/03_N160_K90_cliqueRight_question3.PNG"",""arrowright"","""","""","""","""","""","""","""","""","""""
","""","""","""","""",""image-keyboard-response"",""10"",""408950"",""0.0-10.0"","""",""1785"",""tutorial/task_familiarization_images/part 1/04_N160_K90_cliqueRight_solution.PNG"","" "","""","""","""","""","""","""","""","""","""""
","""","""","""","""",""image-keyboard-response"",""11"",""412000"",""0.0-11.0"","""",""3046"",""tutorial/task_familiarization_images/part 1/05_N160_K65_cliqueRight_question1.PNG"","" "","""","""","""","""","""","""","""","""","""""
","""","""","""","""",""image-keyboard-response"",""12"",""412641"",""0.0-12.0"","""",""638"",""tutorial/task_familiarization_images/part 1/06_N160_K65_cliqueRight_question2.PNG"","" "","""","""","""","""","""","""","""","""","""""
","""","""","""","""",""image-keyboard-response"",""13"",""413340"",""0.0-13.0"","""",""697"",""tutorial/task_familiarization_images/part 1/07_N160_K65_cliqueRight_question3.PNG"",""arrowright"","""","""","""","""","""","""","""","""","""""
","""","""","""","""",""image-keyboard-response"",""14"",""414820"",""0.0-14.0"","""",""1476"",""tutorial/task_familiarization_images/part 1/08_N160_K65_cliqueRight_solution.PNG"","" "","""","""","""","""","""","""","""","""","""""
","""","""","""","""",""image-keyboard-response"",""15"",""418860"",""0.0-15.0"","""",""4037"",""tutorial/task_familiarization_images/part 1/09_N160_K50_cliqueLeft_question1.PNG"","" "","""","""","""","""","""","""","""","""","""""
","""","""","""","""",""image-keyboard-response"",""16"",""419601"",""0.0-16.0"","""",""739"",""tutorial/task_familiarization_images/part 1/10_N160_K50_cliqueLeft_question2.PNG"","" "","""","""","""","""","""","""","""","""","""""
","""","""","""","""",""image-keyboard-response"",""17"",""423511"",""0.0-17.0"","""",""3908"",""tutorial/task_familiarization_images/part 1/11_N160_K50_cliqueLeft_question3.PNG"",""arrowleft"","""","""","""","""","""","""","""","""","""""
","""","""","""","""",""image-keyboard-response"",""18"",""424771"",""0.0-18.0"","""",""1256"",""tutorial/task_familiarization_images/part 1/12_N160_K50_cliqueLeft_solution.PNG"","" "","""","""","""","""","""","""","""","""","""""
","""","""","""","""",""image-keyboard-response"",""19"",""426090"",""0.0-19.0"","""",""1316"",""tutorial/task_familiarization_images/part 1/13_N160_K80_cliqueLeft_question1.PNG"","" "","""","""","""","""","""","""","""","""","""""
","""","""","""","""",""image-keyboard-response"",""20"",""428121"",""0.0-20.0"","""",""2029"",""tutorial/task_familiarization_images/part 1/14_N160_K80_cliqueLeft_question2.PNG"","" "","""","""","""","""","""","""","""","""","""""
","""","""","""","""",""image-keyboard-response"",""21"",""429501"",""0.0-21.0"","""",""1377"",""tutorial/task_familiarization_images/part 1/15_N160_K80_cliqueLeft_question3.PNG"",""arrowleft"","""","""","""","""","""","""","""","""","""""
","""","""","""","""",""image-keyboard-response"",""22"",""430551"",""0.0-22.0"","""",""1047"",""tutorial/task_familiarization_images/part 1/16_N160_K80_cliqueLeft_solution.PNG"","" "","""","""","""","""","""","""","""","""","""""
","""","""","""","""",""image-keyboard-response"",""23"",""438092"",""0.0-23.0"","""",""7538"",""tutorial/task_familiarization_images/part 1/17_N160_K40_cliqueRight_question1.PNG"","" "","""","""","""","""","""","""","""","""","""""
","""","""","""","""",""image-keyboard-response"",""24"",""439742"",""0.0-24.0"","""",""1648"",""tutorial/task_familiarization_images/part 1/18_N160_K40_cliqueRight_question2.PNG"","" "","""","""","""","""","""","""","""","""","""""
","""","""","""","""",""image-keyboard-response"",""25"",""444011"",""0.0-25.0"","""",""4266"",""tutorial/task_familiarization_images/part 1/19_N160_K40_cliqueRight_question3.PNG"",""arrowright"","""","""","""","""","""","""","""","""","""""
","""","""","""","""",""image-keyboard-response"",""26"",""445092"",""0.0-26.0"","""",""1078"",""tutorial/task_familiarization_images/part 1/20_N160_K40_cliqueRight_solution.PNG"","" "","""","""","""","""","""","""","""","""","""""
","""","""","""","""",""image-keyboard-response"",""27"",""447811"",""0.0-27.0"","""",""2717"",""tutorial/task_familiarization_images/part 1/21_N160_K70_cliqueLeft_question1.PNG"","" "","""","""","""","""","""","""","""","""","""""
","""","""","""","""",""image-keyboard-response"",""28"",""448602"",""0.0-28.0"","""",""788"",""tutorial/task_familiarization_images/part 1/22_N160_K70_cliqueLeft_question2.PNG"","" "","""","""","""","""","""","""","""","""","""""
","""","""","""","""",""image-keyboard-response"",""29"",""450461"",""0.0-29.0"","""",""1857"",""tutorial/task_familiarization_images/part 1/23_N160_K70_cliqueLeft_question3.PNG"",""arrowleft"","""","""","""","""","""","""","""","""","""""
","""","""","""","""",""image-keyboard-response"",""30"",""451511"",""0.0-30.0"","""",""1048"",""tutorial/task_familiarization_images/part 1/24_N160_K70_cliqueLeft_solution.PNG"","" "","""","""","""","""","""","""","""","""","""""
"true,""false"",""[]"",""[]"",""[]"",""preload"",""31"",""452474"",""0.0-31.0"","""","""","""","""","""","""","""","""","""","""","""","""","""""
","""","""","""","""",""image-keyboard-response"",""32"",""462111"",""0.0-32.0"","""",""9635"",""tutorial/task_familiarization_images/part 2/01_160_80_cliqueLeft_withFeedback_1.PNG"","" "","""","""","""","""","""","""","""","""","""""
","""","""","""","""",""image-keyboard-response"",""33"",""463061"",""0.0-33.0"","""",""947"",""tutorial/task_familiarization_images/part 2/02_160_80_cliqueLeft_withFeedback_1.PNG"","" "","""","""","""","""","""","""","""","""","""""
","""","""","""","""",""image-keyboard-response"",""34"",""465291"",""0.0-34.0"","""",""2228"",""tutorial/task_familiarization_images/part 2/03_160_80_cliqueLeft_withFeedback_3.PNG"",""arrowleft"","""","""","""","""","""","""","""","""","""""
","""","""","""","""",""image-keyboard-response"",""35"",""470122"",""0.0-35.0"","""",""4828"",""tutorial/task_familiarization_images/part 2/04_160_80_cliqueLeft_withFeedback_correct.PNG"","" "","""","""","""","""","""","""","""","""","""""
","""","""","""","""",""image-keyboard-response"",""36"",""475082"",""0.0-36.0"","""",""4958"",""tutorial/task_familiarization_images/part 2/05_160_55_cliqueRight_withFeedback_1.PNG"","" "","""","""","""","""","""","""","""","""","""""
","""","""","""","""",""image-keyboard-response"",""37"",""475981"",""0.0-37.0"","""",""897"",""tutorial/task_familiarization_images/part 2/06_160_55_cliqueRight_withFeedback_2.PNG"","" "","""","""","""","""","""","""","""","""","""""
","""","""","""","""",""image-keyboard-response"",""38"",""476771"",""0.0-38.0"","""",""787"",""tutorial/task_familiarization_images/part 2/07_160_55_cliqueRight_withFeedback_3.PNG"",""arrowright"","""","""","""","""","""","""","""","""","""""
","""","""","""","""",""image-keyboard-response"",""39"",""478211"",""0.0-39.0"","""",""1438"",""tutorial/task_familiarization_images/part 2/08_160_55_cliqueRight_withFeedback_correct.PNG"","" "","""","""","""","""","""","""","""","""","""""
","""","""","""","""",""image-keyboard-response"",""40"",""481341"",""0.0-40.0"","""",""3128"",""tutorial/task_familiarization_images/part 2/09_160_70_cliqueLeft_withFeedback_1.PNG"","" "","""","""","""","""","""","""","""","""","""""
","""","""","""","""",""image-keyboard-response"",""41"",""482021"",""0.0-41.0"","""",""678"",""tutorial/task_familiarization_images/part 2/10_160_70_cliqueLeft_withFeedback_2.PNG"","" "","""","""","""","""","""","""","""","""","""""
","""","""","""","""",""image-keyboard-response"",""42"",""482831"",""0.0-42.0"","""",""807"",""tutorial/task_familiarization_images/part 2/11_160_70_cliqueLeft_withFeedback_3.PNG"",""arrowleft"","""","""","""","""","""","""","""","""","""""
","""","""","""","""",""image-keyboard-response"",""43"",""484041"",""0.0-43.0"","""",""1208"",""tutorial/task_familiarization_images/part 2/12_160_70_cliqueLeft_withFeedback_correct.PNG"","" "","""","""","""","""","""","""","""","""","""""
","""","""","""","""",""survey-html-form"",""44"",""493961"",""0.0-44.0"","""",""9868"","""",""{""""gender"""":""""male"""",""""age"""":""""25""""}"","""","""","""","""","""","""","""","""","""""
","""","""","""","""",""instructions"",""45"",""500562"",""0.0-45.0"",""[{""""page_index"""":0,""""viewing_time"""":6600}]"",""6600"","""","""","""","""","""","""","""","""","""","""","""""
"true,"""","""","""","""",""fullscreen"",""46"",""505777"",""0.0-47.0"","""","""","""","""","""","""","""","""","""","""","""","""","""""
","""","""","""","""",""canvas-keyboard-response"",""47"",""512891"",""0.0-48.0-0.0-0.0"","""",""6749"","""","" "",""[246,156,116,217,155,26,259,86,77,225,99,219,12,251,106,1,185,160,125,293,221,52,113,64,205,118,35,18,50,242,231,212,298,288,97,37,176,283,220,55,267,206,132,285,241,122,51,257,191,0,263,126,260,196,135,59,222,90,140,211,227,80,150,66,72,165,179,197,124,102,19,30,101,112,296,13,117,182,290,173,281,93,40,266,274,202,163,269,238,151,81,16,74,199,264,110,53,169,295,95,177,174,33,175,27,161,54,87,11,14,172,178,63,218,286,247,223,272,103,254,43,252,98,280,154,94,91,294,65,145,282,62,193,32,75,291,270,277,58,149,184,275,129,215,230,261,253,5,10,79,226,249,250,61,83,134,82,158,243,289,210,121,73,200,276,3,299,213,162,237,265,42,187,183,157,244,137,20,120,47,207,136,245,109,233,4,67,167,258,208,21,41,108,198,119,57,278,297,181,194,6,287,204,29,111,133,38,189,256,164,232,48,138,28,88,273,46,34,84,214,240,209,141,31,78,45,23,146,85,139,107,24,153,36,234,152,159,22,25,49,224,268,123,7,292,168,44,69,148,192,115,142,60,2,130,255,229,228,248,262,186,96,9,239,144,143,188,127,279,271,17,128,114,131,195,70,284,100,71,104,171,203,190,89,15,166,180,216,235,170,76,8,68,56,92,105,236,201,147,39]"",""arrowright"",""0"",""0"",""90"",""300"",""[""""0070_N0300_K0090_NOCLIQUE"""",""""0088_N0300_K0090_CLIQUE""""]"","""","""""
","""","""","""","""",""audio-keyboard-response"",""48"",""514733"",""0.0-48.0-0.0-1.0"","""",""null"",""audio_feedback/shuffles/shuffle01.mp3"",""null"","""","""",""0"",""0"",""90"",""300"",""[""""0070_N0300_K0090_NOCLIQUE"""",""""0088_N0300_K0090_CLIQUE""""]"","""","""""
","""","""","""","""",""canvas-keyboard-response"",""49"",""516342"",""0.0-48.1-0.1-0.1"","""",""1411"","""","" "",""[275,261,234,273,240,278,21,102,3,147,255,158,108,226,165,59,246,111,260,241,161,32,107,60,178,50,80,271,206,31,296,176,152,202,212,217,156,250,209,290,236,204,85,215,239,117,75,112,24,201,41,267,203,140,101,121,218,74,48,64,248,167,6,157,136,237,200,280,123,189,55,7,173,190,11,166,272,62,27,144,105,137,198,12,183,99,208,146,4,35,258,42,103,2,270,134,257,51,230,0,61,214,87,274,168,286,163,291,126,262,179,259,109,16,154,181,22,277,25,252,83,143,150,68,70,23,44,90,265,298,233,287,120,86,119,34,110,37,281,91,129,243,174,229,19,219,216,132,196,177,193,89,225,171,139,195,94,199,122,222,78,29,149,20,227,66,113,160,151,69,253,283,5,114,98,49,188,264,292,249,284,127,88,125,231,266,295,210,299,194,276,145,232,153,71,285,159,164,184,84,14,142,95,191,106,268,130,100,10,256,13,118,53,162,33,76,148,297,141,247,175,47,38,30,282,294,238,293,224,289,133,242,82,254,223,43,115,207,46,65,67,155,228,135,138,56,182,169,15,26,96,57,18,77,17,97,245,92,170,104,9,269,79,40,251,45,128,72,279,58,180,244,186,39,8,185,235,52,187,205,288,192,28,213,131,36,197,172,220,221,124,73,116,1,81,63,93,263,211,54]"",""arrowright"",""0"",""0"",""90"",""300"",""[""""0070_N0300_K0090_NOCLIQUE"""",""""0088_N0300_K0090_CLIQUE""""]"","""","""""
","""","""","""","""",""audio-keyboard-response"",""50"",""516933"",""0.0-48.1-0.1-1.1"","""",""null"",""audio_feedback/shuffles/shuffle01.mp3"",""null"","""","""",""0"",""0"",""90"",""300"",""[""""0070_N0300_K0090_NOCLIQUE"""",""""0088_N0300_K0090_CLIQUE""""]"","""","""""
","""","""","""","""",""canvas-keyboard-response"",""51"",""518662"",""0.0-48.2-0.2-0.2"","""",""1516"","""",""arrowright"",""[263,165,5,229,7,204,2,89,100,114,132,111,190,186,191,236,133,144,266,124,160,37,56,48,216,32,253,143,115,193,158,269,22,277,127,233,224,33,137,149,61,82,194,53,181,153,92,225,16,189,219,68,163,71,206,113,272,208,45,151,187,258,122,29,85,201,173,119,134,18,275,286,25,11,295,46,14,220,243,271,285,167,67,41,184,106,176,213,78,245,42,69,24,159,196,288,197,281,172,21,250,289,145,79,256,97,278,185,227,142,112,103,31,15,155,171,36,131,73,20,230,116,166,246,162,55,195,254,86,265,270,90,252,27,192,248,205,211,141,104,10,293,239,4,249,226,169,75,38,65,228,70,1,299,207,276,91,168,242,237,221,147,28,199,88,268,175,200,251,63,282,178,93,50,47,110,174,120,105,81,297,267,44,17,232,84,146,126,35,99,108,287,170,76,260,294,234,26,203,8,102,247,188,74,72,83,139,59,96,198,148,261,101,129,109,30,217,202,298,157,182,274,66,3,136,34,19,135,62,98,164,240,77,117,183,292,118,156,215,218,12,284,177,283,87,39,150,64,80,259,43,121,152,23,210,94,138,222,49,128,9,154,52,57,13,291,296,264,60,280,255,180,279,123,290,212,130,214,6,231,0,95,58,244,235,238,257,161,54,262,273,51,40,125,241,140,107,179,209,223]"",""arrowright"",""0"",""0"",""90"",""300"",""[""""0070_N0300_K0090_NOCLIQUE"""",""""0088_N0300_K0090_CLIQUE""""]"","""",""true"""
","""","""","""","""",""audio-keyboard-response"",""52"",""519133"",""0.0-48.2-0.2-1.2"","""",""null"",""audio_feedback/right/coin01.mp3"",""null"","""","""",""0"",""0"",""90"",""300"",""[""""0070_N0300_K0090_NOCLIQUE"""",""""0088_N0300_K0090_CLIQUE""""]"","""","""""
","""","""","""","""",""canvas-keyboard-response"",""53"",""521501"",""0.0-49.0-0.0-0.0"","""",""2185"","""","" "",""[61,155,75,194,245,23,233,273,161,144,294,261,42,191,46,102,62,206,135,157,96,108,165,76,180,282,64,97,203,73,92,235,143,13,87,98,199,219,104,266,299,286,166,116,15,121,227,173,158,253,136,65,107,82,255,181,153,49,124,0,41,2,59,150,126,262,175,34,258,111,236,117,31,247,195,204,146,127,272,74,40,238,285,106,229,269,271,252,234,14,81,47,264,251,26,16,220,44,132,164,178,212,103,58,37,55,4,67,17,32,18,170,99,260,39,284,237,210,169,177,296,128,6,217,216,122,211,114,202,200,265,249,79,154,244,167,66,43,292,94,228,22,246,277,68,36,256,38,27,189,201,119,287,105,33,179,142,30,115,45,185,207,295,89,134,69,151,193,270,11,93,120,162,263,289,214,70,254,297,60,288,187,9,140,171,225,274,215,152,243,145,279,53,257,248,110,190,56,12,221,281,268,1,231,137,52,130,86,95,118,172,290,90,250,278,149,147,298,5,209,198,293,80,20,259,112,213,205,156,196,51,163,223,50,176,283,276,138,222,29,291,184,174,63,57,100,267,242,85,10,72,101,123,35,19,129,159,3,113,241,275,160,208,54,182,21,125,7,25,224,131,77,28,230,78,71,218,141,148,84,8,24,240,197,280,183,139,83,186,109,188,192,48,239,91,133,232,168,226,88]"",""arrowleft"",""0"",""1"",""90"",""300"",""[""""0099_N0300_K0090_CLIQUE"""",""""0080_N0300_K0090_NOCLIQUE""""]"","""","""""
","""","""","""","""",""audio-keyboard-response"",""54"",""522093"",""0.0-49.0-0.0-1.0"","""",""null"",""audio_feedback/shuffles/shuffle01.mp3"",""null"","""","""",""0"",""1"",""90"",""300"",""[""""0099_N0300_K0090_CLIQUE"""",""""0080_N0300_K0090_NOCLIQUE""""]"","""","""""
","""","""","""","""",""canvas-keyboard-response"",""55"",""523182"",""0.0-49.1-0.1-0.1"","""",""888"","""","" "",""[118,298,86,299,207,243,52,238,211,63,294,119,107,247,110,34,162,75,178,51,7,55,216,26,206,15,297,193,123,114,16,87,192,48,239,185,271,65,23,2,90,269,258,215,242,36,203,213,222,77,120,0,290,132,20,195,233,14,182,28,135,189,220,272,259,295,266,25,255,153,54,69,61,121,88,177,9,225,246,113,232,59,80,202,131,199,267,129,43,287,71,49,244,282,70,263,172,141,134,197,188,24,227,200,139,179,279,194,117,133,53,254,235,183,103,157,124,10,94,265,112,27,264,21,223,108,250,93,136,296,151,99,164,150,205,12,234,270,62,56,154,173,236,144,66,152,217,82,33,45,76,6,64,5,109,156,1,41,169,273,148,276,245,115,84,98,209,130,228,95,125,42,101,116,47,85,175,168,13,39,11,92,147,60,212,252,18,105,288,31,283,275,256,44,91,277,38,8,104,72,231,261,284,281,180,58,214,30,201,204,226,198,127,293,4,73,260,208,159,160,257,278,248,196,50,89,37,240,187,96,241,176,17,166,67,165,3,158,218,268,229,143,280,138,251,224,171,170,167,22,142,285,81,184,74,230,161,128,291,174,46,221,186,140,149,126,79,57,29,122,100,19,68,32,145,249,106,181,137,262,274,191,219,237,111,40,102,190,97,155,146,286,253,163,289,210,35,292,78,83]"",""arrowleft"",""0"",""1"",""90"",""300"",""[""""0099_N0300_K0090_CLIQUE"""",""""0080_N0300_K0090_NOCLIQUE""""]"","""","""""
","""","""","""","""",""audio-keyboard-response"",""56"",""523753"",""0.0-49.1-0.1-1.1"","""",""null"",""audio_feedback/shuffles/shuffle01.mp3"",""null"","""","""",""0"",""1"",""90"",""300"",""[""""0099_N0300_K0090_CLIQUE"""",""""0080_N0300_K0090_NOCLIQUE""""]"","""","""""
","""","""","""","""",""canvas-keyboard-response"",""57"",""524441"",""0.0-49.2-0.2-0.2"","""",""503"","""",""arrowleft"",""[227,121,14,203,170,15,267,250,100,159,1,295,145,6,17,164,136,107,229,88,12,255,292,118,152,168,291,70,285,67,245,16,91,147,273,52,234,137,165,187,106,271,286,188,181,216,35,154,258,275,163,20,257,155,204,57,298,262,10,81,252,95,69,272,75,200,142,242,34,259,230,19,206,143,178,247,76,212,56,89,185,119,218,24,3,58,238,296,225,266,236,114,43,73,116,217,9,63,150,134,49,40,246,11,283,209,219,173,196,85,18,287,251,32,191,105,214,190,221,117,62,55,284,22,293,161,210,186,198,182,65,158,131,31,141,270,126,207,167,249,42,45,254,268,288,179,211,157,248,77,192,29,39,53,50,21,269,146,7,156,122,123,54,138,277,30,189,93,241,46,74,13,180,195,174,169,132,133,78,278,166,220,48,84,175,61,71,94,26,279,183,109,263,226,102,37,231,92,36,294,199,260,79,177,194,129,97,232,60,160,33,197,51,224,148,289,135,110,240,87,239,130,83,233,281,202,2,125,222,244,80,128,299,103,25,237,0,5,68,297,265,112,47,66,98,261,162,213,104,290,96,144,276,8,140,184,264,38,153,223,280,113,28,108,193,27,243,151,59,111,228,23,253,64,201,90,208,205,215,139,4,82,176,120,99,172,72,41,124,44,235,171,274,101,282,127,256,115,149,86]"",""arrowleft"",""0"",""1"",""90"",""300"",""[""""0099_N0300_K0090_CLIQUE"""",""""0080_N0300_K0090_NOCLIQUE""""]"","""",""true"""
","""","""","""","""",""audio-keyboard-response"",""58"",""524854"",""0.0-49.2-0.2-1.2"","""",""null"",""audio_feedback/right/coin01.mp3"",""null"","""","""",""0"",""1"",""90"",""300"",""[""""0099_N0300_K0090_CLIQUE"""",""""0080_N0300_K0090_NOCLIQUE""""]"","""","""""
","""","""","""","""",""canvas-keyboard-response"",""59"",""526432"",""0.0-50.0-0.0-0.0"","""",""1415"","""","" "",""[109,285,230,88,176,259,155,281,211,134,104,22,23,164,190,77,156,299,293,193,63,272,249,65,17,174,212,5,286,175,13,296,196,131,168,254,0,245,110,143,158,130,184,112,186,169,99,139,34,261,98,228,294,120,57,58,189,277,128,20,115,105,132,129,147,199,197,165,144,12,282,258,82,91,161,219,108,138,247,182,275,203,113,38,35,235,37,206,10,149,201,267,124,279,119,265,216,210,41,178,80,269,69,257,217,116,268,252,9,92,33,154,200,187,141,137,25,64,198,185,227,71,270,220,177,290,96,3,180,53,136,260,181,237,241,273,26,166,6,70,45,183,48,295,266,170,151,103,213,289,209,52,46,148,123,223,208,40,76,163,221,42,205,173,226,202,55,78,106,204,248,145,24,243,49,142,157,224,146,250,102,30,100,233,191,84,207,215,298,278,287,240,125,44,36,29,251,47,159,18,81,195,28,54,83,86,51,171,66,214,246,11,262,94,255,4,225,31,7,253,140,114,118,2,90,117,27,231,39,297,59,218,121,179,283,93,280,167,153,256,292,244,56,97,85,50,239,162,14,160,127,232,276,68,16,288,194,107,192,32,122,111,236,87,73,264,21,60,74,43,135,234,229,79,238,133,274,152,172,62,15,291,89,101,61,284,126,271,8,75,150,67,263,188,72,242,1,222,19,95]"",""arrowright"",""0"",""2"",""80"",""300"",""[""""0051_N0300_K0080_NOCLIQUE"""",""""0017_N0300_K0080_CLIQUE""""]"","""","""""
","""","""","""","""",""audio-keyboard-response"",""60"",""527013"",""0.0-50.0-0.0-1.0"","""",""null"",""audio_feedback/shuffles/shuffle01.mp3"",""null"","""","""",""0"",""2"",""80"",""300"",""[""""0051_N0300_K0080_NOCLIQUE"""",""""0017_N0300_K0080_CLIQUE""""]"","""","""""
","""","""","""","""",""canvas-keyboard-response"",""61"",""528160"",""0.0-50.1-0.1-0.1"","""",""950"","""","" "",""[269,276,94,233,47,185,188,211,61,46,286,148,160,291,10,89,43,252,217,180,257,39,157,200,113,123,14,27,42,99,66,278,270,17,216,130,102,237,199,296,299,246,97,30,145,298,122,201,183,75,283,137,129,161,272,64,253,63,93,13,71,222,51,121,133,159,132,106,53,146,117,40,111,228,292,154,70,197,187,242,214,189,282,150,260,227,58,25,11,15,141,155,166,81,91,24,151,118,194,65,275,55,274,175,171,256,218,80,107,251,152,73,5,138,7,165,221,31,84,262,190,21,204,184,112,143,250,149,206,191,119,248,289,170,290,241,225,69,258,174,54,110,205,124,294,259,82,6,60,277,264,131,126,176,29,108,72,229,22,293,4,240,265,285,156,16,163,295,203,147,114,173,45,193,208,198,116,186,239,219,232,76,224,32,74,59,8,220,36,263,49,243,83,142,210,34,168,238,162,254,44,230,87,177,244,50,105,95,281,98,128,125,56,179,62,212,9,26,41,172,120,268,169,134,164,245,2,271,215,236,202,287,280,181,96,19,192,144,37,288,267,23,196,90,135,209,35,153,136,182,249,67,85,273,12,100,0,77,88,79,115,33,255,127,57,178,247,223,38,48,52,213,261,109,20,167,68,284,28,3,86,279,1,235,18,103,158,195,207,140,92,139,266,226,234,297,101,78,104,231]"",""arrowright"",""0"",""2"",""80"",""300"",""[""""0051_N0300_K0080_NOCLIQUE"""",""""0017_N0300_K0080_CLIQUE""""]"","""","""""
","""","""","""","""",""audio-keyboard-response"",""62"",""528733"",""0.0-50.1-0.1-1.1"","""",""null"",""audio_feedback/shuffles/shuffle01.mp3"",""null"","""","""",""0"",""2"",""80"",""300"",""[""""0051_N0300_K0080_NOCLIQUE"""",""""0017_N0300_K0080_CLIQUE""""]"","""","""""
","""","""","""","""",""canvas-keyboard-response"",""63"",""530500"",""0.0-50.2-0.2-0.2"","""",""1608"","""",""arrowright"",""[246,257,161,187,193,206,85,121,199,156,265,115,19,275,218,168,96,16,153,113,51,31,103,240,60,130,279,110,108,55,141,80,294,259,107,178,7,219,255,147,106,75,133,285,149,261,297,59,162,225,154,26,29,203,145,53,88,117,177,30,40,150,99,241,58,212,185,235,298,35,44,155,28,237,119,234,196,61,164,52,71,276,278,223,64,118,126,281,271,144,232,288,104,173,287,49,41,286,180,222,33,280,146,194,74,192,292,98,124,207,66,263,197,159,230,205,213,174,109,167,127,171,233,143,129,200,166,1,175,267,224,163,92,123,289,243,190,249,221,252,266,24,91,95,82,27,21,262,157,248,209,245,81,56,189,268,227,22,182,8,229,211,256,11,37,34,128,6,242,70,172,93,284,125,247,132,291,217,169,253,89,299,195,43,105,87,296,254,179,170,122,208,274,13,215,39,238,77,46,131,183,293,184,201,258,67,191,138,214,204,165,48,23,9,12,134,188,17,186,4,152,202,45,97,137,73,236,250,220,94,5,50,136,0,198,112,272,244,90,68,273,210,101,69,270,140,283,84,57,290,120,20,139,25,251,63,228,114,226,158,181,295,160,62,83,216,100,79,15,231,102,269,72,42,264,76,142,65,3,78,2,239,54,260,151,18,116,282,135,10,148,86,14,47,176,38,36,32,111,277]"",""arrowright"",""0"",""2"",""80"",""300"",""[""""0051_N0300_K0080_NOCLIQUE"""",""""0017_N0300_K0080_CLIQUE""""]"","""",""true"""
","""","""","""","""",""audio-keyboard-response"",""64"",""530913"",""0.0-50.2-0.2-1.2"","""",""null"",""audio_feedback/right/coin01.mp3"",""null"","""","""",""0"",""2"",""80"",""300"",""[""""0051_N0300_K0080_NOCLIQUE"""",""""0017_N0300_K0080_CLIQUE""""]"","""","""""
","""","""","""","""",""canvas-keyboard-response"",""65"",""532011"",""0.0-51.0-0.0-0.0"","""",""927"","""","" "",""[64,58,184,275,108,167,137,87,235,126,47,292,0,114,141,196,1,230,154,259,14,153,39,232,200,183,295,228,274,54,172,185,138,72,277,178,60,65,28,283,286,296,265,193,76,29,111,66,38,16,240,115,2,6,23,30,252,221,61,132,43,169,85,147,110,258,91,3,34,206,53,93,181,62,122,272,213,299,264,199,106,190,250,8,284,288,245,82,174,216,246,157,262,210,52,217,124,251,266,25,140,92,253,155,209,90,168,187,133,95,107,151,186,118,276,73,57,173,204,146,125,121,241,237,12,79,280,9,233,260,197,102,80,150,20,198,269,226,257,116,113,287,243,148,279,7,56,285,164,37,162,249,145,158,27,21,103,19,290,109,81,225,166,179,289,136,194,24,31,50,75,248,33,83,224,212,236,270,234,41,134,281,35,188,94,143,142,131,40,219,89,135,44,244,268,84,119,15,192,48,152,68,202,163,294,112,254,130,291,214,70,170,231,10,223,267,101,42,104,128,175,4,238,263,156,69,55,77,256,165,182,129,239,293,97,127,278,86,161,222,247,207,211,298,96,227,13,99,191,51,26,11,120,271,215,36,261,159,18,176,180,255,17,22,98,117,59,32,123,203,100,105,205,139,273,220,218,5,195,171,67,297,160,78,63,49,282,71,229,46,189,144,74,242,45,208,149,88,177,201]"",""arrowright"",""0"",""3"",""80"",""300"",""[""""0058_N0300_K0080_NOCLIQUE"""",""""0029_N0300_K0080_CLIQUE""""]"","""","""""
","""","""","""","""",""audio-keyboard-response"",""66"",""532593"",""0.0-51.0-0.0-1.0"","""",""null"",""audio_feedback/shuffles/shuffle01.mp3"",""null"","""","""",""0"",""3"",""80"",""300"",""[""""0058_N0300_K0080_NOCLIQUE"""",""""0029_N0300_K0080_CLIQUE""""]"","""","""""
","""","""","""","""",""canvas-keyboard-response"",""67"",""533462"",""0.0-51.1-0.1-0.1"","""",""703"","""","" "",""[202,267,68,76,269,270,22,25,14,38,55,268,104,213,50,39,72,152,244,89,9,159,183,191,212,232,238,294,4,160,157,64,111,33,235,78,53,79,293,138,181,49,12,226,162,261,206,197,69,17,144,275,211,48,173,40,280,167,73,136,130,205,36,185,174,71,254,32,204,54,237,196,117,3,100,107,227,257,252,258,135,145,180,278,34,209,172,188,110,288,250,243,122,249,225,7,5,175,59,16,93,156,112,35,126,0,23,276,134,166,193,239,190,195,295,62,11,120,208,201,81,263,200,184,266,90,217,154,77,246,124,65,128,255,47,245,31,20,142,13,177,133,296,52,219,220,92,121,56,273,259,86,85,29,253,187,103,216,131,221,123,2,207,179,285,140,281,75,260,186,94,98,101,82,118,60,279,63,125,116,58,210,88,192,10,61,46,148,28,143,189,96,236,27,51,176,80,113,231,153,262,241,114,161,26,214,169,283,182,41,198,105,97,292,277,137,91,264,215,284,297,108,164,282,19,99,298,44,37,139,222,8,57,115,242,84,274,287,165,234,70,67,170,87,132,271,240,178,229,228,203,223,149,66,151,43,171,15,74,248,147,6,109,290,233,83,146,18,119,272,289,251,230,127,30,24,291,158,247,199,224,95,141,299,102,21,218,265,286,155,256,1,168,42,163,150,194,106,45,129]"",""arrowright"",""0"",""3"",""80"",""300"",""[""""0058_N0300_K0080_NOCLIQUE"""",""""0029_N0300_K0080_CLIQUE""""]"","""","""""
","""","""","""","""",""audio-keyboard-response"",""68"",""534033"",""0.0-51.1-0.1-1.1"","""",""null"",""audio_feedback/shuffles/shuffle01.mp3"",""null"","""","""",""0"",""3"",""80"",""300"",""[""""0058_N0300_K0080_NOCLIQUE"""",""""0029_N0300_K0080_CLIQUE""""]"","""","""""
","""","""","""","""",""canvas-keyboard-response"",""69"",""534710"",""0.0-51.2-0.2-0.2"","""",""506"","""",""arrowright"",""[259,269,98,286,57,217,198,145,30,251,135,115,284,199,209,211,112,26,293,8,56,95,101,31,267,226,294,153,41,97,27,194,168,122,48,162,150,191,65,22,164,227,129,66,260,138,15,5,92,4,220,298,268,142,24,243,165,235,273,178,76,79,84,158,68,147,238,161,224,248,61,287,67,28,85,33,108,249,175,19,156,257,72,3,200,9,10,201,240,91,288,216,116,229,169,137,136,280,99,82,172,244,148,204,237,275,155,21,16,190,130,78,292,231,96,241,81,272,274,89,70,80,77,75,120,74,59,185,210,299,189,23,125,93,212,174,29,246,256,157,188,195,104,283,203,255,105,170,39,53,100,254,154,132,184,51,106,143,208,124,52,35,271,118,1,166,242,86,247,151,90,117,202,128,239,278,214,152,14,102,94,18,62,134,296,73,110,12,127,266,69,281,37,63,2,228,192,45,205,182,173,179,109,262,177,38,55,49,245,197,183,223,289,60,222,230,290,233,114,113,163,146,176,264,47,180,196,213,50,126,225,265,111,121,219,160,276,277,64,43,83,282,40,123,234,107,258,17,295,20,181,140,32,171,207,167,252,103,11,193,71,139,131,54,36,218,46,0,34,206,221,144,7,87,149,186,250,159,42,187,58,261,236,279,44,285,263,270,291,215,297,133,141,88,253,232,25,119,13,6]"",""arrowright"",""0"",""3"",""80"",""300"",""[""""0058_N0300_K0080_NOCLIQUE"""",""""0029_N0300_K0080_CLIQUE""""]"","""",""true"""
","""","""","""","""",""audio-keyboard-response"",""70"",""535133"",""0.0-51.2-0.2-1.2"","""",""null"",""audio_feedback/right/coin01.mp3"",""null"","""","""",""0"",""3"",""80"",""300"",""[""""0058_N0300_K0080_NOCLIQUE"""",""""0029_N0300_K0080_CLIQUE""""]"","""","""""
","""","""","""","""",""canvas-keyboard-response"",""71"",""535811"",""0.0-52.0-0.0-0.0"","""",""509"","""","" "",""[147,184,205,294,81,61,31,77,278,151,285,6,179,269,196,156,199,169,82,207,2,241,172,230,67,268,297,238,295,103,7,129,18,157,191,43,232,244,201,154,233,68,261,112,171,185,166,160,284,127,252,5,70,213,214,140,73,3,228,131,281,120,158,186,267,217,41,280,58,44,234,239,262,250,25,9,57,87,226,115,178,99,64,192,255,253,60,271,173,277,63,177,141,107,110,225,72,182,264,298,27,203,153,15,161,148,258,17,13,152,98,248,170,113,256,136,62,34,122,188,142,218,130,84,251,1,159,106,299,274,116,97,164,180,296,119,16,145,74,194,100,88,183,266,38,32,168,0,288,212,290,206,221,202,26,109,21,12,118,20,265,143,275,283,105,235,282,220,200,95,215,96,35,272,259,52,270,229,125,208,216,227,139,79,237,83,132,210,46,8,197,245,51,53,146,66,167,187,249,19,86,33,219,150,287,137,162,231,29,101,286,236,223,211,155,71,293,222,224,204,10,54,92,257,75,111,247,289,133,260,55,189,49,195,39,292,135,24,276,94,50,163,117,104,138,76,114,78,209,246,176,128,198,149,121,56,47,40,23,59,4,42,65,242,190,291,134,30,48,69,11,108,144,279,80,37,240,175,174,123,102,14,126,28,89,85,36,263,22,193,181,254,90,93,45,165,91,273,243,124]"",""arrowleft"",""0"",""4"",""70"",""300"",""[""""0097_N0300_K0070_CLIQUE"""",""""0031_N0300_K0070_NOCLIQUE""""]"","""","""""
","""","""","""","""",""audio-keyboard-response"",""72"",""536395"",""0.0-52.0-0.0-1.0"","""",""null"",""audio_feedback/shuffles/shuffle01.mp3"",""null"","""","""",""0"",""4"",""70"",""300"",""[""""0097_N0300_K0070_CLIQUE"""",""""0031_N0300_K0070_NOCLIQUE""""]"","""","""""
","""","""","""","""",""canvas-keyboard-response"",""73"",""537091"",""0.0-52.1-0.1-0.1"","""",""529"","""","" "",""[37,279,288,13,223,1,129,98,50,171,261,56,84,228,254,42,192,249,107,276,285,204,191,66,135,143,99,263,59,136,289,158,269,118,159,266,72,221,69,28,287,155,47,126,79,73,189,23,274,201,207,244,142,297,80,200,199,250,140,106,252,88,27,215,157,38,58,133,163,134,216,267,3,86,93,103,152,262,130,236,125,9,255,206,5,294,137,117,271,148,198,83,166,210,181,185,52,212,35,205,186,82,220,19,208,153,4,48,12,131,173,235,268,243,172,132,170,68,21,36,256,96,241,281,156,246,121,144,257,139,248,264,194,7,165,176,292,15,161,260,272,124,211,114,61,46,77,76,169,202,245,174,0,20,90,127,87,197,253,278,128,239,209,258,25,91,97,222,283,2,147,14,273,78,188,275,141,224,34,94,6,232,259,110,180,29,49,296,75,109,150,105,24,30,44,291,39,270,116,16,230,203,112,108,226,154,145,178,123,286,51,32,104,177,102,151,233,293,193,196,229,214,41,111,225,113,74,64,175,115,95,45,182,282,184,53,217,43,168,100,247,240,31,22,160,85,299,234,101,146,213,63,10,65,164,120,81,237,162,89,183,195,60,92,57,265,238,187,231,67,290,284,54,11,122,119,227,138,218,18,298,40,62,70,33,179,251,8,71,17,280,167,26,242,55,277,190,295,149,219]"",""arrowleft"",""0"",""4"",""70"",""300"",""[""""0097_N0300_K0070_CLIQUE"""",""""0031_N0300_K0070_NOCLIQUE""""]"","""","""""
","""","""","""","""",""audio-keyboard-response"",""74"",""537673"",""0.0-52.1-0.1-1.1"","""",""null"",""audio_feedback/shuffles/shuffle01.mp3"",""null"","""","""",""0"",""4"",""70"",""300"",""[""""0097_N0300_K0070_CLIQUE"""",""""0031_N0300_K0070_NOCLIQUE""""]"","""","""""
","""","""","""","""",""canvas-keyboard-response"",""75"",""539860"",""0.0-52.2-0.2-0.2"","""",""1975"","""",""arrowleft"",""[75,49,19,115,87,163,39,208,230,117,274,129,178,1,84,120,228,201,38,54,35,207,114,209,152,100,122,278,280,213,127,3,65,16,57,167,0,68,13,108,194,103,277,116,244,63,164,4,98,189,146,88,25,139,166,165,131,136,128,132,34,147,295,51,242,9,20,137,197,223,107,229,148,95,221,85,76,272,150,50,96,30,168,119,40,26,297,2,169,106,18,239,22,21,254,28,192,255,138,10,233,61,252,141,48,12,64,202,195,92,264,273,47,105,222,155,232,282,8,172,184,125,218,32,212,91,55,259,191,157,271,130,72,225,176,268,45,171,260,80,151,134,281,99,257,226,93,144,193,265,142,181,270,89,52,102,183,101,153,200,58,236,227,266,298,263,83,24,113,177,23,287,162,70,261,140,289,203,211,31,276,133,190,187,216,220,154,78,237,33,279,71,284,82,210,258,204,135,238,11,123,97,126,27,90,294,104,94,219,198,86,111,283,185,73,160,186,15,205,293,156,60,145,59,77,109,159,250,179,112,41,42,196,243,180,275,174,149,292,188,175,249,240,43,170,267,285,288,286,251,215,246,214,69,206,56,262,62,17,29,299,158,245,66,121,118,14,53,67,7,143,46,217,161,199,248,79,124,74,36,256,44,81,231,6,241,291,5,235,269,253,37,234,110,182,224,290,173,247,296]"",""arrowleft"",""0"",""4"",""70"",""300"",""[""""0097_N0300_K0070_CLIQUE"""",""""0031_N0300_K0070_NOCLIQUE""""]"","""",""true"""
","""","""","""","""",""audio-keyboard-response"",""76"",""540273"",""0.0-52.2-0.2-1.2"","""",""null"",""audio_feedback/right/coin01.mp3"",""null"","""","""",""0"",""4"",""70"",""300"",""[""""0097_N0300_K0070_CLIQUE"""",""""0031_N0300_K0070_NOCLIQUE""""]"","""","""""
","""","""","""","""",""canvas-keyboard-response"",""77"",""541271"",""0.0-53.0-0.0-0.0"","""",""828"","""","" "",""[76,179,262,189,41,299,293,181,72,297,229,52,205,80,184,112,142,237,34,33,154,57,103,16,138,11,258,79,140,28,14,276,235,0,56,271,165,3,221,204,50,110,177,260,236,292,251,54,150,25,104,55,230,66,217,84,119,78,118,239,183,87,134,149,264,36,197,198,82,171,27,295,159,48,42,22,178,210,241,278,92,62,117,39,207,127,74,120,59,106,5,53,173,215,51,123,83,43,261,137,218,77,10,256,238,294,290,187,65,250,133,101,174,158,206,172,263,211,91,8,167,131,97,100,26,21,288,186,246,227,156,49,244,68,282,45,231,9,242,96,265,216,254,46,89,124,194,226,151,168,182,31,277,71,2,108,195,252,15,143,111,162,126,116,170,86,220,145,122,203,274,40,1,94,279,109,64,214,248,275,70,157,73,199,32,135,18,185,224,17,270,193,132,240,114,61,30,85,249,130,19,267,255,273,269,213,266,188,98,153,175,93,280,208,144,163,180,287,6,247,281,141,160,228,67,95,129,24,233,23,35,202,47,152,253,289,13,81,128,60,212,44,139,58,272,63,12,161,257,115,291,29,259,38,37,99,155,298,245,121,176,164,7,191,201,296,284,125,146,283,75,225,69,166,20,136,90,232,113,148,147,285,234,169,200,105,222,192,223,268,190,219,107,243,88,209,286,196,4,102]"",""arrowright"",""0"",""5"",""70"",""300"",""[""""0013_N0300_K0070_NOCLIQUE"""",""""0055_N0300_K0070_CLIQUE""""]"","""","""""
","""","""","""","""",""audio-keyboard-response"",""78"",""541853"",""0.0-53.0-0.0-1.0"","""",""null"",""audio_feedback/shuffles/shuffle01.mp3"",""null"","""","""",""0"",""5"",""70"",""300"",""[""""0013_N0300_K0070_NOCLIQUE"""",""""0055_N0300_K0070_CLIQUE""""]"","""","""""
","""","""","""","""",""canvas-keyboard-response"",""79"",""542861"",""0.0-53.1-0.1-0.1"","""",""844"","""","" "",""[61,89,102,140,205,10,137,156,153,191,40,220,2,259,115,278,271,182,54,75,192,129,254,281,110,269,161,11,22,55,4,217,65,264,177,119,51,118,9,257,127,227,185,163,58,33,211,34,145,225,238,270,277,63,169,174,17,6,139,266,206,62,159,15,141,219,128,69,113,92,229,60,197,290,207,101,221,240,103,284,196,294,295,31,36,157,28,138,199,27,107,20,189,198,222,14,296,241,215,85,49,214,283,111,57,78,13,52,3,268,43,193,247,208,35,167,97,181,233,173,126,16,42,106,121,298,48,275,136,98,117,299,120,134,21,66,282,168,180,297,285,71,262,165,160,37,171,105,131,261,248,79,188,201,32,30,5,223,289,251,143,41,109,213,183,276,45,149,224,273,202,86,146,24,44,293,176,90,84,209,70,0,1,82,81,7,172,204,246,253,236,239,234,292,256,175,178,280,291,12,148,272,194,93,108,77,288,226,200,187,235,100,83,116,151,184,237,56,73,19,18,76,263,231,53,95,130,147,195,122,287,216,88,250,114,232,125,38,74,242,274,46,286,218,164,245,210,26,133,155,243,8,154,64,47,94,258,72,190,124,244,142,96,68,59,279,166,255,39,25,212,80,150,260,132,99,91,158,267,29,50,135,203,144,252,170,23,123,179,112,186,152,249,162,87,228,104,265,230,67]"",""arrowright"",""0"",""5"",""70"",""300"",""[""""0013_N0300_K0070_NOCLIQUE"""",""""0055_N0300_K0070_CLIQUE""""]"","""","""""
","""","""","""","""",""audio-keyboard-response"",""80"",""543433"",""0.0-53.1-0.1-1.1"","""",""null"",""audio_feedback/shuffles/shuffle01.mp3"",""null"","""","""",""0"",""5"",""70"",""300"",""[""""0013_N0300_K0070_NOCLIQUE"""",""""0055_N0300_K0070_CLIQUE""""]"","""","""""
","""","""","""","""",""canvas-keyboard-response"",""81"",""544051"",""0.0-53.2-0.2-0.2"","""",""449"","""",""arrowright"",""[10,99,92,247,251,50,178,142,165,267,148,0,295,230,103,272,111,163,270,109,29,23,194,11,173,74,175,190,128,203,61,274,59,250,219,155,153,174,140,245,114,124,169,2,132,227,257,36,18,38,44,284,197,299,243,162,82,47,289,282,113,31,156,22,16,196,238,207,255,285,183,41,286,84,201,25,80,204,293,120,60,78,205,225,248,232,266,83,5,72,265,97,52,221,237,58,151,116,222,147,167,12,137,129,279,118,131,208,107,119,75,262,96,159,127,7,122,258,130,164,66,77,1,136,223,68,252,199,91,100,220,154,177,115,176,294,43,182,105,259,290,231,9,146,213,172,144,226,79,28,87,104,281,138,158,224,15,30,21,249,209,198,33,63,276,102,94,187,166,65,161,234,157,141,76,181,39,24,268,81,55,273,4,229,292,212,64,17,139,254,179,70,214,14,110,40,244,188,186,160,133,168,106,236,121,45,86,246,32,46,20,283,185,13,170,239,67,89,88,93,98,278,297,261,123,263,125,217,233,37,260,26,280,228,149,134,291,48,112,135,218,6,69,215,202,296,8,3,184,275,150,19,85,264,90,117,288,54,171,191,101,27,34,269,56,192,242,271,193,62,211,210,35,108,51,53,287,95,145,180,298,143,71,49,253,73,42,126,189,216,195,277,256,57,235,152,200,241,240,206]"",""arrowright"",""0"",""5"",""70"",""300"",""[""""0013_N0300_K0070_NOCLIQUE"""",""""0055_N0300_K0070_CLIQUE""""]"","""",""true"""
","""","""","""","""",""audio-keyboard-response"",""82"",""544473"",""0.0-53.2-0.2-1.2"","""",""null"",""audio_feedback/right/coin01.mp3"",""null"","""","""",""0"",""5"",""70"",""300"",""[""""0013_N0300_K0070_NOCLIQUE"""",""""0055_N0300_K0070_CLIQUE""""]"","""","""""
","""","""","""","""",""canvas-keyboard-response"",""83"",""546601"",""0.0-54.0-0.0-0.0"","""",""1961"","""","" "",""[156,217,122,113,123,222,291,245,246,208,238,204,295,150,215,34,54,147,119,187,30,139,191,57,68,118,157,2,163,169,62,12,49,258,100,24,241,79,151,279,120,297,64,264,127,224,253,0,262,83,85,121,152,73,51,81,221,234,162,237,212,205,142,216,188,128,143,164,255,269,8,154,166,273,124,198,97,290,176,96,88,194,136,41,22,260,294,18,80,158,186,131,211,33,35,214,78,92,135,240,235,58,19,247,69,175,109,61,161,206,48,99,168,44,95,98,89,266,70,282,159,145,74,94,144,207,171,42,299,173,193,200,101,39,15,178,87,249,228,56,292,257,180,239,233,270,220,275,236,271,108,75,218,192,170,230,243,105,280,17,112,31,259,76,40,23,5,286,256,197,209,278,50,3,284,9,190,265,67,133,261,274,141,155,226,203,231,63,111,167,268,28,65,126,130,288,146,227,71,183,52,25,26,281,242,202,14,184,252,7,138,137,91,32,29,129,38,106,36,104,59,115,114,82,77,223,20,103,225,283,196,16,285,232,177,219,160,21,1,153,189,148,251,210,27,110,272,276,11,213,248,93,172,229,287,90,134,293,45,298,125,244,47,254,13,116,132,60,72,165,277,6,179,296,53,66,46,140,195,4,84,43,174,37,267,250,199,289,10,117,55,182,201,149,107,102,181,185,263,86]"",""arrowleft"",""0"",""6"",""65"",""300"",""[""""0018_N0300_K0065_CLIQUE"""",""""0031_N0300_K0065_NOCLIQUE""""]"","""","""""
","""","""","""","""",""audio-keyboard-response"",""84"",""547173"",""0.0-54.0-0.0-1.0"","""",""null"",""audio_feedback/shuffles/shuffle01.mp3"",""null"","""","""",""0"",""6"",""65"",""300"",""[""""0018_N0300_K0065_CLIQUE"""",""""0031_N0300_K0065_NOCLIQUE""""]"","""","""""
","""","""","""","""",""canvas-keyboard-response"",""85"",""548341"",""0.0-54.1-0.1-0.1"","""",""1000"","""","" "",""[256,83,154,293,200,62,32,135,273,44,95,271,8,21,98,47,250,269,100,76,211,172,275,205,15,3,141,160,71,118,262,220,237,123,115,128,137,299,229,51,107,248,64,196,264,111,89,79,241,289,122,164,152,53,106,140,54,112,192,45,134,117,24,295,162,151,186,97,163,66,177,50,58,2,199,69,65,25,105,243,296,260,287,261,176,283,4,239,146,75,104,259,174,22,231,233,249,129,178,29,132,212,34,46,168,37,136,202,258,298,121,147,94,180,159,68,11,183,43,88,19,175,225,274,272,148,145,120,201,255,87,133,72,170,23,252,67,244,184,82,33,39,281,130,191,206,150,0,173,142,113,193,149,230,245,224,276,219,70,288,77,223,108,240,18,55,84,234,165,265,277,267,222,285,188,114,297,26,35,292,153,242,282,210,41,110,42,57,116,131,257,290,214,30,227,187,169,99,247,63,40,73,143,125,27,157,9,36,126,198,236,48,14,251,209,171,195,203,144,61,226,221,253,279,182,286,167,194,181,12,60,215,166,270,28,103,7,266,5,1,86,294,213,156,204,189,235,101,228,268,179,139,138,208,49,56,284,13,81,280,119,10,52,254,6,38,85,158,20,161,91,155,16,127,278,216,31,90,263,96,238,232,78,74,291,80,124,59,102,109,207,93,92,217,190,218,185,17,246,197]"",""arrowleft"",""0"",""6"",""65"",""300"",""[""""0018_N0300_K0065_CLIQUE"""",""""0031_N0300_K0065_NOCLIQUE""""]"","""","""""
","""","""","""","""",""audio-keyboard-response"",""86"",""548913"",""0.0-54.1-0.1-1.1"","""",""null"",""audio_feedback/shuffles/shuffle01.mp3"",""null"","""","""",""0"",""6"",""65"",""300"",""[""""0018_N0300_K0065_CLIQUE"""",""""0031_N0300_K0065_NOCLIQUE""""]"","""","""""
","""","""","""","""",""canvas-keyboard-response"",""87"",""550301"",""0.0-54.2-0.2-0.2"","""",""1180"","""",""arrowleft"",""[193,91,157,266,44,154,27,244,260,72,210,297,211,1,78,231,121,251,88,58,168,163,47,23,84,129,111,221,115,16,254,135,31,283,178,104,107,90,204,232,143,236,173,25,77,13,112,229,55,29,249,61,57,180,167,82,224,140,99,294,239,123,268,0,246,26,203,12,255,46,35,147,190,70,243,185,182,118,241,68,290,130,134,145,149,109,150,258,76,101,263,275,97,188,105,89,102,240,64,8,7,42,230,148,41,280,214,79,174,277,172,222,165,5,151,186,295,48,184,213,225,284,53,238,209,274,22,201,83,234,162,146,37,197,131,164,40,267,269,271,52,262,144,272,9,38,264,223,181,176,3,138,59,19,252,177,94,137,60,288,80,217,242,166,202,32,270,86,81,196,33,205,113,141,152,226,208,92,212,116,219,73,256,296,110,2,24,245,227,273,189,18,216,282,14,299,120,279,237,126,85,139,87,71,187,10,220,45,170,289,103,247,34,122,278,228,124,200,28,6,298,50,171,235,106,156,261,114,250,199,133,74,265,161,56,30,218,69,21,100,39,136,191,253,65,175,155,96,281,285,63,67,62,15,127,192,51,54,98,43,248,153,119,125,198,36,207,17,75,233,128,93,158,293,159,132,259,160,276,183,169,108,195,206,49,95,286,292,20,11,287,257,291,194,179,117,142,66,4,215]"",""arrowleft"",""0"",""6"",""65"",""300"",""[""""0018_N0300_K0065_CLIQUE"""",""""0031_N0300_K0065_NOCLIQUE""""]"","""",""true"""
","""","""","""","""",""audio-keyboard-response"",""88"",""550713"",""0.0-54.2-0.2-1.2"","""",""null"",""audio_feedback/right/coin01.mp3"",""null"","""","""",""0"",""6"",""65"",""300"",""[""""0018_N0300_K0065_CLIQUE"""",""""0031_N0300_K0065_NOCLIQUE""""]"","""","""""
","""","""","""","""",""canvas-keyboard-response"",""89"",""551622"",""0.0-55.0-0.0-0.0"","""",""715"","""","" "",""[188,131,281,24,64,213,112,185,225,196,223,81,154,136,271,68,111,70,202,41,194,273,40,264,232,34,31,92,144,13,283,139,238,125,296,8,224,259,152,142,18,74,132,299,252,73,262,86,190,200,171,268,43,149,156,294,151,292,75,138,237,205,219,241,277,96,246,33,258,222,176,135,97,147,101,82,235,234,51,83,158,45,95,265,175,0,54,254,231,186,141,26,23,227,119,107,251,129,79,128,117,36,163,243,253,5,44,161,103,3,165,145,245,157,195,32,169,297,282,177,72,42,248,244,17,160,130,127,218,212,71,14,4,193,274,133,110,287,53,236,89,256,257,100,12,39,216,295,55,113,279,94,270,242,201,25,250,208,288,239,6,10,91,280,104,267,105,63,206,78,15,162,80,93,35,9,143,221,77,293,191,65,209,148,50,210,22,109,183,21,140,168,90,178,217,84,220,76,99,229,260,276,211,291,2,187,47,170,174,134,123,166,48,57,173,192,184,261,59,155,189,122,289,278,137,102,159,275,240,198,87,247,266,67,203,16,38,46,52,249,62,19,214,233,124,230,108,172,269,11,30,120,180,66,204,28,255,1,197,118,164,29,98,85,284,215,69,272,61,199,116,286,106,226,7,228,285,114,298,20,207,179,182,153,115,126,150,290,60,167,121,27,88,56,58,37,146,181,263,49]"",""arrowleft"",""0"",""7"",""65"",""300"",""[""""0024_N0300_K0065_CLIQUE"""",""""0018_N0300_K0065_NOCLIQUE""""]"","""","""""
","""","""","""","""",""audio-keyboard-response"",""90"",""552193"",""0.0-55.0-0.0-1.0"","""",""null"",""audio_feedback/shuffles/shuffle01.mp3"",""null"","""","""",""0"",""7"",""65"",""300"",""[""""0024_N0300_K0065_CLIQUE"""",""""0018_N0300_K0065_NOCLIQUE""""]"","""","""""
","""","""","""","""",""canvas-keyboard-response"",""91"",""553651"",""0.0-55.1-0.1-0.1"","""",""1279"","""","" "",""[251,10,125,267,277,90,100,88,119,281,152,143,77,26,207,171,233,0,252,108,284,229,120,32,51,102,242,131,79,275,114,257,135,218,210,232,180,279,7,228,66,128,238,47,192,161,3,240,110,42,261,138,36,200,215,146,71,65,249,124,239,196,11,197,201,255,190,270,69,231,164,133,282,76,103,213,258,141,272,27,53,148,262,297,121,211,127,68,204,20,237,154,55,165,290,156,25,49,226,126,73,134,19,56,2,185,14,80,283,188,269,158,15,72,104,130,168,241,219,295,256,187,122,1,150,117,115,217,263,285,248,16,245,159,163,244,288,96,137,37,75,216,61,221,67,78,87,91,296,64,17,236,209,268,276,54,13,177,109,116,111,176,113,278,139,260,123,149,34,83,97,235,92,8,206,31,184,23,264,85,155,98,280,57,205,170,254,253,153,174,234,250,293,243,145,151,48,112,41,181,45,30,202,157,299,50,24,35,89,265,84,140,12,199,198,63,294,59,266,21,166,186,212,224,99,62,246,289,194,169,144,160,298,58,6,60,173,95,162,52,193,208,178,271,118,81,230,106,129,46,182,225,4,286,107,74,195,292,82,105,43,259,18,287,70,179,29,9,247,5,147,132,39,142,22,86,274,101,222,175,227,44,33,93,40,214,136,167,191,28,223,203,183,38,291,94,220,273,189,172]"",""arrowleft"",""0"",""7"",""65"",""300"",""[""""0024_N0300_K0065_CLIQUE"""",""""0018_N0300_K0065_NOCLIQUE""""]"","""","""""
","""","""","""","""",""audio-keyboard-response"",""92"",""554234"",""0.0-55.1-0.1-1.1"","""",""null"",""audio_feedback/shuffles/shuffle01.mp3"",""null"","""","""",""0"",""7"",""65"",""300"",""[""""0024_N0300_K0065_CLIQUE"""",""""0018_N0300_K0065_NOCLIQUE""""]"","""","""""
","""","""","""","""",""canvas-keyboard-response"",""93"",""557911"",""0.0-55.2-0.2-0.2"","""",""3499"","""",""arrowleft"",""[244,223,11,187,230,40,32,207,138,216,237,202,89,219,73,37,110,119,82,282,26,85,152,120,104,233,267,87,209,161,2,184,261,227,298,272,264,281,106,189,248,249,240,38,275,238,117,153,105,83,252,108,286,48,41,162,46,250,25,155,95,142,143,50,68,183,235,33,30,266,288,35,194,160,290,43,100,195,127,21,232,75,12,130,128,90,172,257,135,158,74,15,177,122,168,214,293,10,159,64,276,278,47,136,81,173,212,93,167,197,246,154,260,254,289,191,284,164,101,92,42,134,242,262,14,273,124,58,97,215,60,49,148,123,91,139,99,245,192,157,18,226,126,253,236,170,13,190,234,296,107,53,115,205,204,225,131,175,52,44,295,292,129,67,20,243,3,17,265,224,72,22,268,211,0,188,210,8,51,121,217,156,132,263,9,19,98,45,24,199,66,196,145,200,270,229,241,23,109,133,54,146,111,62,222,114,34,4,277,247,231,182,294,71,80,144,299,239,79,291,149,86,7,102,279,1,57,213,186,297,179,147,77,36,31,174,28,141,16,180,150,218,94,56,274,113,29,125,208,118,271,221,166,198,5,6,201,69,78,103,169,59,287,193,206,178,280,112,203,283,76,55,259,116,165,176,151,269,256,137,27,285,61,255,84,251,228,171,63,258,220,163,181,39,140,88,65,96,185,70]"",""arrowleft"",""0"",""7"",""65"",""300"",""[""""0024_N0300_K0065_CLIQUE"""",""""0018_N0300_K0065_NOCLIQUE""""]"","""",""true"""
","""","""","""","""",""audio-keyboard-response"",""94"",""558333"",""0.0-55.2-0.2-1.2"","""",""null"",""audio_feedback/right/coin01.mp3"",""null"","""","""",""0"",""7"",""65"",""300"",""[""""0024_N0300_K0065_CLIQUE"""",""""0018_N0300_K0065_NOCLIQUE""""]"","""","""""
","""","""","""","""",""canvas-keyboard-response"",""95"",""559303"",""0.0-56.0-0.0-0.0"","""",""790"","""","" "",""[271,78,30,26,267,36,168,110,194,177,189,215,94,262,261,141,151,202,83,154,70,128,176,259,35,131,283,160,249,184,106,167,143,199,217,15,220,223,101,288,244,179,239,158,212,216,54,7,289,127,21,210,16,61,213,121,279,149,93,140,247,268,27,182,29,50,254,119,204,173,103,245,148,87,105,125,260,58,196,55,8,136,92,290,292,291,205,147,195,62,81,112,275,48,52,181,67,139,252,175,152,299,17,235,73,256,265,274,243,193,250,71,2,178,86,0,224,89,13,164,214,145,45,248,6,203,82,133,124,191,5,96,1,51,3,23,41,104,32,44,281,264,287,161,225,255,10,76,230,126,66,25,270,282,37,156,34,132,80,172,77,229,201,68,180,277,232,166,246,102,20,79,85,57,266,257,263,197,43,46,269,31,56,159,198,65,135,222,4,240,109,241,47,84,9,174,33,242,163,295,192,42,22,162,208,60,64,284,153,108,99,169,221,134,200,69,234,113,88,38,155,218,90,190,91,258,115,39,95,114,273,120,98,183,209,226,138,165,297,296,185,298,118,28,146,227,142,286,228,157,130,53,63,219,111,107,100,233,74,238,187,123,293,211,59,285,19,18,129,237,117,206,75,12,150,11,72,253,14,231,171,272,170,49,40,144,137,24,207,280,122,97,294,116,186,188,278,276,251,236]"",""arrowright"",""0"",""8"",""60"",""300"",""[""""0011_N0300_K0060_NOCLIQUE"""",""""0008_N0300_K0060_CLIQUE""""]"","""","""""
","""","""","""","""",""audio-keyboard-response"",""96"",""559873"",""0.0-56.0-0.0-1.0"","""",""null"",""audio_feedback/shuffles/shuffle01.mp3"",""null"","""","""",""0"",""8"",""60"",""300"",""[""""0011_N0300_K0060_NOCLIQUE"""",""""0008_N0300_K0060_CLIQUE""""]"","""","""""
","""","""","""","""",""canvas-keyboard-response"",""97"",""561282"",""0.0-56.1-0.1-0.1"","""",""1240"","""","" "",""[76,124,69,278,53,237,168,31,101,215,289,241,222,83,246,11,100,2,286,293,115,185,70,225,133,220,107,102,20,74,89,26,137,29,186,166,122,88,118,35,25,213,60,48,260,297,63,161,93,4,292,275,8,68,51,46,14,38,91,217,17,243,219,207,170,66,77,106,261,209,247,201,283,7,141,36,176,109,72,125,183,282,188,252,163,174,18,160,265,12,159,226,157,244,147,127,131,58,228,1,151,30,33,200,80,178,105,204,34,274,50,120,32,129,169,280,138,276,269,86,28,87,130,104,84,156,203,221,103,57,24,10,64,71,296,291,148,240,62,47,230,79,128,218,238,59,268,9,212,116,3,43,134,206,256,251,112,288,99,132,253,287,75,81,154,223,299,153,216,190,271,242,266,143,173,236,258,250,52,290,259,180,264,142,155,224,281,136,198,277,110,167,150,126,67,231,73,119,254,82,245,15,56,279,95,232,113,194,273,172,298,44,146,162,191,13,39,193,5,92,171,175,197,96,262,49,21,117,249,255,123,189,234,37,121,202,210,149,135,40,90,248,41,257,208,233,140,214,267,164,196,199,177,108,195,144,16,272,85,152,65,0,158,27,6,192,284,285,145,94,78,111,179,181,165,239,182,235,205,211,263,187,42,295,19,45,270,114,139,61,98,55,97,23,227,22,184,294,229,54]"",""arrowright"",""0"",""8"",""60"",""300"",""[""""0011_N0300_K0060_NOCLIQUE"""",""""0008_N0300_K0060_CLIQUE""""]"","""","""""
","""","""","""","""",""audio-keyboard-response"",""98"",""561854"",""0.0-56.1-0.1-1.1"","""",""null"",""audio_feedback/shuffles/shuffle01.mp3"",""null"","""","""",""0"",""8"",""60"",""300"",""[""""0011_N0300_K0060_NOCLIQUE"""",""""0008_N0300_K0060_CLIQUE""""]"","""","""""
","""","""","""","""",""canvas-keyboard-response"",""99"",""576843"",""0.0-56.2-0.2-0.2"","""",""14811"","""",""arrowright"",""[158,183,39,1,219,256,240,170,290,93,97,229,113,155,66,88,270,118,148,236,64,92,18,218,85,268,51,130,165,296,117,262,81,221,111,112,79,6,201,191,14,198,194,142,206,156,21,153,127,247,244,174,96,126,211,226,74,265,26,115,185,251,43,8,131,0,120,84,10,44,2,196,184,52,204,9,190,99,78,193,274,109,37,292,87,4,169,145,154,177,105,71,159,28,46,41,285,275,75,125,129,60,20,282,255,224,297,210,139,137,31,162,33,150,294,245,157,62,147,45,12,187,95,50,90,55,166,243,203,11,124,216,98,110,250,27,59,67,164,181,65,114,175,237,100,70,132,222,278,259,7,195,208,22,205,214,228,108,53,283,32,143,239,277,189,220,188,178,284,54,77,58,36,291,288,38,48,25,5,29,76,217,299,273,249,3,242,68,269,123,295,89,138,286,176,289,73,102,298,56,192,49,141,107,72,209,160,186,252,202,151,197,293,35,287,241,23,179,199,13,171,34,276,258,234,106,47,281,144,121,19,82,254,80,83,180,116,104,248,94,272,167,57,215,133,230,172,134,266,86,140,136,61,173,146,161,253,91,163,42,119,238,264,69,16,149,40,267,63,223,263,235,207,135,30,24,225,279,271,101,261,260,168,227,15,212,246,122,17,280,232,257,233,128,231,103,182,213,152,200]"",""arrowright"",""0"",""8"",""60"",""300"",""[""""0011_N0300_K0060_NOCLIQUE"""",""""0008_N0300_K0060_CLIQUE""""]"","""",""true"""
","""","""","""","""",""audio-keyboard-response"",""100"",""577237"",""0.0-56.2-0.2-1.2"","""",""null"",""audio_feedback/right/coin01.mp3"",""null"","""","""",""0"",""8"",""60"",""300"",""[""""0011_N0300_K0060_NOCLIQUE"""",""""0008_N0300_K0060_CLIQUE""""]"","""","""""
","""","""","""","""",""canvas-keyboard-response"",""101"",""578933"",""0.0-57.0-0.0-0.0"","""",""1516"","""","" "",""[158,279,220,139,194,149,65,128,80,32,144,95,89,110,153,131,257,18,58,83,170,104,234,49,299,99,203,186,44,26,260,15,66,253,23,41,187,97,112,157,178,218,259,122,140,113,129,227,275,108,116,228,245,274,21,199,4,265,67,59,37,161,24,71,262,27,137,40,295,185,84,46,251,76,293,236,280,35,48,223,100,213,16,38,176,81,1,189,173,33,152,117,56,292,288,258,82,202,74,93,241,256,11,8,263,42,246,193,17,96,235,146,283,231,79,77,69,148,247,204,72,290,20,103,289,141,197,291,87,13,240,125,10,208,133,250,102,75,248,101,154,120,62,211,150,114,156,155,85,5,51,34,183,267,184,298,271,224,121,201,237,29,296,94,205,90,12,196,162,190,30,285,182,232,145,226,219,270,243,73,136,132,78,52,43,61,188,191,174,88,286,269,192,261,63,109,7,168,111,124,215,14,171,53,91,159,151,166,106,167,0,147,64,9,126,25,177,284,294,244,212,55,57,209,272,47,239,180,54,230,50,31,107,179,297,134,206,142,39,254,22,229,276,86,60,6,255,163,181,130,277,200,28,225,242,118,221,115,222,252,266,249,233,92,123,273,165,160,281,217,216,238,68,70,172,105,135,119,278,210,127,207,175,282,2,36,264,19,143,169,3,164,214,198,195,45,287,98,138,268]"",""arrowright"",""0"",""9"",""60"",""300"",""[""""0001_N0300_K0060_NOCLIQUE"""",""""0050_N0300_K0060_CLIQUE""""]"","""","""""
","""","""","""","""",""audio-keyboard-response"",""102"",""579556"",""0.0-57.0-0.0-1.0"","""",""null"",""audio_feedback/shuffles/shuffle01.mp3"",""null"","""","""",""0"",""9"",""60"",""300"",""[""""0001_N0300_K0060_NOCLIQUE"""",""""0050_N0300_K0060_CLIQUE""""]"","""","""""
","""","""","""","""",""canvas-keyboard-response"",""103"",""580771"",""0.0-57.1-0.1-0.1"","""",""1038"","""","" "",""[29,24,260,295,99,185,174,218,225,33,105,26,109,101,53,213,9,12,1,50,13,127,126,81,259,107,84,272,80,254,89,148,83,196,78,168,202,16,264,245,190,121,275,186,39,73,25,221,276,116,279,289,46,72,90,34,41,108,189,14,115,19,277,219,132,62,233,188,86,247,32,278,138,36,85,269,106,117,118,222,287,293,63,142,180,169,92,0,35,145,51,139,125,119,192,23,124,294,194,156,286,147,38,43,265,149,158,40,203,210,60,3,134,212,238,6,64,8,57,200,160,226,229,296,166,258,292,184,216,284,198,49,15,175,94,42,298,187,47,153,155,79,61,282,21,112,204,123,133,165,268,159,31,288,114,197,255,232,152,199,163,193,164,76,224,44,59,157,161,98,27,130,111,74,231,100,280,82,135,69,176,2,253,110,236,283,205,285,228,235,128,240,183,97,234,30,290,77,5,291,170,214,137,141,55,171,95,71,17,65,230,195,217,52,122,11,274,140,113,249,181,267,129,67,91,215,257,28,146,178,87,191,177,173,103,104,102,22,237,120,262,299,182,172,150,96,68,93,88,131,248,227,256,250,167,179,56,207,281,143,246,266,297,45,261,251,206,209,66,70,7,252,263,201,270,10,273,20,223,154,243,220,208,271,136,144,75,162,151,54,239,58,48,211,244,241,37,4,18,242]"",""arrowright"",""0"",""9"",""60"",""300"",""[""""0001_N0300_K0060_NOCLIQUE"""",""""0050_N0300_K0060_CLIQUE""""]"","""","""""
","""","""","""","""",""audio-keyboard-response"",""104"",""581357"",""0.0-57.1-0.1-1.1"","""",""null"",""audio_feedback/shuffles/shuffle01.mp3"",""null"","""","""",""0"",""9"",""60"",""300"",""[""""0001_N0300_K0060_NOCLIQUE"""",""""0050_N0300_K0060_CLIQUE""""]"","""","""""
","""","""","""","""",""canvas-keyboard-response"",""105"",""583271"",""0.0-57.2-0.2-0.2"","""",""1743"","""",""arrowright"",""[162,299,142,189,155,160,109,209,129,186,49,128,297,294,276,6,80,39,279,51,7,210,268,267,21,108,194,74,177,50,136,151,98,238,240,54,36,122,5,264,235,32,256,149,158,233,243,296,159,141,178,146,107,295,138,60,65,144,139,153,81,92,288,185,24,212,258,63,213,219,97,283,27,8,239,41,199,198,84,53,72,254,116,114,274,133,94,278,166,123,0,298,137,249,187,265,197,257,193,112,290,246,79,236,62,17,45,250,180,134,29,73,88,113,218,148,1,46,260,42,106,132,83,10,4,16,37,228,44,248,291,286,292,171,135,40,77,201,255,251,78,221,82,169,232,147,275,252,216,145,9,242,86,11,100,101,173,85,66,226,215,125,14,184,31,293,117,126,208,91,35,241,3,38,202,163,273,174,262,103,150,204,196,30,179,244,69,223,220,71,217,172,130,75,59,152,47,188,253,43,195,289,225,124,34,167,157,156,22,56,263,140,104,13,105,96,18,89,64,58,52,102,183,90,55,131,245,121,95,222,25,284,120,227,270,57,229,266,68,280,87,203,247,119,282,61,168,237,28,20,19,118,190,231,12,285,205,182,26,271,192,175,261,224,93,67,230,143,161,127,76,2,176,200,23,281,15,287,165,115,272,211,110,181,33,206,99,70,111,207,269,259,191,277,48,154,170,234,214,164]"",""arrowright"",""0"",""9"",""60"",""300"",""[""""0001_N0300_K0060_NOCLIQUE"""",""""0050_N0300_K0060_CLIQUE""""]"","""",""true"""
","""","""","""","""",""audio-keyboard-response"",""106"",""583696"",""0.0-57.2-0.2-1.2"","""",""null"",""audio_feedback/right/coin01.mp3"",""null"","""","""",""0"",""9"",""60"",""300"",""[""""0001_N0300_K0060_NOCLIQUE"""",""""0050_N0300_K0060_CLIQUE""""]"","""","""""
","""","""","""","""",""canvas-keyboard-response"",""107"",""585021"",""0.0-58.0-0.0-0.0"","""",""1154"","""","" "",""[277,166,165,222,280,228,48,213,41,52,285,162,229,241,274,197,120,275,246,182,272,110,7,239,263,267,299,173,26,40,122,97,193,37,242,61,106,85,232,39,230,78,63,220,138,238,295,257,83,279,297,43,19,50,76,31,296,45,62,23,54,203,152,92,28,99,247,292,67,139,172,234,22,158,145,190,104,289,169,221,270,91,102,107,49,266,215,164,42,56,227,156,183,163,105,236,8,100,174,24,192,94,278,209,137,250,38,253,130,195,81,159,282,35,136,58,73,276,200,256,126,103,199,115,153,66,151,155,119,121,226,273,189,265,198,175,143,53,187,168,21,144,140,98,127,111,201,117,161,167,255,20,27,157,293,60,2,14,176,177,210,135,262,180,211,240,113,112,3,194,178,291,116,184,237,124,298,84,57,185,142,212,204,101,171,59,264,29,69,148,132,133,207,244,248,288,141,33,196,231,79,93,134,147,154,51,131,179,294,217,123,287,95,129,205,249,64,251,108,271,70,89,87,243,77,269,17,118,68,224,74,233,65,170,82,261,218,32,268,114,34,9,12,252,225,4,125,281,16,146,15,259,25,202,254,208,86,186,6,30,5,88,80,10,160,216,181,258,188,150,286,46,11,290,36,283,44,206,0,18,245,47,55,71,128,149,72,223,109,260,214,235,1,90,96,191,219,75,13,284]"",""arrowleft"",""0"",""10"",""55"",""300"",""[""""0099_N0300_K0055_CLIQUE"""",""""0078_N0300_K0055_NOCLIQUE""""]"","""","""""
","""","""","""","""",""audio-keyboard-response"",""108"",""585597"",""0.0-58.0-0.0-1.0"","""",""null"",""audio_feedback/shuffles/shuffle01.mp3"",""null"","""","""",""0"",""10"",""55"",""300"",""[""""0099_N0300_K0055_CLIQUE"""",""""0078_N0300_K0055_NOCLIQUE""""]"","""","""""
","""","""","""","""",""canvas-keyboard-response"",""109"",""586781"",""0.0-58.1-0.1-0.1"","""",""971"","""","" "",""[113,46,161,24,151,193,253,271,102,131,165,32,290,19,277,92,282,237,263,148,54,227,104,202,268,89,93,9,50,145,100,53,120,210,188,229,17,196,192,225,295,257,163,255,175,105,55,138,3,221,164,123,198,252,258,247,194,16,203,199,73,25,65,226,224,292,204,114,191,56,20,135,240,28,244,187,166,109,146,29,251,208,27,126,190,71,278,125,156,45,264,254,201,169,0,287,129,137,103,33,58,162,249,69,117,185,281,211,30,140,4,243,21,41,87,160,273,116,132,212,80,267,262,86,26,154,42,119,63,150,112,241,14,155,143,35,133,57,139,167,266,38,236,276,180,272,74,127,152,217,23,233,286,270,12,61,67,280,62,279,144,37,10,79,142,284,299,96,8,75,174,153,223,171,90,77,22,7,170,183,214,215,182,228,118,115,128,291,289,275,173,18,296,259,15,11,51,207,44,159,232,121,5,218,297,84,95,106,260,70,157,256,136,97,245,246,94,1,110,82,179,149,283,172,83,85,141,130,285,48,205,248,200,68,177,76,213,64,6,293,219,13,230,52,234,238,59,294,158,197,274,222,265,189,250,34,88,66,216,122,176,124,195,242,269,147,107,181,98,101,184,31,43,261,239,60,231,36,209,235,49,134,40,206,288,111,168,298,91,108,78,47,178,72,220,2,186,81,39,99]"",""arrowleft"",""0"",""10"",""55"",""300"",""[""""0099_N0300_K0055_CLIQUE"""",""""0078_N0300_K0055_NOCLIQUE""""]"","""","""""
","""","""","""","""",""audio-keyboard-response"",""110"",""587357"",""0.0-58.1-0.1-1.1"","""",""null"",""audio_feedback/shuffles/shuffle01.mp3"",""null"","""","""",""0"",""10"",""55"",""300"",""[""""0099_N0300_K0055_CLIQUE"""",""""0078_N0300_K0055_NOCLIQUE""""]"","""","""""
","""","""","""","""",""canvas-keyboard-response"",""111"",""588791"",""0.0-58.2-0.2-0.2"","""",""1270"","""",""arrowleft"",""[45,171,36,106,139,180,284,38,135,7,100,157,199,197,121,295,102,93,134,253,90,27,167,210,289,178,140,228,152,137,149,266,141,281,30,220,74,0,145,85,79,133,119,166,61,278,172,99,128,248,39,55,227,165,293,58,6,273,200,118,241,68,77,142,177,148,215,57,185,174,146,98,190,192,92,164,88,62,64,63,131,170,223,156,294,160,173,234,41,124,138,150,115,114,155,189,176,261,72,50,151,242,245,71,87,271,101,26,94,28,251,154,186,52,218,161,238,89,260,116,83,202,59,292,268,282,25,125,279,143,78,221,69,201,112,254,122,44,219,225,244,11,208,296,181,211,8,108,275,1,110,267,56,82,127,16,288,91,15,147,103,126,81,256,222,270,203,169,214,53,231,136,9,22,216,14,34,280,33,297,75,4,212,194,236,46,274,12,209,226,67,76,299,96,285,111,132,188,129,51,283,230,291,123,49,105,70,204,205,272,298,265,229,243,95,2,5,287,17,262,259,239,80,73,277,21,290,54,258,263,198,107,153,255,37,163,168,13,286,179,66,195,19,183,18,20,29,193,175,159,43,207,23,47,40,162,252,257,130,117,224,113,10,240,217,31,182,42,86,84,60,187,104,184,264,247,24,32,250,144,97,213,3,269,35,109,233,237,276,235,196,158,246,249,206,191,65,232,48,120]"",""arrowleft"",""0"",""10"",""55"",""300"",""[""""0099_N0300_K0055_CLIQUE"""",""""0078_N0300_K0055_NOCLIQUE""""]"","""",""true"""
","""","""","""","""",""audio-keyboard-response"",""112"",""589217"",""0.0-58.2-0.2-1.2"","""",""null"",""audio_feedback/right/coin01.mp3"",""null"","""","""",""0"",""10"",""55"",""300"",""[""""0099_N0300_K0055_CLIQUE"""",""""0078_N0300_K0055_NOCLIQUE""""]"","""","""""
","""","""","""","""",""canvas-keyboard-response"",""113"",""590291"",""0.0-59.0-0.0-0.0"","""",""895"","""","" "",""[247,201,81,7,214,297,109,1,242,169,219,64,132,157,165,266,5,237,153,48,124,174,0,47,140,273,160,9,117,203,225,239,285,130,3,15,241,115,96,197,199,14,246,123,277,72,154,6,146,51,179,30,37,210,78,43,29,152,294,86,116,227,271,189,296,230,134,100,170,101,32,183,295,24,226,148,110,25,11,269,4,281,234,107,19,229,119,126,68,286,99,180,67,77,95,217,105,249,243,178,104,10,128,159,267,76,61,256,260,259,75,238,240,293,59,147,299,102,272,276,120,253,135,255,195,125,182,118,175,55,274,245,18,144,161,39,252,288,85,284,70,167,73,22,194,44,97,213,198,131,224,31,278,177,216,41,184,275,98,283,149,79,290,42,49,187,127,92,35,233,215,228,212,155,17,113,136,282,83,196,220,121,60,192,28,248,16,211,21,186,12,57,94,40,90,26,205,139,63,236,173,221,262,33,62,188,150,250,137,162,111,65,298,190,181,200,36,71,114,279,20,268,53,193,292,208,87,270,280,206,103,158,176,58,50,291,91,82,143,80,129,93,142,56,112,289,172,52,66,46,218,258,89,13,106,287,163,257,251,166,209,156,171,235,222,232,207,84,2,88,23,261,34,231,185,133,254,223,74,38,108,151,141,263,264,204,69,122,54,27,191,164,8,168,265,202,138,244,45,145]"",""arrowright"",""0"",""11"",""55"",""300"",""[""""0024_N0300_K0055_NOCLIQUE"""",""""0039_N0300_K0055_CLIQUE""""]"","""","""""
","""","""","""","""",""audio-keyboard-response"",""114"",""590876"",""0.0-59.0-0.0-1.0"","""",""null"",""audio_feedback/shuffles/shuffle01.mp3"",""null"","""","""",""0"",""11"",""55"",""300"",""[""""0024_N0300_K0055_NOCLIQUE"""",""""0039_N0300_K0055_CLIQUE""""]"","""","""""
","""","""","""","""",""canvas-keyboard-response"",""115"",""592042"",""0.0-59.1-0.1-0.1"","""",""991"","""","" "",""[298,38,109,197,279,128,226,64,65,202,251,75,95,16,143,101,78,49,149,83,100,278,295,297,132,114,164,125,222,285,120,11,107,13,59,50,173,160,272,162,52,221,126,67,17,277,290,178,127,123,266,56,242,102,299,227,14,51,36,265,85,236,289,293,291,159,275,261,217,168,286,76,57,130,90,136,158,108,249,110,235,80,31,118,98,225,234,155,180,74,121,103,86,47,246,139,214,10,206,185,129,113,189,15,172,111,191,25,250,7,196,223,273,37,63,218,212,156,213,29,224,112,282,9,26,18,28,198,253,21,259,84,46,271,68,89,79,195,99,283,48,257,276,62,97,244,140,231,88,241,19,255,254,119,252,73,82,245,232,163,233,258,240,24,248,81,194,69,270,171,104,33,66,267,131,187,186,45,70,122,268,274,71,288,262,0,207,138,39,150,134,147,203,243,77,141,117,92,55,1,183,60,204,229,3,284,176,230,135,44,174,144,260,40,228,20,153,54,287,42,199,184,190,53,35,281,177,179,6,87,247,205,294,209,192,146,201,23,292,264,154,115,105,219,32,181,58,8,210,61,91,166,43,5,152,188,2,27,169,30,133,96,280,161,220,34,238,193,145,124,216,175,157,165,4,237,208,296,41,151,148,106,211,12,256,182,116,269,22,167,263,93,94,200,170,239,72,215,137,142]"",""arrowright"",""0"",""11"",""55"",""300"",""[""""0024_N0300_K0055_NOCLIQUE"""",""""0039_N0300_K0055_CLIQUE""""]"","""","""""
","""","""","""","""",""audio-keyboard-response"",""116"",""592617"",""0.0-59.1-0.1-1.1"","""",""null"",""audio_feedback/shuffles/shuffle01.mp3"",""null"","""","""",""0"",""11"",""55"",""300"",""[""""0024_N0300_K0055_NOCLIQUE"""",""""0039_N0300_K0055_CLIQUE""""]"","""","""""
","""","""","""","""",""canvas-keyboard-response"",""117"",""594302"",""0.0-59.2-0.2-0.2"","""",""1517"","""",""arrowright"",""[79,49,267,235,281,230,201,141,58,21,271,151,207,55,101,258,196,205,51,260,36,24,61,18,249,91,162,13,85,33,9,215,28,245,165,293,176,76,276,200,177,226,220,82,238,80,272,97,153,34,121,132,42,224,289,257,54,60,184,68,261,19,62,52,160,287,263,163,234,213,72,103,65,7,251,269,203,286,129,92,147,154,75,8,40,228,164,17,112,277,247,84,139,223,15,48,140,259,237,10,256,12,30,294,288,73,150,222,102,44,284,111,218,209,133,89,229,172,159,144,279,6,66,131,128,138,125,136,252,47,204,50,181,231,155,179,194,198,39,183,248,290,115,123,292,168,38,186,83,93,157,137,87,88,244,25,110,86,296,297,11,145,69,32,118,283,219,31,243,135,195,5,214,126,46,240,241,298,291,232,190,285,178,16,175,130,208,114,255,202,14,90,57,280,26,106,98,158,170,236,43,100,0,124,199,299,185,268,180,167,56,59,20,1,282,53,45,134,35,166,78,41,4,193,74,113,22,71,152,266,233,173,99,143,210,107,188,108,242,250,119,120,227,63,211,148,3,217,212,206,295,189,77,27,239,274,127,275,221,197,169,122,29,109,187,94,23,149,246,265,2,70,273,225,64,262,146,116,174,96,192,67,156,171,81,253,142,161,105,104,254,216,37,117,95,270,278,191,182,264]"",""arrowright"",""0"",""11"",""55"",""300"",""[""""0024_N0300_K0055_NOCLIQUE"""",""""0039_N0300_K0055_CLIQUE""""]"","""",""true"""
","""","""","""","""",""audio-keyboard-response"",""118"",""594716"",""0.0-59.2-0.2-1.2"","""",""null"",""audio_feedback/right/coin01.mp3"",""null"","""","""",""0"",""11"",""55"",""300"",""[""""0024_N0300_K0055_NOCLIQUE"""",""""0039_N0300_K0055_CLIQUE""""]"","""","""""
","""","""","""","""",""canvas-keyboard-response"",""119"",""595771"",""0.0-60.0-0.0-0.0"","""",""879"","""","" "",""[281,33,134,236,160,290,62,125,26,169,103,143,40,238,245,182,197,198,209,184,199,282,130,154,277,105,14,3,57,38,270,45,283,68,92,287,75,132,155,220,81,156,47,28,89,0,253,6,87,23,35,190,265,27,247,142,122,279,153,218,148,204,39,200,70,235,293,145,263,112,228,178,249,5,214,295,147,189,185,187,117,32,146,108,91,257,43,150,59,258,114,67,275,202,63,90,284,1,216,83,71,250,232,179,79,77,299,193,141,268,269,37,266,168,176,208,286,256,135,192,280,149,273,241,164,119,21,13,107,205,60,294,237,9,20,219,127,240,274,69,137,285,53,239,84,29,18,58,51,100,248,254,246,74,101,276,206,136,177,85,227,166,211,212,183,124,298,226,181,111,16,191,116,264,243,96,78,272,46,158,278,126,222,131,34,7,64,210,223,49,251,261,104,73,24,242,66,48,22,76,129,97,25,255,106,217,233,4,123,11,52,115,234,215,297,31,194,196,2,80,133,19,55,296,203,162,17,109,138,99,36,88,171,221,195,225,231,291,172,56,288,252,86,113,170,110,207,244,186,54,98,42,152,229,120,128,180,139,44,271,230,41,213,159,94,140,157,163,188,65,50,102,144,93,259,118,292,289,224,175,161,8,165,82,267,262,173,167,95,72,30,260,12,201,15,151,174,10,121,61]"",""arrowleft"",""0"",""12"",""50"",""300"",""[""""0063_N0300_K0050_CLIQUE"""",""""0045_N0300_K0050_NOCLIQUE""""]"","""","""""
","""","""","""","""",""audio-keyboard-response"",""120"",""596357"",""0.0-60.0-0.0-1.0"","""",""null"",""audio_feedback/shuffles/shuffle01.mp3"",""null"","""","""",""0"",""12"",""50"",""300"",""[""""0063_N0300_K0050_CLIQUE"""",""""0045_N0300_K0050_NOCLIQUE""""]"","""","""""
","""","""","""","""",""canvas-keyboard-response"",""121"",""597351"",""0.0-60.1-0.1-0.1"","""",""793"","""","" "",""[34,85,62,32,198,140,145,115,191,176,183,284,49,296,207,268,162,168,279,66,50,293,31,121,257,43,163,289,29,96,91,218,123,141,195,25,236,258,146,230,111,260,188,110,118,201,144,44,214,56,142,157,125,1,233,299,99,150,213,219,231,78,226,271,26,251,153,129,211,67,217,103,288,202,7,53,20,210,246,124,295,255,209,47,98,61,175,148,37,238,181,52,205,105,187,89,38,269,46,228,88,224,276,208,286,127,223,57,249,23,39,11,154,281,287,220,261,134,215,138,272,5,180,19,264,283,126,4,152,265,9,234,83,136,204,189,95,130,107,76,143,171,81,116,159,253,225,100,184,282,165,120,212,232,69,28,131,216,196,170,254,250,122,72,164,80,194,277,229,292,6,60,203,74,174,3,128,82,22,190,259,117,54,119,197,263,298,278,97,290,15,8,12,2,109,63,245,200,179,58,30,40,33,147,135,158,71,0,132,182,294,167,280,137,240,84,206,252,274,227,149,243,10,193,64,156,68,106,221,65,199,102,112,104,36,45,177,108,24,17,161,75,237,86,77,101,59,241,270,73,166,90,185,27,248,93,92,16,192,21,35,155,70,291,42,173,222,55,79,178,242,285,113,94,41,169,172,235,256,267,266,244,186,160,48,297,114,247,51,273,13,151,18,139,133,262,14,87,239,275]"",""arrowleft"",""0"",""12"",""50"",""300"",""[""""0063_N0300_K0050_CLIQUE"""",""""0045_N0300_K0050_NOCLIQUE""""]"","""","""""
","""","""","""","""",""audio-keyboard-response"",""122"",""597936"",""0.0-60.1-0.1-1.1"","""",""null"",""audio_feedback/shuffles/shuffle01.mp3"",""null"","""","""",""0"",""12"",""50"",""300"",""[""""0063_N0300_K0050_CLIQUE"""",""""0045_N0300_K0050_NOCLIQUE""""]"","""","""""
","""","""","""","""",""canvas-keyboard-response"",""123"",""599672"",""0.0-60.2-0.2-0.2"","""",""1566"","""",""arrowright"",""[180,207,60,45,4,284,195,203,100,281,36,295,67,221,249,88,246,33,106,97,208,261,28,280,267,122,66,63,58,31,175,48,168,211,86,282,50,174,134,142,297,18,98,126,130,7,202,296,170,112,89,279,5,288,2,132,183,95,164,71,115,72,224,61,152,256,127,193,76,257,299,24,210,137,278,154,13,251,96,231,165,120,240,236,110,103,108,289,46,21,62,228,163,37,199,223,70,158,187,136,125,232,73,6,162,10,192,172,53,78,241,118,42,75,194,153,117,270,269,99,113,233,201,166,234,29,188,181,146,271,255,200,68,25,93,186,123,268,40,141,245,239,259,34,252,197,79,27,260,290,227,102,191,23,64,254,171,3,265,147,185,47,140,198,196,129,26,85,155,105,213,205,264,225,273,119,149,148,161,128,253,41,283,143,116,52,20,111,182,293,104,1,243,276,15,87,39,216,43,54,57,11,190,159,292,250,230,189,144,242,275,220,32,65,35,291,209,204,229,83,274,206,82,30,287,150,235,135,59,226,222,217,176,156,51,22,12,160,44,238,298,19,244,121,285,38,139,16,157,69,286,49,94,74,258,277,17,90,169,272,131,81,184,8,56,91,55,14,109,101,215,214,124,247,167,138,114,133,80,9,84,0,212,178,266,263,145,173,262,248,237,107,77,177,218,179,219,294,151,92]"",""arrowleft"",""0"",""12"",""50"",""300"",""[""""0063_N0300_K0050_CLIQUE"""",""""0045_N0300_K0050_NOCLIQUE""""]"","""",""false"""
","""","""","""","""",""audio-keyboard-response"",""124"",""600316"",""0.0-60.2-0.2-1.2"","""",""null"",""audio_feedback/wrong/error01.mp3"",""null"","""","""",""0"",""12"",""50"",""300"",""[""""0063_N0300_K0050_CLIQUE"""",""""0045_N0300_K0050_NOCLIQUE""""]"","""","""""
","""","""","""","""",""canvas-keyboard-response"",""125"",""606032"",""0.0-61.0-0.0-0.0"","""",""5550"","""","" "",""[251,114,234,28,93,176,180,183,47,128,3,121,50,170,70,192,286,297,34,12,212,263,73,89,206,39,61,222,169,200,260,285,109,48,257,126,151,26,41,110,227,265,187,77,9,291,149,269,208,221,294,205,56,144,75,134,225,11,249,283,14,7,172,268,63,139,262,235,280,102,173,157,29,240,273,185,224,270,232,148,95,2,64,31,186,143,88,248,230,267,233,68,190,155,229,5,71,133,78,57,296,159,129,153,81,60,30,35,45,184,36,150,199,204,274,201,141,111,6,179,250,37,104,278,54,209,107,80,276,195,84,161,215,0,74,10,279,103,238,252,19,174,168,214,216,8,162,67,242,132,146,193,261,20,236,49,197,136,122,171,244,181,160,85,189,289,87,130,220,116,299,22,210,217,219,118,112,23,293,17,13,52,223,98,237,228,182,231,96,120,43,97,194,196,42,213,202,140,167,288,69,55,46,158,115,101,18,62,32,59,51,119,226,100,94,16,277,4,105,271,27,241,207,245,83,92,66,266,76,135,156,191,177,298,108,239,138,82,72,99,15,106,198,1,21,125,211,38,164,247,246,131,123,117,259,165,90,154,203,65,292,255,127,86,295,188,264,258,290,58,284,53,175,152,218,243,256,33,79,91,166,287,137,254,40,178,272,281,282,275,145,163,113,24,124,147,44,142,253,25]"",""arrowright"",""0"",""13"",""50"",""300"",""[""""0014_N0300_K0050_NOCLIQUE"""",""""0060_N0300_K0050_CLIQUE""""]"","""","""""
","""","""","""","""",""audio-keyboard-response"",""126"",""606617"",""0.0-61.0-0.0-1.0"","""",""null"",""audio_feedback/shuffles/shuffle01.mp3"",""null"","""","""",""0"",""13"",""50"",""300"",""[""""0014_N0300_K0050_NOCLIQUE"""",""""0060_N0300_K0050_CLIQUE""""]"","""","""""
","""","""","""","""",""canvas-keyboard-response"",""127"",""607571"",""0.0-61.1-0.1-0.1"","""",""790"","""","" "",""[262,63,131,165,200,196,7,219,211,261,70,82,72,22,243,86,58,185,100,291,113,124,280,144,55,233,167,1,64,203,265,56,147,122,158,152,190,263,252,173,140,225,201,154,145,174,230,169,78,205,88,53,216,23,231,176,110,259,202,184,151,274,187,39,235,59,129,284,118,266,254,212,164,6,248,208,198,268,35,279,77,170,66,69,45,37,192,178,103,281,210,80,160,75,36,133,123,296,207,91,183,29,246,127,46,273,275,50,139,20,238,292,242,168,206,161,106,18,221,223,121,107,21,90,250,108,237,48,175,150,0,204,194,2,62,16,191,157,105,96,132,8,241,180,213,227,249,141,101,3,135,27,73,218,298,256,229,188,19,30,258,226,43,236,42,153,193,84,51,116,277,57,112,283,159,109,137,38,179,128,52,34,162,60,71,285,253,209,244,10,197,61,33,93,267,41,278,234,115,181,31,47,125,195,24,92,79,25,293,13,126,264,220,15,136,130,215,155,4,49,282,270,138,11,288,239,148,114,74,272,166,5,94,297,14,156,171,28,199,44,99,186,26,172,9,87,276,54,76,177,260,251,163,40,12,97,289,228,17,232,142,83,143,286,189,111,294,255,240,104,247,68,182,245,81,149,290,65,287,102,222,271,269,295,224,214,67,299,217,146,89,117,119,134,120,95,85,257,32,98]"",""arrowright"",""0"",""13"",""50"",""300"",""[""""0014_N0300_K0050_NOCLIQUE"""",""""0060_N0300_K0050_CLIQUE""""]"","""","""""
","""","""","""","""",""audio-keyboard-response"",""128"",""608156"",""0.0-61.1-0.1-1.1"","""",""null"",""audio_feedback/shuffles/shuffle01.mp3"",""null"","""","""",""0"",""13"",""50"",""300"",""[""""0014_N0300_K0050_NOCLIQUE"""",""""0060_N0300_K0050_CLIQUE""""]"","""","""""
","""","""","""","""",""canvas-keyboard-response"",""129"",""609652"",""0.0-61.2-0.2-0.2"","""",""1328"","""",""arrowleft"",""[46,110,100,249,283,15,252,126,136,234,299,215,57,181,79,96,131,258,108,224,146,267,132,243,165,298,193,101,105,190,88,115,18,34,104,28,82,209,155,288,68,188,212,176,259,251,219,36,137,290,78,85,278,90,63,270,210,152,247,54,69,59,268,208,282,92,26,200,125,158,143,218,61,80,8,227,83,20,37,167,103,263,196,40,145,149,2,199,65,58,262,55,186,123,225,89,39,135,144,5,4,71,93,245,250,119,239,168,238,272,23,150,56,179,281,111,1,244,138,156,94,14,60,214,254,232,177,49,124,198,153,157,6,43,236,172,265,277,192,241,253,279,286,159,62,64,77,173,44,220,195,31,66,84,213,116,273,280,287,17,164,76,171,235,154,70,97,217,13,174,87,41,120,122,30,42,180,86,233,229,27,205,240,113,261,185,106,81,25,67,297,296,274,182,45,191,189,51,230,289,295,35,292,183,12,175,284,127,266,221,16,128,148,91,48,72,114,204,269,294,166,29,293,47,130,271,112,141,140,33,275,197,276,264,134,99,291,117,9,256,147,162,38,201,248,32,255,257,202,53,73,3,187,285,95,10,226,160,260,169,142,133,24,246,237,228,11,206,242,22,21,222,98,121,102,170,203,184,52,216,161,178,223,207,129,194,107,139,74,231,19,109,118,0,75,50,163,151,211,7]"",""arrowright"",""0"",""13"",""50"",""300"",""[""""0014_N0300_K0050_NOCLIQUE"""",""""0060_N0300_K0050_CLIQUE""""]"","""",""false"""
","""","""","""","""",""audio-keyboard-response"",""130"",""610257"",""0.0-61.2-0.2-1.2"","""",""null"",""audio_feedback/wrong/error01.mp3"",""null"","""","""",""0"",""13"",""50"",""300"",""[""""0014_N0300_K0050_NOCLIQUE"""",""""0060_N0300_K0050_CLIQUE""""]"","""","""""
","""","""","""","""",""canvas-keyboard-response"",""131"",""611813"",""0.0-62.0-0.0-0.0"","""",""1362"","""","" "",""[288,164,219,4,33,237,17,114,231,152,200,194,9,202,175,107,267,61,247,217,82,93,123,128,90,229,201,140,121,109,50,104,12,5,292,35,36,79,0,85,52,87,186,54,239,63,223,180,147,216,230,133,160,167,271,95,47,91,117,125,176,113,53,45,290,286,154,83,115,58,245,127,165,10,269,39,240,289,134,262,57,25,162,207,55,101,102,41,144,257,68,280,272,135,259,155,187,191,44,16,236,195,20,281,40,148,170,177,1,7,221,261,266,34,106,208,213,81,116,256,190,198,212,172,183,277,181,124,129,293,139,37,42,228,299,234,218,92,49,26,179,243,274,2,14,178,22,11,287,46,111,188,132,220,206,224,142,204,96,70,166,120,69,143,13,51,273,31,136,3,254,163,98,112,189,291,197,32,89,153,174,182,150,238,168,193,65,196,78,64,24,297,158,56,122,185,249,118,146,244,38,126,86,276,298,21,60,253,295,283,138,173,105,251,97,211,285,149,199,226,192,73,255,59,235,250,99,263,157,210,232,222,169,80,119,76,62,71,215,88,275,84,260,242,294,94,268,233,159,284,67,258,205,6,151,29,30,203,100,214,279,23,108,246,296,141,15,282,278,18,131,8,27,66,103,171,156,225,145,161,110,43,130,227,184,74,48,75,77,252,28,137,265,248,270,19,264,241,72,209]"",""arrowleft"",""0"",""14"",""45"",""300"",""[""""0055_N0300_K0045_CLIQUE"""",""""0024_N0300_K0045_NOCLIQUE""""]"","""","""""
","""","""","""","""",""audio-keyboard-response"",""132"",""612397"",""0.0-62.0-0.0-1.0"","""",""null"",""audio_feedback/shuffles/shuffle01.mp3"",""null"","""","""",""0"",""14"",""45"",""300"",""[""""0055_N0300_K0045_CLIQUE"""",""""0024_N0300_K0045_NOCLIQUE""""]"","""","""""
","""","""","""","""",""canvas-keyboard-response"",""133"",""613922"",""0.0-62.1-0.1-0.1"","""",""1365"","""","" "",""[245,235,281,31,284,68,12,203,210,64,227,78,58,139,262,175,271,142,174,179,219,272,88,213,286,238,93,255,261,14,106,97,109,289,110,251,192,294,59,103,276,162,221,292,278,74,198,79,231,43,113,35,199,258,218,73,239,206,141,129,197,226,8,157,95,195,214,298,160,225,90,279,288,46,256,280,5,176,230,57,266,164,183,237,168,137,250,229,259,253,22,24,144,151,180,240,146,33,290,77,193,132,87,54,177,178,138,242,61,163,101,13,40,3,204,121,249,171,149,47,34,215,260,82,135,188,53,21,125,116,131,71,23,189,243,10,143,123,32,156,7,89,241,252,81,200,66,152,283,246,228,295,102,94,80,0,19,150,92,108,233,126,76,234,122,2,38,30,29,244,285,42,267,133,169,98,212,184,248,26,153,120,4,140,52,275,36,72,209,48,277,187,49,17,56,62,232,60,182,287,118,159,9,1,117,265,205,293,222,96,104,185,111,114,158,217,45,236,75,297,254,16,91,65,224,264,112,85,100,155,282,220,173,41,86,11,99,25,291,70,27,130,63,166,15,172,194,270,145,223,107,51,186,18,216,274,84,55,263,299,119,148,181,128,50,165,28,161,170,273,6,44,69,247,296,208,211,154,196,124,201,207,269,167,147,190,191,20,37,39,268,115,127,67,257,134,105,136,83,202]"",""arrowleft"",""0"",""14"",""45"",""300"",""[""""0055_N0300_K0045_CLIQUE"""",""""0024_N0300_K0045_NOCLIQUE""""]"","""","""""
","""","""","""","""",""audio-keyboard-response"",""134"",""614497"",""0.0-62.1-0.1-1.1"","""",""null"",""audio_feedback/shuffles/shuffle01.mp3"",""null"","""","""",""0"",""14"",""45"",""300"",""[""""0055_N0300_K0045_CLIQUE"""",""""0024_N0300_K0045_NOCLIQUE""""]"","""","""""
","""","""","""","""",""canvas-keyboard-response"",""135"",""618482"",""0.0-62.2-0.2-0.2"","""",""3804"","""",""arrowleft"",""[140,53,238,278,218,191,245,48,79,121,165,40,152,91,170,276,242,195,25,232,26,148,80,56,102,128,155,177,189,90,134,94,272,111,263,28,105,236,45,15,17,127,284,66,267,96,259,227,72,292,212,65,221,168,75,298,154,169,159,22,126,153,291,89,57,185,280,37,78,207,87,285,273,97,231,149,115,277,113,160,46,234,142,198,62,1,50,230,60,63,85,215,10,295,179,69,235,188,264,41,81,116,100,0,122,86,287,131,138,241,36,194,109,9,54,167,290,187,13,88,143,150,16,30,281,125,14,271,76,108,47,196,164,141,174,93,11,64,253,239,229,250,6,216,283,42,137,161,74,23,293,130,67,255,19,20,61,183,248,31,70,55,162,147,182,163,82,110,197,8,226,151,192,104,7,256,201,84,203,186,251,139,265,136,247,59,18,107,103,243,268,146,260,175,274,190,258,294,233,2,172,158,206,27,286,120,249,83,224,118,257,51,52,35,282,223,29,199,21,157,119,297,114,5,156,222,95,214,254,225,200,24,213,43,270,217,71,123,261,39,92,181,98,171,178,202,228,266,3,73,244,49,246,4,166,211,68,279,77,237,288,193,34,99,106,296,176,38,220,117,269,101,133,58,205,219,208,132,210,184,135,180,262,252,32,240,204,209,173,145,144,299,33,12,112,289,275,124,44,129]"",""arrowleft"",""0"",""14"",""45"",""300"",""[""""0055_N0300_K0045_CLIQUE"""",""""0024_N0300_K0045_NOCLIQUE""""]"","""",""true"""
","""","""","""","""",""audio-keyboard-response"",""136"",""618936"",""0.0-62.2-0.2-1.2"","""",""null"",""audio_feedback/right/coin01.mp3"",""null"","""","""",""0"",""14"",""45"",""300"",""[""""0055_N0300_K0045_CLIQUE"""",""""0024_N0300_K0045_NOCLIQUE""""]"","""","""""
","""","""","""","""",""canvas-keyboard-response"",""137"",""620142"",""0.0-63.0-0.0-0.0"","""",""1011"","""","" "",""[42,99,256,48,9,240,169,142,4,208,128,253,111,98,163,49,65,82,115,63,136,146,236,30,242,85,91,229,213,25,44,266,69,297,272,268,263,191,138,298,137,275,14,10,59,270,29,200,71,2,264,92,269,281,66,181,8,287,129,212,113,201,179,238,199,37,215,74,123,217,94,22,93,27,274,265,158,77,194,167,294,285,261,52,124,39,61,276,68,132,110,232,41,84,108,105,160,31,282,223,186,64,283,149,102,67,184,57,243,190,228,161,17,175,205,180,40,101,83,125,133,78,62,299,289,100,72,87,86,155,291,204,235,18,248,295,292,286,144,255,189,185,11,139,145,56,182,271,193,216,219,131,225,150,244,195,209,154,141,13,16,126,116,0,153,251,183,177,119,246,187,234,211,218,147,134,252,188,198,259,103,12,19,24,197,73,280,130,171,210,249,118,277,284,222,28,247,203,79,226,107,90,114,196,279,54,239,112,43,47,36,174,296,120,173,214,33,290,257,7,127,117,245,254,170,273,106,227,176,278,26,35,157,21,230,51,178,233,32,3,53,159,89,258,162,250,46,206,34,237,168,96,224,88,241,231,95,23,135,267,164,148,156,221,262,260,20,60,1,76,207,15,5,202,45,70,38,97,172,75,81,293,122,220,165,152,288,192,151,50,109,121,140,55,80,6,58,104,143,166]"",""arrowright"",""0"",""15"",""45"",""300"",""[""""0100_N0300_K0045_NOCLIQUE"""",""""0020_N0300_K0045_CLIQUE""""]"","""","""""
","""","""","""","""",""audio-keyboard-response"",""138"",""620717"",""0.0-63.0-0.0-1.0"","""",""null"",""audio_feedback/shuffles/shuffle01.mp3"",""null"","""","""",""0"",""15"",""45"",""300"",""[""""0100_N0300_K0045_NOCLIQUE"""",""""0020_N0300_K0045_CLIQUE""""]"","""","""""
","""","""","""","""",""canvas-keyboard-response"",""139"",""623493"",""0.0-63.1-0.1-0.1"","""",""2591"","""","" "",""[27,180,79,118,24,100,0,128,282,112,250,251,160,3,210,217,204,190,19,219,14,206,173,89,113,286,70,34,62,139,245,115,163,171,38,51,119,278,253,216,260,295,35,12,158,248,43,50,269,53,7,73,28,153,229,60,105,279,52,39,133,174,77,235,31,289,91,208,152,249,274,183,242,244,246,16,33,191,181,88,239,64,238,134,4,6,214,1,40,159,148,126,284,9,223,120,271,285,169,136,80,178,13,150,187,252,42,227,186,94,231,5,154,63,197,196,268,22,145,114,155,232,86,57,233,109,224,110,98,207,111,164,69,247,26,263,203,21,267,95,104,147,292,37,259,58,41,56,93,177,141,142,23,140,129,280,261,275,205,107,8,281,213,257,277,71,17,200,182,299,194,170,146,97,266,230,202,103,48,272,66,96,161,179,296,288,209,185,45,290,156,172,44,262,99,222,162,218,2,255,157,237,49,123,81,215,236,168,256,11,195,122,75,220,176,125,83,143,92,175,270,138,193,199,241,117,291,65,72,30,84,101,201,211,20,234,184,10,273,74,54,124,15,36,265,144,25,283,298,132,165,225,68,29,87,18,85,226,198,127,151,258,82,189,78,297,294,90,121,32,221,108,116,287,135,254,212,137,102,192,167,46,59,276,166,47,130,106,55,61,131,264,67,76,243,228,188,149,240,293]"",""arrowright"",""0"",""15"",""45"",""300"",""[""""0100_N0300_K0045_NOCLIQUE"""",""""0020_N0300_K0045_CLIQUE""""]"","""","""""
","""","""","""","""",""audio-keyboard-response"",""140"",""624076"",""0.0-63.1-0.1-1.1"","""",""null"",""audio_feedback/shuffles/shuffle01.mp3"",""null"","""","""",""0"",""15"",""45"",""300"",""[""""0100_N0300_K0045_NOCLIQUE"""",""""0020_N0300_K0045_CLIQUE""""]"","""","""""
","""","""","""","""",""canvas-keyboard-response"",""141"",""626022"",""0.0-63.2-0.2-0.2"","""",""1774"","""",""arrowright"",""[260,257,129,237,5,70,199,296,261,256,88,195,241,242,212,179,147,140,177,269,96,83,163,84,23,130,33,186,220,225,248,28,41,27,76,62,146,86,238,214,259,46,253,122,204,197,188,183,167,137,268,65,208,160,210,230,175,21,264,110,51,168,26,61,145,93,55,154,262,243,85,114,289,121,159,143,231,108,286,136,234,209,232,79,152,56,247,34,39,198,35,6,173,202,170,94,142,291,207,98,31,89,49,132,15,138,63,240,250,267,211,189,281,57,215,258,103,294,288,180,10,12,82,54,52,151,216,227,60,75,72,116,196,156,117,9,201,219,229,115,77,107,113,78,106,251,71,90,157,184,172,45,246,141,112,283,69,252,125,150,109,176,193,25,81,182,278,299,244,30,277,91,287,3,4,148,118,68,44,203,7,73,149,276,48,155,14,126,275,17,111,24,133,102,224,29,50,53,185,233,290,221,213,37,205,97,18,206,158,265,280,43,119,255,273,99,218,191,239,38,80,295,92,271,226,274,13,192,162,200,58,222,42,236,178,293,228,1,100,266,66,153,165,190,19,282,171,47,87,40,0,67,22,105,245,20,131,11,128,284,272,166,263,279,235,270,139,2,181,223,174,161,254,104,164,59,127,32,285,8,101,144,120,123,297,249,135,134,74,95,298,194,217,187,16,292,36,124,169,64]"",""arrowright"",""0"",""15"",""45"",""300"",""[""""0100_N0300_K0045_NOCLIQUE"""",""""0020_N0300_K0045_CLIQUE""""]"","""",""true"""
","""","""","""","""",""audio-keyboard-response"",""142"",""626436"",""0.0-63.2-0.2-1.2"","""",""null"",""audio_feedback/right/coin01.mp3"",""null"","""","""",""0"",""15"",""45"",""300"",""[""""0100_N0300_K0045_NOCLIQUE"""",""""0020_N0300_K0045_CLIQUE""""]"","""","""""
","""","""","""","""",""canvas-keyboard-response"",""143"",""627192"",""0.0-64.0-0.0-0.0"","""",""573"","""","" "",""[77,204,295,96,35,14,246,148,272,267,287,125,51,176,209,124,84,79,229,205,269,213,129,169,26,24,130,107,83,167,157,74,57,135,276,112,118,13,256,150,71,76,97,168,283,86,250,6,43,127,241,39,178,155,10,210,198,66,218,285,42,292,247,45,159,268,16,48,239,34,221,184,207,181,219,64,252,122,174,298,120,2,134,62,93,98,8,193,227,55,186,52,11,242,249,58,90,190,160,110,105,158,131,255,231,262,152,95,275,47,206,266,25,251,0,22,260,180,223,82,187,94,166,109,258,257,113,70,133,85,142,18,132,175,235,163,280,81,19,278,290,183,146,40,261,264,17,270,87,89,271,291,284,56,189,277,117,265,128,164,149,232,73,15,126,263,9,33,91,211,78,274,67,179,30,99,50,293,140,195,222,191,244,216,115,106,185,173,59,208,259,103,170,281,162,192,230,248,100,4,245,101,138,137,199,46,141,228,153,200,289,54,12,37,49,182,238,139,201,156,194,212,119,145,214,27,23,177,225,240,32,234,108,123,299,147,65,172,282,217,20,215,88,197,53,161,36,220,294,102,154,41,28,273,111,29,104,3,254,5,63,243,286,196,203,31,44,21,7,224,69,226,236,114,38,288,171,136,279,1,151,165,188,144,60,72,296,92,202,143,116,75,237,61,233,297,253,68,121,80]"",""arrowleft"",""0"",""16"",""40"",""300"",""[""""0069_N0300_K0040_CLIQUE"""",""""0069_N0300_K0040_NOCLIQUE""""]"","""","""""
","""","""","""","""",""audio-keyboard-response"",""144"",""627777"",""0.0-64.0-0.0-1.0"","""",""null"",""audio_feedback/shuffles/shuffle01.mp3"",""null"","""","""",""0"",""16"",""40"",""300"",""[""""0069_N0300_K0040_CLIQUE"""",""""0069_N0300_K0040_NOCLIQUE""""]"","""","""""
","""","""","""","""",""canvas-keyboard-response"",""145"",""628832"",""0.0-64.1-0.1-0.1"","""",""876"","""","" "",""[21,268,274,174,63,175,36,156,294,281,25,169,185,38,214,280,67,277,119,241,69,279,221,3,189,86,54,234,142,170,155,72,15,83,0,110,32,78,99,257,144,213,5,151,22,81,250,266,103,131,55,167,291,26,91,116,42,286,227,30,112,149,232,150,209,104,242,198,228,24,62,4,288,263,292,77,17,161,204,226,262,56,251,139,96,136,273,141,126,145,152,46,299,13,1,283,179,9,220,29,118,195,178,200,115,217,128,60,37,215,176,252,10,184,66,259,188,85,97,19,270,298,58,12,212,52,191,84,207,285,95,245,293,208,218,57,70,237,48,272,258,201,123,76,140,47,162,223,264,146,236,53,224,35,158,64,153,133,239,163,269,124,229,44,92,88,122,7,74,137,27,33,135,166,249,114,202,120,6,244,173,41,160,180,159,219,205,61,87,231,129,190,186,276,143,261,254,240,253,68,11,296,75,210,260,197,211,14,101,127,16,192,43,172,148,183,111,206,247,117,165,106,45,230,125,154,138,284,108,109,164,71,65,287,31,297,59,39,50,248,199,171,256,28,134,107,130,203,2,51,182,177,196,82,98,255,23,187,20,216,73,90,8,243,157,233,168,282,49,181,18,295,278,267,265,271,94,132,147,105,121,80,193,225,290,113,40,102,275,93,246,79,100,194,238,235,289,34,222,89]"",""arrowleft"",""0"",""16"",""40"",""300"",""[""""0069_N0300_K0040_CLIQUE"""",""""0069_N0300_K0040_NOCLIQUE""""]"","""","""""
","""","""","""","""",""audio-keyboard-response"",""146"",""629416"",""0.0-64.1-0.1-1.1"","""",""null"",""audio_feedback/shuffles/shuffle01.mp3"",""null"","""","""",""0"",""16"",""40"",""300"",""[""""0069_N0300_K0040_CLIQUE"""",""""0069_N0300_K0040_NOCLIQUE""""]"","""","""""
