"success","timeout","failed_images","failed_audio","failed_video","trial_type","trial_index","time_elapsed","internal_node_id","view_history","rt","stimulus","response","nodes_order","correct_response","graphs_couple","accuracy","block_index","presentation_index","clique_size","graph_size","graphs_names"
"true","false","[]","[]","[]","preload","0","242","0.0-0.0","","","","","","","","","","","","",""
"","","","","","pavlovia","1","693","0.0-1.0","","","","","","","","","","","","",""
"","","","","","instructions","2","6332","0.0-2.0","[{""page_index"":0,""viewing_time"":3381},{""page_index"":1,""viewing_time"":2249}]","5631","","","","","","","","","","",""
"true","false","[]","[]","[]","preload","3","6980","0.0-3.0","","","","","","","","","","","","",""
"","","","","","instructions","4","72775","0.0-4.0","[{""page_index"":0,""viewing_time"":2021},{""page_index"":1,""viewing_time"":738},{""page_index"":2,""viewing_time"":911},{""page_index"":3,""viewing_time"":830},{""page_index"":4,""viewing_time"":609},{""page_index"":5,""viewing_time"":1410},{""page_index"":6,""viewing_time"":573},{""page_index"":7,""viewing_time"":578},{""page_index"":8,""viewing_time"":469},{""page_index"":9,""viewing_time"":519},{""page_index"":10,""viewing_time"":587},{""page_index"":11,""viewing_time"":469},{""page_index"":12,""viewing_time"":429},{""page_index"":13,""viewing_time"":412},{""page_index"":14,""viewing_time"":1055},{""page_index"":15,""viewing_time"":475},{""page_index"":16,""viewing_time"":573},{""page_index"":17,""viewing_time"":368},{""page_index"":18,""viewing_time"":324},{""page_index"":19,""viewing_time"":318},{""page_index"":20,""viewing_time"":355},{""page_index"":21,""viewing_time"":247},{""page_index"":22,""viewing_time"":277},{""page_index"":23,""viewing_time"":334},{""page_index"":24,""viewing_time"":448},{""page_index"":25,""viewing_time"":248},{""page_index"":26,""viewing_time"":235},{""page_index"":27,""viewing_time"":298},{""page_index"":28,""viewing_time"":707},{""page_index"":29,""viewing_time"":551},{""page_index"":30,""viewing_time"":379},{""page_index"":31,""viewing_time"":435},{""page_index"":32,""viewing_time"":5396},{""page_index"":33,""viewing_time"":3543},{""page_index"":32,""viewing_time"":287},{""page_index"":31,""viewing_time"":522},{""page_index"":30,""viewing_time"":394},{""page_index"":29,""viewing_time"":483},{""page_index"":28,""viewing_time"":485},{""page_index"":27,""viewing_time"":326},{""page_index"":26,""viewing_time"":437},{""page_index"":25,""viewing_time"":385},{""page_index"":26,""viewing_time"":324},{""page_index"":27,""viewing_time"":2217},{""page_index"":28,""viewing_time"":5229},{""page_index"":29,""viewing_time"":1498},{""page_index"":30,""viewing_time"":716},{""page_index"":31,""viewing_time"":1243},{""page_index"":32,""viewing_time"":3212},{""page_index"":33,""viewing_time"":1294},{""page_index"":34,""viewing_time"":1332},{""page_index"":35,""viewing_time"":1465},{""page_index"":36,""viewing_time"":1210},{""page_index"":37,""viewing_time"":1520},{""page_index"":38,""viewing_time"":1409},{""page_index"":39,""viewing_time"":738},{""page_index"":40,""viewing_time"":1172},{""page_index"":39,""viewing_time"":1238},{""page_index"":38,""viewing_time"":649},{""page_index"":39,""viewing_time"":623},{""page_index"":40,""viewing_time"":1637},{""page_index"":41,""viewing_time"":710},{""page_index"":42,""viewing_time"":480},{""page_index"":43,""viewing_time"":696},{""page_index"":44,""viewing_time"":682},{""page_index"":45,""viewing_time"":787},{""page_index"":46,""viewing_time"":607},{""page_index"":47,""viewing_time"":588},{""page_index"":48,""viewing_time"":500},{""page_index"":49,""viewing_time"":658},{""page_index"":50,""viewing_time"":460},{""page_index"":51,""viewing_time"":467}]","65797","","","","","","","","","","",""
"","","","","","instructions","5","75499","0.0-5.0","[{""page_index"":0,""viewing_time"":2720}]","2721","","","","","","","","","","",""
"true","false","[]","[]","[]","preload","6","76012","0.0-6.0","","","","","","","","","","","","",""
"","","","","","image-keyboard-response","7","90933","0.0-7.0","","14914","tutorial/task_familiarization_images/part 1/01_N160_K90_cliqueRight_question1.PNG"," ","","","","","","","","",""
"","","","","","image-keyboard-response","8","95301","0.0-8.0","","4362","tutorial/task_familiarization_images/part 1/02_N160_K90_cliqueRight_question2.PNG"," ","","","","","","","","",""
"","","","","","image-keyboard-response","9","105191","0.0-9.0","","9884","tutorial/task_familiarization_images/part 1/03_N160_K90_cliqueRight_question3.PNG","arrowright","","","","","","","","",""
"","","","","","image-keyboard-response","10","108779","0.0-10.0","","3578","tutorial/task_familiarization_images/part 1/04_N160_K90_cliqueRight_solution.PNG"," ","","","","","","","","",""
"","","","","","image-keyboard-response","11","111441","0.0-11.0","","2657","tutorial/task_familiarization_images/part 1/05_N160_K65_cliqueRight_question1.PNG"," ","","","","","","","","",""
"","","","","","image-keyboard-response","12","113503","0.0-12.0","","2052","tutorial/task_familiarization_images/part 1/06_N160_K65_cliqueRight_question2.PNG"," ","","","","","","","","",""
"","","","","","image-keyboard-response","13","114938","0.0-13.0","","1430","tutorial/task_familiarization_images/part 1/07_N160_K65_cliqueRight_question3.PNG","arrowright","","","","","","","","",""
"","","","","","image-keyboard-response","14","115841","0.0-14.0","","899","tutorial/task_familiarization_images/part 1/08_N160_K65_cliqueRight_solution.PNG"," ","","","","","","","","",""
"","","","","","image-keyboard-response","15","117821","0.0-15.0","","1977","tutorial/task_familiarization_images/part 1/09_N160_K50_cliqueLeft_question1.PNG"," ","","","","","","","","",""
"","","","","","image-keyboard-response","16","119621","0.0-16.0","","1795","tutorial/task_familiarization_images/part 1/10_N160_K50_cliqueLeft_question2.PNG"," ","","","","","","","","",""
"","","","","","image-keyboard-response","17","127859","0.0-17.0","","8234","tutorial/task_familiarization_images/part 1/11_N160_K50_cliqueLeft_question3.PNG","arrowleft","","","","","","","","",""
"","","","","","image-keyboard-response","18","132634","0.0-18.0","","4770","tutorial/task_familiarization_images/part 1/12_N160_K50_cliqueLeft_solution.PNG"," ","","","","","","","","",""
"","","","","","image-keyboard-response","19","135653","0.0-19.0","","3014","tutorial/task_familiarization_images/part 1/13_N160_K80_cliqueLeft_question1.PNG"," ","","","","","","","","",""
"","","","","","image-keyboard-response","20","136986","0.0-20.0","","1329","tutorial/task_familiarization_images/part 1/14_N160_K80_cliqueLeft_question2.PNG"," ","","","","","","","","",""
"","","","","","image-keyboard-response","21","138968","0.0-21.0","","1977","tutorial/task_familiarization_images/part 1/15_N160_K80_cliqueLeft_question3.PNG","arrowleft","","","","","","","","",""
"","","","","","image-keyboard-response","22","139793","0.0-22.0","","821","tutorial/task_familiarization_images/part 1/16_N160_K80_cliqueLeft_solution.PNG"," ","","","","","","","","",""
"","","","","","image-keyboard-response","23","140701","0.0-23.0","","903","tutorial/task_familiarization_images/part 1/17_N160_K40_cliqueRight_question1.PNG"," ","","","","","","","","",""
"","","","","","image-keyboard-response","24","146669","0.0-24.0","","5964","tutorial/task_familiarization_images/part 1/18_N160_K40_cliqueRight_question2.PNG"," ","","","","","","","","",""
"","","","","","image-keyboard-response","25","148481","0.0-25.0","","1806","tutorial/task_familiarization_images/part 1/19_N160_K40_cliqueRight_question3.PNG","arrowright","","","","","","","","",""
"","","","","","image-keyboard-response","26","149395","0.0-26.0","","910","tutorial/task_familiarization_images/part 1/20_N160_K40_cliqueRight_solution.PNG"," ","","","","","","","","",""
"","","","","","image-keyboard-response","27","150464","0.0-27.0","","1064","tutorial/task_familiarization_images/part 1/21_N160_K70_cliqueLeft_question1.PNG"," ","","","","","","","","",""
"","","","","","image-keyboard-response","28","153173","0.0-28.0","","2702","tutorial/task_familiarization_images/part 1/22_N160_K70_cliqueLeft_question2.PNG"," ","","","","","","","","",""
"","","","","","image-keyboard-response","29","154181","0.0-29.0","","1003","tutorial/task_familiarization_images/part 1/23_N160_K70_cliqueLeft_question3.PNG","arrowleft","","","","","","","","",""
"","","","","","image-keyboard-response","30","154724","0.0-30.0","","537","tutorial/task_familiarization_images/part 1/24_N160_K70_cliqueLeft_solution.PNG"," ","","","","","","","","",""
"true","false","[]","[]","[]","preload","31","155151","0.0-31.0","","","","","","","","","","","","",""
"","","","","","image-keyboard-response","32","166395","0.0-32.0","","11241","tutorial/task_familiarization_images/part 2/01_160_80_cliqueLeft_withFeedback_1.PNG"," ","","","","","","","","",""
"","","","","","image-keyboard-response","33","167347","0.0-33.0","","947","tutorial/task_familiarization_images/part 2/02_160_80_cliqueLeft_withFeedback_1.PNG"," ","","","","","","","","",""
"","","","","","image-keyboard-response","34","169918","0.0-34.0","","2567","tutorial/task_familiarization_images/part 2/03_160_80_cliqueLeft_withFeedback_3.PNG","arrowleft","","","","","","","","",""
"","","","","","image-keyboard-response","35","171124","0.0-35.0","","1199","tutorial/task_familiarization_images/part 2/04_160_80_cliqueLeft_withFeedback_correct.PNG"," ","","","","","","","","",""
"","","","","","image-keyboard-response","36","172914","0.0-36.0","","1786","tutorial/task_familiarization_images/part 2/05_160_55_cliqueRight_withFeedback_1.PNG"," ","","","","","","","","",""
"","","","","","image-keyboard-response","37","174673","0.0-37.0","","1756","tutorial/task_familiarization_images/part 2/06_160_55_cliqueRight_withFeedback_2.PNG"," ","","","","","","","","",""
"","","","","","image-keyboard-response","38","177680","0.0-38.0","","3001","tutorial/task_familiarization_images/part 2/07_160_55_cliqueRight_withFeedback_3.PNG","arrowright","","","","","","","","",""
"","","","","","image-keyboard-response","39","178741","0.0-39.0","","1056","tutorial/task_familiarization_images/part 2/08_160_55_cliqueRight_withFeedback_correct.PNG"," ","","","","","","","","",""
"","","","","","image-keyboard-response","40","180370","0.0-40.0","","1625","tutorial/task_familiarization_images/part 2/09_160_70_cliqueLeft_withFeedback_1.PNG"," ","","","","","","","","",""
"","","","","","image-keyboard-response","41","181973","0.0-41.0","","1598","tutorial/task_familiarization_images/part 2/10_160_70_cliqueLeft_withFeedback_2.PNG"," ","","","","","","","","",""
"","","","","","image-keyboard-response","42","183324","0.0-42.0","","1346","tutorial/task_familiarization_images/part 2/11_160_70_cliqueLeft_withFeedback_3.PNG","arrowleft","","","","","","","","",""
"","","","","","image-keyboard-response","43","184055","0.0-43.0","","726","tutorial/task_familiarization_images/part 2/12_160_70_cliqueLeft_withFeedback_correct.PNG"," ","","","","","","","","",""
"","","","","","survey-html-form","44","190510","0.0-44.0","","6445","","{""gender"":""female"",""age"":""24""}","","","","","","","","",""
"","","","","","instructions","45","196026","0.0-45.0","[{""page_index"":0,""viewing_time"":5513}]","5514","","","","","","","","","","",""
"true","","","","","fullscreen","46","198691","0.0-47.0","","","","","","","","","","","","",""
"","","","","","canvas-keyboard-response","47","209190","0.0-48.0-0.0-0.0","","10197","","arrowright","[134,31,89,195,178,137,268,69,97,182,80,270,110,209,272,189,114,66,213,85,60,22,274,263,106,228,124,256,224,90,99,116,132,220,77,26,54,232,162,113,130,221,59,2,164,152,127,225,197,163,57,7,36,41,150,33,200,3,62,123,102,199,218,174,260,248,203,45,157,144,275,285,43,61,299,292,121,107,276,98,81,187,58,214,236,207,282,244,196,23,18,237,158,202,278,56,19,128,259,211,39,95,92,38,159,139,262,147,194,46,251,234,181,185,267,14,74,235,135,253,72,13,255,0,24,269,73,206,63,222,277,188,12,115,215,280,226,140,231,212,154,28,295,210,87,117,227,141,104,208,271,118,105,261,67,257,27,4,176,125,79,279,167,65,219,35,294,240,205,145,119,88,293,183,166,165,290,71,15,10,297,122,9,169,250,286,291,153,30,229,6,265,193,93,233,273,16,103,191,190,186,20,241,11,192,245,37,53,177,217,44,136,83,75,1,55,52,47,170,266,243,148,242,76,133,138,179,184,129,91,109,126,204,238,151,143,84,175,94,101,223,180,120,155,32,149,201,289,64,21,198,168,82,131,252,86,112,156,146,287,296,298,70,96,5,42,49,111,239,68,40,258,247,48,216,8,100,172,78,249,254,284,161,34,51,25,108,283,160,281,264,50,230,173,246,17,171,29,142,288]","arrowright","","true","0","0","90","300","[""0008_N0300_K0090_NOCLIQUE"",""0056_N0300_K0090_CLIQUE""]"
"","","","","","audio-keyboard-response","48","211454","0.0-48.0-0.0-1.0","","null","audio_feedback/right/coin01.mp3","null","","","","","0","0","90","300","[""0008_N0300_K0090_NOCLIQUE"",""0056_N0300_K0090_CLIQUE""]"
"","","","","","canvas-keyboard-response","49","216119","0.0-49.0-0.0-0.0","","4304","","arrowleft","[205,188,120,280,180,197,213,281,293,105,164,24,254,235,249,36,52,94,37,20,96,206,138,107,3,23,112,92,59,284,119,233,86,109,296,60,169,228,201,179,69,141,283,76,168,221,78,211,143,207,165,252,106,128,215,139,41,99,182,43,8,216,57,33,61,189,65,144,132,194,184,288,155,93,198,55,30,88,74,272,25,115,208,17,71,16,47,202,271,244,181,172,19,267,77,79,118,256,13,253,56,251,157,6,292,240,246,26,146,150,137,275,193,224,42,297,174,149,217,125,38,236,227,192,130,241,51,222,131,278,177,298,250,255,54,7,262,160,70,12,257,167,161,274,200,100,123,203,18,285,190,142,175,266,110,136,98,156,171,0,295,276,279,261,186,87,277,83,84,289,243,218,4,176,32,63,31,46,102,163,48,268,230,80,195,183,248,170,226,185,22,238,97,299,64,104,270,204,5,67,85,53,91,269,260,81,11,264,209,1,45,129,44,124,162,34,287,212,73,29,133,223,245,114,242,21,229,173,27,178,82,225,62,113,154,259,101,134,191,158,232,286,15,145,9,111,28,40,294,210,231,66,39,151,121,68,108,49,116,153,135,214,127,72,282,247,239,196,103,50,263,90,234,147,166,140,95,291,219,126,290,122,199,58,14,265,117,75,89,35,10,152,237,159,220,2,187,148,258,273]","arrowleft","","true","0","1","90","300","[""0052_N0300_K0090_CLIQUE"",""0017_N0300_K0090_NOCLIQUE""]"
"","","","","","audio-keyboard-response","50","216572","0.0-49.0-0.0-1.0","","null","audio_feedback/right/coin01.mp3","null","","","","","0","1","90","300","[""0052_N0300_K0090_CLIQUE"",""0017_N0300_K0090_NOCLIQUE""]"
"","","","","","canvas-keyboard-response","51","220716","0.0-50.0-0.0-0.0","","3731","","arrowright","[63,3,194,230,293,18,247,31,35,132,282,2,187,177,55,12,255,291,64,158,117,166,188,175,127,277,295,204,46,198,100,60,176,252,73,298,174,45,260,267,138,229,89,206,20,112,44,24,99,217,136,56,261,128,17,122,186,208,202,114,93,29,118,51,134,143,39,157,38,120,172,159,244,263,65,196,296,58,27,184,191,285,242,181,290,98,140,68,15,66,113,235,71,160,74,153,37,284,278,147,214,169,90,85,69,141,61,28,80,41,201,14,178,195,149,209,81,77,237,8,83,207,105,36,0,40,53,121,223,199,167,22,165,250,70,170,94,154,156,219,168,48,5,9,54,49,108,240,130,171,7,234,182,6,133,271,287,185,129,192,254,148,72,21,107,111,179,251,256,193,142,210,146,205,47,88,259,59,16,200,294,222,257,233,276,231,272,79,228,76,84,180,1,104,115,258,245,281,183,203,106,246,150,103,96,275,248,25,279,43,75,289,97,92,190,265,225,19,232,220,109,218,224,95,213,152,292,215,243,155,34,274,269,212,162,299,253,197,226,163,116,283,123,57,264,221,227,131,102,164,33,139,91,211,119,273,32,288,23,137,189,86,110,161,62,125,151,50,124,4,135,126,173,87,216,144,52,78,270,236,239,286,241,10,13,262,26,11,67,238,280,42,266,30,101,297,145,82,268,249]","arrowright","","true","0","2","80","300","[""0077_N0300_K0080_NOCLIQUE"",""0070_N0300_K0080_CLIQUE""]"
"","","","","","audio-keyboard-response","52","221153","0.0-50.0-0.0-1.0","","null","audio_feedback/right/coin01.mp3","null","","","","","0","2","80","300","[""0077_N0300_K0080_NOCLIQUE"",""0070_N0300_K0080_CLIQUE""]"
"","","","","","canvas-keyboard-response","53","223327","0.0-51.0-0.0-0.0","","1819","","arrowright","[73,17,209,186,198,218,141,146,98,25,62,195,68,295,152,221,289,290,192,189,11,215,167,148,257,48,164,172,122,157,20,173,263,9,260,220,160,159,147,63,150,66,19,166,77,245,145,202,119,26,16,185,269,161,278,223,96,22,52,81,232,34,222,270,107,279,284,287,229,183,139,200,225,190,254,43,243,213,133,114,247,14,38,39,132,85,112,256,70,299,294,248,206,53,37,249,184,120,89,217,180,238,244,239,8,212,252,60,226,71,211,129,246,92,143,237,156,227,140,262,108,204,280,203,286,236,199,253,41,104,214,4,285,171,10,5,283,179,123,126,251,149,40,115,182,95,87,128,241,153,181,176,234,297,210,158,75,281,28,178,230,135,193,67,131,291,2,101,88,255,154,44,80,54,163,168,261,169,208,13,24,109,144,56,91,275,6,265,94,258,113,155,83,277,59,78,30,187,235,142,293,99,27,219,271,264,32,268,103,273,288,240,84,46,138,191,57,231,102,86,31,111,267,242,216,33,177,130,296,100,205,188,93,72,136,266,165,76,15,42,50,58,74,51,0,124,116,117,282,105,61,36,121,207,174,134,118,276,55,29,1,233,151,298,259,79,194,137,201,82,250,127,69,90,292,196,12,274,97,106,272,47,7,64,175,49,162,21,228,224,23,125,18,3,45,110,170,197,35,65]","arrowright","","true","0","3","80","300","[""0093_N0300_K0080_NOCLIQUE"",""0053_N0300_K0080_CLIQUE""]"
"","","","","","audio-keyboard-response","54","223773","0.0-51.0-0.0-1.0","","null","audio_feedback/right/coin01.mp3","null","","","","","0","3","80","300","[""0093_N0300_K0080_NOCLIQUE"",""0053_N0300_K0080_CLIQUE""]"
"","","","","","canvas-keyboard-response","55","226746","0.0-52.0-0.0-0.0","","2736","","arrowright","[47,236,264,178,293,103,235,51,11,252,29,231,35,92,268,112,172,191,265,75,138,121,189,287,60,53,193,123,197,229,12,241,205,102,108,127,55,17,133,109,5,64,93,212,70,220,71,154,40,166,226,153,22,94,67,204,137,61,122,134,146,210,131,190,253,145,50,161,86,18,59,234,248,119,78,98,28,52,39,36,177,174,294,114,251,4,159,143,44,15,245,280,69,276,256,66,186,155,84,273,277,128,148,175,3,157,216,217,219,195,179,170,286,124,7,165,181,87,129,139,101,237,68,259,6,291,73,279,206,228,242,23,126,292,30,249,31,230,27,290,202,116,16,225,76,96,80,209,224,83,46,196,283,81,269,227,151,163,158,54,255,56,184,135,62,149,113,168,200,100,118,110,208,88,33,214,271,14,152,282,99,263,257,140,289,91,41,141,199,218,243,49,45,244,32,57,258,180,272,201,132,192,74,188,48,198,0,233,246,106,297,215,247,254,20,117,21,221,107,260,194,89,167,95,156,65,120,58,82,207,169,24,43,26,105,299,266,162,211,176,130,19,281,90,136,13,150,8,185,9,63,262,182,1,274,295,2,171,115,240,267,223,111,261,42,79,203,125,298,173,275,25,34,147,187,37,10,285,239,284,288,250,183,97,222,164,104,77,38,85,142,213,232,160,270,144,238,278,296,72]","arrowright","","true","0","4","70","300","[""0068_N0300_K0070_NOCLIQUE"",""0012_N0300_K0070_CLIQUE""]"
"","","","","","audio-keyboard-response","56","227193","0.0-52.0-0.0-1.0","","null","audio_feedback/right/coin01.mp3","null","","","","","0","4","70","300","[""0068_N0300_K0070_NOCLIQUE"",""0012_N0300_K0070_CLIQUE""]"
"","","","","","canvas-keyboard-response","57","230294","0.0-53.0-0.0-0.0","","2702","","arrowleft","[0,128,39,65,14,215,216,180,282,107,297,242,271,253,261,252,111,227,181,73,55,75,285,238,257,232,273,18,162,251,264,57,98,22,4,278,122,24,275,249,283,164,3,58,290,44,174,161,118,89,49,51,1,189,16,103,48,256,221,155,120,248,151,21,154,121,156,137,131,127,12,286,93,35,247,133,20,231,59,179,92,37,143,244,134,269,146,40,279,126,52,140,186,129,9,100,79,70,78,109,291,54,95,71,284,88,197,263,53,85,157,212,235,61,76,115,188,217,158,160,265,38,183,194,207,218,25,234,130,68,149,144,28,31,113,27,258,135,169,50,204,152,99,294,46,147,223,56,205,29,36,185,13,63,72,184,139,288,289,112,211,96,295,228,41,47,292,64,281,280,270,202,119,42,150,62,196,241,192,32,74,23,110,101,170,299,60,163,190,43,117,125,267,168,108,33,91,208,178,116,145,132,209,84,159,11,298,176,237,274,219,2,233,206,80,229,243,276,191,277,173,214,94,97,81,246,167,222,17,200,6,239,165,124,141,83,105,82,293,272,195,220,8,193,187,254,240,77,175,226,136,102,236,198,142,210,26,10,19,114,15,66,34,177,296,86,224,148,250,7,87,69,123,138,255,287,171,30,153,225,203,104,45,245,90,260,166,213,268,172,5,67,230,106,199,201,182,259,262,266]","arrowleft","","true","0","5","70","300","[""0001_N0300_K0070_CLIQUE"",""0087_N0300_K0070_NOCLIQUE""]"
"","","","","","audio-keyboard-response","58","230733","0.0-53.0-0.0-1.0","","null","audio_feedback/right/coin01.mp3","null","","","","","0","5","70","300","[""0001_N0300_K0070_CLIQUE"",""0087_N0300_K0070_NOCLIQUE""]"
"","","","","","canvas-keyboard-response","59","233324","0.0-54.0-0.0-0.0","","2075","","arrowleft","[96,94,129,41,212,205,18,175,98,13,275,139,28,261,183,291,172,2,78,174,21,266,50,97,181,100,132,88,257,144,179,184,278,99,81,30,109,54,57,248,299,213,10,66,91,27,201,153,140,208,5,281,149,255,259,7,117,225,238,272,84,133,48,14,8,173,260,170,265,151,252,31,226,231,104,168,111,119,53,45,112,246,196,227,290,162,187,125,192,210,80,93,185,177,258,147,6,101,229,148,47,56,9,128,297,193,189,107,159,55,169,287,293,164,190,191,70,211,234,235,243,274,85,116,254,194,29,120,180,156,270,103,267,276,282,15,218,171,289,215,131,124,72,25,12,271,33,102,52,135,1,145,262,263,35,106,268,58,63,17,237,199,165,77,38,152,155,26,176,79,86,65,223,232,110,123,36,105,217,241,90,75,122,292,118,206,73,161,166,247,195,250,273,203,62,158,249,228,39,279,244,222,71,76,251,46,115,51,23,126,136,188,220,236,108,202,43,157,137,87,95,32,204,141,219,182,67,138,82,4,11,42,60,59,224,288,16,146,280,214,68,143,114,245,40,277,230,0,269,74,49,221,167,200,142,295,242,37,83,44,22,197,233,283,154,186,61,121,89,34,296,239,298,264,24,69,294,285,130,3,256,20,286,207,150,92,113,216,160,284,19,64,134,253,163,198,127,178,240,209]","arrowright","","false","0","6","65","300","[""0014_N0300_K0065_NOCLIQUE"",""0017_N0300_K0065_CLIQUE""]"
"","","","","","audio-keyboard-response","60","233953","0.0-54.0-0.0-1.0","","null","audio_feedback/wrong/error01.mp3","null","","","","","0","6","65","300","[""0014_N0300_K0065_NOCLIQUE"",""0017_N0300_K0065_CLIQUE""]"
"","","","","","canvas-keyboard-response","61","237650","0.0-55.0-0.0-0.0","","3364","","arrowright","[177,40,255,191,283,133,268,94,220,281,10,208,226,250,246,184,43,84,240,238,30,24,110,127,99,180,247,66,79,75,44,199,4,97,183,290,109,93,292,249,154,6,141,48,205,140,33,215,236,8,148,124,132,36,259,88,25,231,52,116,103,178,41,209,83,278,2,171,254,219,279,123,139,175,163,203,55,72,235,74,125,129,11,38,213,214,106,190,228,42,297,135,16,77,159,273,114,193,285,102,50,35,224,155,162,221,257,192,194,87,29,187,143,19,248,89,104,145,73,265,147,81,95,216,59,262,153,229,142,21,121,39,108,118,223,291,189,58,46,298,45,57,286,117,158,200,277,267,100,26,122,174,181,78,241,207,65,130,56,14,126,232,7,67,258,128,86,5,294,295,1,280,276,197,271,185,170,68,217,90,85,239,20,31,168,107,284,274,49,144,202,9,91,22,51,152,27,186,242,252,237,289,296,225,234,206,120,34,82,212,105,210,196,92,288,136,47,12,150,15,173,138,270,165,151,17,195,80,269,115,113,282,167,204,169,37,96,119,172,62,166,211,233,71,218,32,60,164,156,134,70,251,287,264,227,98,54,261,3,13,149,137,161,63,61,182,293,222,275,157,263,272,146,0,260,243,64,111,69,18,112,266,256,23,188,253,198,299,176,160,230,179,76,53,244,201,28,245,131,101]","arrowright","","true","0","7","65","300","[""0015_N0300_K0065_NOCLIQUE"",""0092_N0300_K0065_CLIQUE""]"
"","","","","","audio-keyboard-response","62","238092","0.0-55.0-0.0-1.0","","null","audio_feedback/right/coin01.mp3","null","","","","","0","7","65","300","[""0015_N0300_K0065_NOCLIQUE"",""0092_N0300_K0065_CLIQUE""]"
"","","","","","canvas-keyboard-response","63","241211","0.0-56.0-0.0-0.0","","2709","","arrowright","[182,207,62,246,137,227,1,247,295,121,28,204,100,109,152,145,208,287,136,251,84,220,31,192,73,72,297,235,53,126,119,24,203,195,22,149,283,188,25,267,181,56,150,74,224,293,296,256,132,274,175,118,16,59,70,198,125,20,174,26,154,65,193,8,255,196,259,52,173,200,50,273,285,90,244,241,206,15,3,44,223,46,219,18,140,278,54,5,292,194,91,286,45,80,85,252,165,9,30,185,43,272,158,138,164,23,277,229,233,37,87,34,117,75,104,261,2,280,142,148,68,102,249,237,106,10,76,32,153,289,67,64,167,161,184,156,4,86,127,99,98,169,248,101,225,217,69,111,218,11,222,213,51,108,6,36,81,139,245,294,253,114,212,147,234,209,35,29,166,290,240,298,60,216,281,93,205,180,236,151,88,77,40,189,105,228,133,155,177,264,42,258,271,63,257,61,27,215,160,190,128,94,186,13,89,250,144,214,129,288,176,66,276,284,243,78,96,159,197,48,202,157,268,263,124,221,231,97,33,282,41,275,107,141,116,135,130,238,254,210,279,183,12,79,266,232,103,112,299,39,168,122,146,265,260,262,291,7,57,120,49,55,226,242,134,172,17,58,95,187,0,82,38,115,21,171,113,269,143,123,211,178,110,230,191,239,199,14,179,163,71,131,162,19,170,83,201,270,47,92]","arrowright","","true","0","8","60","300","[""0091_N0300_K0060_NOCLIQUE"",""0019_N0300_K0060_CLIQUE""]"
"","","","","","audio-keyboard-response","64","241652","0.0-56.0-0.0-1.0","","null","audio_feedback/right/coin01.mp3","null","","","","","0","8","60","300","[""0091_N0300_K0060_NOCLIQUE"",""0019_N0300_K0060_CLIQUE""]"
"","","","","","canvas-keyboard-response","65","243588","0.0-57.0-0.0-0.0","","1584","","arrowleft","[244,265,104,18,269,84,248,24,90,190,282,108,273,80,109,229,113,224,235,274,225,275,123,233,46,75,251,192,50,33,160,64,296,187,195,249,158,98,226,40,82,48,61,17,87,243,182,155,103,5,176,217,122,163,247,89,116,261,11,56,253,110,51,232,234,127,129,3,37,83,134,220,262,284,23,257,124,280,14,299,143,118,151,157,239,6,181,215,66,276,148,128,161,228,94,30,99,72,21,81,62,200,164,246,278,111,285,258,34,197,167,93,19,101,145,174,147,73,196,27,8,71,206,205,260,13,152,172,292,295,76,119,231,115,202,42,2,132,218,271,204,250,117,256,266,54,168,107,102,131,184,199,255,286,144,221,203,1,165,156,85,254,100,70,137,223,185,74,169,41,238,79,180,15,222,20,154,106,29,171,77,126,9,236,28,45,112,209,12,290,287,69,288,139,198,32,4,125,65,259,0,245,293,242,291,25,272,16,263,208,146,121,289,279,133,297,120,36,210,177,162,68,216,237,88,140,193,31,86,59,207,179,35,10,63,7,201,283,240,178,211,49,96,53,47,191,105,44,150,213,189,67,241,214,57,281,52,294,58,212,267,153,227,252,194,298,268,55,97,166,91,136,95,43,114,159,141,142,22,130,270,175,277,38,183,264,92,219,170,78,39,135,60,230,186,188,138,26,173,149]","arrowleft","","true","0","9","60","300","[""0083_N0300_K0060_CLIQUE"",""0006_N0300_K0060_NOCLIQUE""]"
"","","","","","audio-keyboard-response","66","244032","0.0-57.0-0.0-1.0","","null","audio_feedback/right/coin01.mp3","null","","","","","0","9","60","300","[""0083_N0300_K0060_CLIQUE"",""0006_N0300_K0060_NOCLIQUE""]"
"","","","","","canvas-keyboard-response","67","245268","0.0-58.0-0.0-0.0","","934","","arrowright","[16,32,245,93,84,236,71,85,268,113,92,75,47,82,257,160,104,172,240,50,262,87,99,21,166,66,280,269,179,161,109,256,192,193,55,198,30,116,258,151,3,72,35,264,98,15,289,209,70,260,200,31,186,267,227,189,108,210,281,188,247,295,285,208,162,259,48,205,149,202,49,143,80,272,251,176,74,88,184,197,101,167,28,206,120,20,278,128,271,266,204,11,33,63,68,244,111,141,121,150,293,216,89,229,13,223,61,96,64,203,152,114,174,26,164,53,130,58,90,163,122,140,286,106,291,185,180,42,144,254,195,138,34,241,95,62,297,37,2,178,211,4,97,146,155,219,199,51,103,69,250,183,158,134,279,117,142,123,187,253,177,56,118,220,127,277,231,263,212,165,22,239,169,135,7,288,57,94,265,298,292,226,201,196,41,214,290,182,67,107,129,283,1,137,181,233,274,0,299,46,83,54,77,171,173,125,23,153,287,218,8,237,255,60,100,45,112,225,170,19,43,115,157,232,86,59,261,270,91,131,17,136,52,6,132,145,249,248,252,9,139,175,147,38,27,148,294,110,194,39,221,273,217,213,284,230,133,14,168,29,228,25,215,296,246,12,73,36,235,154,234,156,18,276,224,76,78,222,102,207,65,191,81,243,5,275,79,24,119,159,44,238,105,10,40,282,242,124,190,126]","arrowleft","","false","0","10","55","300","[""0062_N0300_K0055_CLIQUE"",""0012_N0300_K0055_NOCLIQUE""]"
"","","","","","audio-keyboard-response","68","245872","0.0-58.0-0.0-1.0","","null","audio_feedback/wrong/error01.mp3","null","","","","","0","10","55","300","[""0062_N0300_K0055_CLIQUE"",""0012_N0300_K0055_NOCLIQUE""]"
"","","","","","canvas-keyboard-response","69","250921","0.0-59.0-0.0-0.0","","4743","","arrowleft","[271,256,47,97,181,136,20,178,255,284,30,218,71,51,27,263,0,113,176,104,160,193,72,196,110,17,168,130,246,11,95,123,225,92,191,29,237,251,98,221,109,135,79,248,25,297,249,212,153,235,36,252,31,144,183,175,125,15,87,54,74,61,12,127,48,239,233,232,265,209,260,170,66,285,121,238,185,159,295,26,80,207,278,169,35,270,117,82,94,57,40,289,64,200,230,103,291,122,70,241,45,276,204,222,4,67,187,220,116,9,132,223,1,199,227,197,23,83,69,63,267,52,293,166,84,172,112,13,46,100,164,188,129,177,217,211,290,68,22,99,21,111,258,19,105,88,156,78,108,269,145,261,152,107,228,18,76,49,214,244,3,236,158,243,273,60,259,242,266,42,208,55,56,34,275,154,5,91,224,163,195,38,240,287,162,118,89,186,50,247,179,124,134,298,81,28,58,167,149,141,216,119,148,182,7,190,254,210,90,86,288,142,106,192,215,234,294,150,75,24,180,299,93,102,279,139,140,283,53,143,59,281,198,262,147,138,194,33,268,264,16,37,126,6,253,282,219,41,157,213,165,231,85,184,292,171,202,201,14,151,73,245,44,250,43,101,128,131,206,62,274,272,32,173,8,10,205,2,161,229,77,65,174,189,96,155,120,257,146,286,115,280,203,226,39,137,296,114,277,133]","arrowright","","false","0","11","55","300","[""0008_N0300_K0055_NOCLIQUE"",""0080_N0300_K0055_CLIQUE""]"
"","","","","","audio-keyboard-response","70","251532","0.0-59.0-0.0-1.0","","null","audio_feedback/wrong/error01.mp3","null","","","","","0","11","55","300","[""0008_N0300_K0055_NOCLIQUE"",""0080_N0300_K0055_CLIQUE""]"
"","","","","","canvas-keyboard-response","71","256274","0.0-60.0-0.0-0.0","","4431",""," ","[137,232,4,293,221,85,19,58,124,218,155,207,268,270,274,151,110,262,39,86,105,199,69,22,222,275,279,52,33,290,34,88,265,108,63,264,200,166,78,41,48,176,211,47,217,169,225,285,252,18,120,136,220,21,114,180,173,233,117,185,283,113,79,231,138,9,93,27,130,288,5,7,177,129,45,160,10,148,17,276,106,228,187,107,38,96,230,30,294,239,13,282,144,35,111,57,236,247,163,158,139,122,51,132,133,202,257,55,134,112,260,191,3,184,243,266,104,267,296,258,178,263,119,73,115,297,212,213,147,205,272,25,298,201,87,46,44,59,299,0,172,271,237,269,77,28,109,259,198,24,152,65,40,91,253,170,97,206,179,227,8,174,210,14,188,83,43,62,189,197,295,29,118,67,50,159,1,245,71,126,102,2,82,128,229,219,101,26,74,36,150,284,98,89,167,244,56,226,242,224,255,204,256,238,240,277,84,76,145,254,251,291,261,181,53,121,250,192,141,143,287,280,20,81,64,286,15,164,153,171,11,234,289,54,80,208,190,154,42,135,149,31,72,246,49,182,6,32,235,194,131,60,68,156,99,186,92,140,66,203,100,103,278,23,70,183,95,209,248,61,142,292,116,37,168,161,215,196,157,214,165,12,125,273,193,249,281,94,223,90,162,75,241,16,175,216,195,123,127,146]","arrowright","","","0","12","50","300","[""0083_N0300_K0050_NOCLIQUE"",""0032_N0300_K0050_CLIQUE""]"
"","","","","","audio-keyboard-response","72","256892","0.0-60.0-0.0-1.0","","null","audio_feedback/shuffles/shuffle01.mp3","null","","","","","0","12","50","300","[""0083_N0300_K0050_NOCLIQUE"",""0032_N0300_K0050_CLIQUE""]"
"","","","","","canvas-keyboard-response","73","262505","0.0-60.1-0.1-0.1","","5355",""," ","[141,258,139,130,163,228,176,224,197,182,149,49,210,37,20,123,80,284,229,227,235,175,58,192,94,193,39,240,242,270,239,19,142,282,135,121,17,105,120,44,269,115,170,298,177,36,138,293,124,136,96,238,154,185,15,179,180,92,198,29,173,201,53,147,276,106,90,110,21,24,272,81,294,230,64,181,98,7,200,285,78,222,40,86,292,248,71,101,204,160,125,79,189,220,48,221,89,148,122,262,223,60,169,155,144,174,199,83,52,277,18,68,187,159,38,87,132,209,291,42,43,260,22,88,133,151,289,246,114,25,231,183,171,26,97,234,259,1,62,45,102,50,186,116,93,34,207,2,77,76,286,95,143,14,72,104,23,162,296,166,75,252,236,267,211,216,261,281,30,9,178,195,32,99,250,203,146,67,278,5,140,290,112,273,247,70,287,69,232,65,66,218,10,59,219,167,237,152,4,226,279,47,205,35,249,256,245,111,137,46,202,82,128,100,51,263,109,31,194,206,8,55,254,157,233,295,119,299,191,217,54,153,107,297,268,213,168,251,56,158,129,280,118,16,275,27,108,283,165,274,91,145,264,241,255,11,33,150,113,172,134,85,265,208,41,126,57,243,63,117,271,131,190,13,84,215,225,12,184,214,196,3,188,212,6,28,253,103,266,0,164,257,127,161,73,288,61,156,74,244]","arrowright","","","0","12","50","300","[""0083_N0300_K0050_NOCLIQUE"",""0032_N0300_K0050_CLIQUE""]"
"","","","","","audio-keyboard-response","74","263093","0.0-60.1-0.1-1.1","","null","audio_feedback/shuffles/shuffle01.mp3","null","","","","","0","12","50","300","[""0083_N0300_K0050_NOCLIQUE"",""0032_N0300_K0050_CLIQUE""]"
"","","","","","canvas-keyboard-response","75","272985","0.0-60.2-0.2-0.2","","9619",""," ","[73,77,78,197,28,76,6,157,273,99,184,108,180,100,153,42,140,172,225,145,236,288,299,24,147,65,7,115,173,264,49,229,5,161,132,16,237,260,4,102,245,189,196,88,263,38,255,270,113,2,286,66,271,251,125,222,297,249,117,207,58,101,276,275,64,190,121,178,228,267,159,213,160,217,214,283,60,104,158,199,294,35,51,112,95,254,56,290,220,62,206,71,235,82,152,258,92,261,130,183,257,1,137,262,170,277,45,107,243,123,106,186,244,10,118,21,168,109,29,90,18,135,211,287,134,274,252,200,154,259,68,141,136,164,19,131,0,124,156,44,268,198,33,179,279,176,57,281,63,25,81,8,175,30,70,266,289,265,291,59,174,142,133,280,32,219,37,167,54,232,231,128,193,20,139,83,17,233,223,171,218,203,194,195,122,47,86,105,165,3,120,111,41,209,48,177,94,182,91,26,192,85,61,212,72,114,31,282,34,43,272,14,143,96,97,155,166,150,221,224,87,284,138,248,75,181,22,242,15,53,247,11,285,226,162,12,278,163,149,46,27,205,40,295,256,169,55,151,201,238,103,79,216,146,293,202,148,89,74,250,116,23,185,119,110,93,127,208,126,210,13,292,240,215,204,253,98,144,241,188,269,187,298,191,234,50,246,230,84,52,67,9,36,69,296,227,129,239,39,80]","arrowright","","","0","12","50","300","[""0083_N0300_K0050_NOCLIQUE"",""0032_N0300_K0050_CLIQUE""]"
"","","","","","audio-keyboard-response","76","273572","0.0-60.2-0.2-1.2","","null","audio_feedback/shuffles/shuffle01.mp3","null","","","","","0","12","50","300","[""0083_N0300_K0050_NOCLIQUE"",""0032_N0300_K0050_CLIQUE""]"
"","","","","","canvas-keyboard-response","77","288118","0.0-60.3-0.3-0.3","","14147","","arrowright","[55,109,280,273,43,101,227,285,127,176,68,98,184,194,269,40,11,85,24,74,1,246,238,20,288,163,38,56,160,150,100,34,5,187,204,89,6,207,162,12,296,267,88,196,262,139,281,4,155,151,116,203,186,259,253,177,80,212,104,185,46,99,105,260,112,265,19,198,10,64,96,62,95,79,274,57,237,282,73,299,226,224,214,69,148,59,168,182,23,108,7,175,17,245,195,37,129,137,221,294,81,286,284,21,93,61,45,298,135,252,179,261,13,143,75,76,258,192,254,174,213,16,283,242,9,291,25,251,241,107,14,219,145,181,205,29,190,51,82,257,167,217,279,91,244,41,83,72,30,297,193,0,248,92,58,256,60,117,67,142,276,165,153,239,15,130,28,263,149,18,119,111,232,70,106,200,206,78,144,133,65,222,120,39,272,123,103,211,215,290,32,295,35,63,293,169,77,202,27,157,247,166,277,102,115,235,243,159,223,218,49,94,230,161,156,44,225,249,141,36,138,287,178,136,33,48,121,118,289,229,199,201,197,164,209,228,266,31,54,278,71,26,53,128,220,124,125,173,191,216,183,240,110,114,50,172,236,170,147,3,22,90,250,231,2,47,188,113,171,8,42,52,140,131,86,234,146,292,180,271,275,132,210,158,152,134,97,122,87,264,268,189,154,84,126,255,66,233,208,270]","arrowright","","true","0","12","50","300","[""0083_N0300_K0050_NOCLIQUE"",""0032_N0300_K0050_CLIQUE""]"
"","","","","","audio-keyboard-response","78","288560","0.0-60.3-0.3-1.3","","null","audio_feedback/right/coin01.mp3","null","","","","","0","12","50","300","[""0083_N0300_K0050_NOCLIQUE"",""0032_N0300_K0050_CLIQUE""]"
"","","","","","canvas-keyboard-response","79","299372","0.0-61.0-0.0-0.0","","10508","","arrowleft","[281,187,8,259,184,276,57,246,81,93,261,112,62,18,176,177,25,279,116,265,173,262,191,129,28,268,22,142,229,20,86,64,193,31,53,288,109,100,130,294,17,67,147,89,135,9,71,90,77,169,252,180,232,222,213,296,97,136,167,248,4,145,274,280,267,197,5,101,91,46,220,206,174,223,285,132,253,140,128,227,29,159,189,225,79,61,118,141,32,121,127,264,195,84,204,266,153,275,52,106,183,255,161,230,74,80,92,154,249,30,149,170,119,234,247,150,21,42,152,172,192,148,188,110,63,236,69,41,45,48,209,185,56,70,260,237,181,104,143,190,269,68,165,283,200,157,27,55,207,244,290,158,133,131,123,215,226,24,95,73,146,94,59,233,66,38,83,295,50,287,82,231,186,182,256,98,218,124,103,114,113,16,44,203,179,242,196,11,15,270,2,1,87,202,58,254,235,102,43,163,60,122,219,282,144,299,49,212,14,19,107,205,39,85,115,7,12,6,33,75,278,271,245,72,251,0,289,263,34,277,228,111,138,139,126,37,76,241,99,23,273,164,257,284,214,217,168,198,47,201,194,96,155,221,26,78,10,54,13,208,108,120,171,36,160,105,65,134,40,156,240,298,292,137,250,293,210,199,291,175,166,258,3,297,178,286,216,224,125,35,51,238,117,272,243,211,239,162,151,88]","arrowleft","","true","0","13","50","300","[""0064_N0300_K0050_CLIQUE"",""0006_N0300_K0050_NOCLIQUE""]"
"","","","","","audio-keyboard-response","80","299782","0.0-61.0-0.0-1.0","","null","audio_feedback/right/coin01.mp3","null","","","","","0","13","50","300","[""0064_N0300_K0050_CLIQUE"",""0006_N0300_K0050_NOCLIQUE""]"
"","","","","","canvas-keyboard-response","81","310997","0.0-62.0-0.0-0.0","","10846","","arrowleft","[45,295,52,237,0,224,12,120,68,215,1,64,144,121,114,206,50,22,124,119,49,204,137,284,243,126,188,88,171,294,236,135,105,101,189,175,163,44,77,80,200,246,111,19,133,278,65,100,150,263,231,18,156,113,198,10,132,56,74,153,73,202,250,176,7,173,216,2,142,69,43,63,37,207,138,67,96,141,33,4,275,258,108,41,72,251,107,31,190,129,194,5,16,248,269,149,123,143,227,13,177,139,208,48,288,223,146,196,53,15,191,277,241,60,276,51,36,25,209,178,39,27,265,187,274,151,197,147,267,9,81,115,282,112,122,152,193,256,264,181,205,185,297,199,154,234,127,89,244,230,79,255,134,66,292,245,160,117,280,240,270,167,23,61,59,75,179,8,21,229,90,94,28,183,109,254,174,87,170,58,118,136,249,91,76,226,83,158,281,232,279,24,266,228,247,182,157,210,225,148,290,162,165,238,164,169,125,131,186,180,212,86,217,32,85,54,30,14,11,155,35,239,273,166,47,298,192,291,97,260,261,159,161,38,203,293,29,242,57,99,257,235,299,40,92,214,140,252,296,285,20,201,46,287,168,95,219,145,211,220,62,103,128,84,130,78,17,104,283,26,71,172,34,262,6,184,93,70,195,222,110,218,55,116,213,233,271,102,221,253,82,42,259,98,106,268,286,272,3,289]","arrowright","","false","0","14","45","300","[""0003_N0300_K0045_NOCLIQUE"",""0026_N0300_K0045_CLIQUE""]"
"","","","","","audio-keyboard-response","82","311622","0.0-62.0-0.0-1.0","","null","audio_feedback/wrong/error01.mp3","null","","","","","0","14","45","300","[""0003_N0300_K0045_NOCLIQUE"",""0026_N0300_K0045_CLIQUE""]"
"","","","","","canvas-keyboard-response","83","319158","0.0-63.0-0.0-0.0","","7269","","arrowright","[222,54,299,206,116,6,165,129,89,38,252,257,50,246,266,126,146,287,128,52,119,223,132,261,239,8,149,57,288,238,18,271,253,245,108,87,296,262,277,13,74,152,214,203,104,141,42,48,167,272,241,208,212,32,221,138,143,101,64,3,226,35,260,191,106,20,224,216,147,68,294,102,94,49,160,274,122,207,217,189,162,55,92,79,69,258,114,58,2,283,70,136,188,113,153,269,46,47,28,51,190,228,182,168,109,273,140,159,26,247,201,83,154,9,96,41,210,279,276,40,36,230,254,77,227,22,72,134,233,234,251,123,183,111,197,169,291,33,117,285,135,17,11,24,219,209,19,232,186,195,66,39,172,144,127,78,170,265,286,124,91,163,21,225,142,185,73,10,284,184,158,231,27,120,107,137,173,237,121,179,65,263,175,220,255,148,44,30,295,289,37,100,131,275,267,199,264,157,118,0,280,155,229,249,62,81,281,1,243,250,297,202,88,16,236,196,86,161,215,23,259,211,290,60,240,177,193,298,174,71,268,235,63,5,7,200,133,242,75,270,151,194,180,156,166,53,145,181,192,205,76,292,59,110,14,198,82,56,115,4,67,95,130,93,98,176,278,139,282,164,25,244,80,171,84,61,90,15,218,103,293,178,97,256,99,43,31,34,85,105,213,150,112,187,45,12,204,248,29,125]","arrowright","","true","0","15","45","300","[""0052_N0300_K0045_NOCLIQUE"",""0059_N0300_K0045_CLIQUE""]"
"","","","","","audio-keyboard-response","84","319622","0.0-63.0-0.0-1.0","","null","audio_feedback/right/coin01.mp3","null","","","","","0","15","45","300","[""0052_N0300_K0045_NOCLIQUE"",""0059_N0300_K0045_CLIQUE""]"
"","","","","","canvas-keyboard-response","85","326173","0.0-64.0-0.0-0.0","","6182",""," ","[114,185,15,137,96,164,235,203,191,138,68,57,29,21,289,35,228,230,78,31,215,67,109,49,247,81,54,284,177,34,12,199,123,178,139,13,186,198,168,219,11,201,173,22,151,288,9,76,121,87,82,211,119,107,5,213,154,223,260,116,258,144,86,48,133,280,290,287,113,118,276,120,91,89,183,240,263,2,262,291,169,217,282,286,19,205,73,47,62,226,27,255,39,264,202,261,253,192,273,40,1,270,210,52,257,60,172,165,16,102,285,58,142,130,222,8,143,294,127,231,101,124,204,18,51,32,97,145,174,216,95,112,25,43,162,209,6,50,193,184,256,65,246,227,239,259,84,70,221,26,110,243,250,104,200,37,281,20,59,134,194,66,296,141,267,93,0,28,106,152,156,248,92,44,160,55,71,238,38,229,175,158,53,69,218,299,249,189,163,99,181,196,98,265,63,10,278,197,241,283,61,115,88,207,245,129,77,125,254,122,42,94,279,171,251,266,46,74,75,195,188,277,149,187,224,64,234,45,36,14,233,111,275,182,176,166,268,131,157,269,126,30,225,206,161,153,135,237,7,214,297,41,56,292,85,33,232,293,17,212,272,83,140,167,3,105,179,4,271,128,180,132,242,72,90,117,295,252,79,148,108,155,298,136,146,244,100,103,80,150,220,147,24,274,236,208,170,190,23,159]","arrowright","","","0","16","40","300","[""0093_N0300_K0040_NOCLIQUE"",""0076_N0300_K0040_CLIQUE""]"
"","","","","","audio-keyboard-response","86","326782","0.0-64.0-0.0-1.0","","null","audio_feedback/shuffles/shuffle01.mp3","null","","","","","0","16","40","300","[""0093_N0300_K0040_NOCLIQUE"",""0076_N0300_K0040_CLIQUE""]"
"","","","","","canvas-keyboard-response","87","335048","0.0-64.1-0.1-0.1","","7913","","arrowright","[197,101,129,243,212,8,115,35,196,20,66,88,125,267,24,133,272,23,103,241,6,234,208,37,61,275,227,144,161,247,153,111,270,142,54,90,52,211,51,191,46,268,294,114,59,290,233,288,34,259,186,136,123,244,185,56,199,265,112,55,263,29,168,16,274,205,152,117,40,228,286,249,169,26,207,81,203,255,65,110,250,218,93,213,1,96,148,221,179,201,43,126,13,172,159,226,171,116,178,42,248,258,17,193,237,242,73,253,7,99,282,174,256,210,14,276,292,137,189,155,177,4,299,246,173,71,68,31,158,108,19,44,236,21,67,291,184,180,195,32,285,132,119,48,235,165,176,92,47,297,33,240,252,223,70,69,85,232,12,219,147,50,157,222,202,257,64,113,3,38,77,105,190,150,162,254,2,146,45,49,149,273,76,277,97,151,281,94,215,18,63,266,118,278,10,127,57,209,183,224,122,121,82,30,284,130,27,87,86,261,98,229,287,289,187,260,156,280,245,36,100,167,128,166,225,78,83,298,75,194,41,283,200,53,271,138,279,107,131,141,262,204,74,25,80,238,91,5,72,120,251,106,164,175,217,160,264,11,206,293,22,104,102,139,154,134,135,296,62,84,28,269,170,15,95,58,163,140,192,220,0,124,9,231,295,182,39,230,89,239,181,145,143,188,214,109,216,60,79,198]","arrowright","","true","0","16","40","300","[""0093_N0300_K0040_NOCLIQUE"",""0076_N0300_K0040_CLIQUE""]"
"","","","","","audio-keyboard-response","88","335462","0.0-64.1-0.1-1.1","","null","audio_feedback/right/coin01.mp3","null","","","","","0","16","40","300","[""0093_N0300_K0040_NOCLIQUE"",""0076_N0300_K0040_CLIQUE""]"
"","","","","","canvas-keyboard-response","89","337918","0.0-65.0-0.0-0.0","","1982","","arrowright","[272,39,292,221,55,139,233,225,27,82,21,62,72,216,75,180,60,13,74,41,89,212,66,110,101,182,165,59,124,187,83,226,277,293,130,8,93,103,269,58,56,167,132,291,179,196,243,18,102,63,128,220,129,127,31,259,117,185,288,80,9,53,268,16,138,209,232,108,84,154,12,143,299,207,114,71,164,190,20,98,105,284,175,87,126,254,34,287,280,160,134,205,252,242,174,244,14,247,265,253,90,151,78,161,88,135,217,250,23,141,150,266,5,289,43,122,231,218,274,104,44,213,86,296,133,173,77,170,235,290,219,40,6,26,264,92,11,131,192,197,149,121,73,222,76,171,297,28,201,208,119,230,267,191,68,113,168,120,17,152,283,257,294,234,194,211,295,251,248,22,184,97,25,45,224,273,144,271,47,37,189,298,61,137,246,118,286,229,157,100,107,30,29,54,69,162,147,276,111,91,159,57,255,262,206,241,263,169,2,214,198,136,95,50,96,112,85,223,106,148,7,236,156,178,10,99,48,123,70,115,3,183,239,240,1,275,227,186,215,238,15,256,35,200,109,24,181,188,285,166,146,195,177,52,249,237,193,65,49,64,94,176,32,155,79,33,210,260,140,145,116,245,4,204,228,203,81,270,163,51,258,261,153,282,142,19,172,38,36,278,158,0,46,279,199,42,281,67,125,202]","arrowright","","true","0","17","40","300","[""0025_N0300_K0040_NOCLIQUE"",""0039_N0300_K0040_CLIQUE""]"
"","","","","","audio-keyboard-response","90","338341","0.0-65.0-0.0-1.0","","null","audio_feedback/right/coin01.mp3","null","","","","","0","17","40","300","[""0025_N0300_K0040_NOCLIQUE"",""0039_N0300_K0040_CLIQUE""]"
"","","","","","canvas-keyboard-response","91","347103","0.0-66.0-0.0-0.0","","8368",""," ","[288,279,172,251,199,90,226,41,178,266,215,241,257,163,268,118,208,228,183,61,147,267,144,25,194,133,202,214,65,242,197,156,22,200,145,15,280,278,8,180,62,235,240,17,283,63,92,107,209,225,83,102,201,174,53,79,5,9,295,55,253,27,160,39,277,293,37,49,110,114,38,50,88,75,106,87,129,31,287,67,289,89,260,221,244,217,149,292,116,113,275,171,299,164,246,258,10,76,74,245,271,182,219,222,195,150,26,207,252,265,86,21,73,148,69,138,291,91,176,224,177,250,262,294,101,167,256,40,80,290,136,48,274,193,20,126,296,24,168,264,108,179,281,203,190,192,70,82,105,103,151,111,46,97,2,131,276,100,66,254,35,127,139,42,115,259,121,56,216,223,243,263,3,211,71,32,154,132,95,68,19,96,238,236,51,237,184,140,185,191,146,273,12,18,213,227,134,72,44,137,186,104,59,120,7,175,78,231,52,98,43,29,153,188,23,99,13,58,4,109,77,135,152,206,196,239,298,128,34,47,123,181,14,130,204,81,142,16,229,11,212,124,155,189,54,169,159,6,255,119,261,162,93,161,248,85,1,230,272,270,269,157,284,28,210,297,247,232,84,285,205,143,166,60,286,125,187,122,165,282,249,57,234,64,94,33,45,198,173,233,0,220,170,141,218,112,30,36,117,158]","arrowright","","","0","18","35","300","[""0078_N0300_K0035_NOCLIQUE"",""0058_N0300_K0035_CLIQUE""]"
"","","","","","audio-keyboard-response","92","347801","0.0-66.0-0.0-1.0","","null","audio_feedback/shuffles/shuffle01.mp3","null","","","","","0","18","35","300","[""0078_N0300_K0035_NOCLIQUE"",""0058_N0300_K0035_CLIQUE""]"
"","","","","","canvas-keyboard-response","93","361162","0.0-66.1-0.1-0.1","","13103",""," ","[163,210,84,175,265,124,255,278,141,136,242,274,49,118,89,282,161,268,166,113,33,8,43,27,208,13,138,240,187,209,26,24,63,277,116,234,246,229,215,197,218,78,54,150,159,199,183,284,79,203,263,22,111,143,72,225,38,92,251,55,298,220,266,233,270,46,23,133,214,244,231,256,127,17,228,168,252,76,271,59,194,178,290,34,162,158,239,235,171,134,82,91,288,64,253,276,280,95,247,131,65,149,106,200,122,56,250,15,262,69,167,184,186,10,189,264,188,50,47,28,60,172,165,108,45,153,1,157,148,44,9,221,273,73,61,224,16,57,80,192,52,232,144,260,152,62,173,101,7,110,182,25,5,102,132,160,3,112,213,179,219,81,75,292,105,6,296,285,100,204,29,67,286,12,191,119,202,176,99,211,140,287,121,139,272,181,289,196,238,297,107,267,170,31,155,103,32,243,212,19,40,114,70,58,190,98,142,245,193,90,53,18,94,279,39,129,174,85,201,93,51,147,146,86,37,35,169,21,299,227,249,109,128,258,88,275,294,120,11,217,74,241,145,216,195,77,226,20,257,115,41,259,4,281,130,104,248,230,295,254,198,71,87,137,0,180,97,293,185,14,30,42,236,125,206,48,164,96,117,126,283,291,68,36,205,177,269,237,83,156,261,135,222,223,2,151,123,154,207,66]","arrowright","","","0","18","35","300","[""0078_N0300_K0035_NOCLIQUE"",""0058_N0300_K0035_CLIQUE""]"
"","","","","","audio-keyboard-response","94","361731","0.0-66.1-0.1-1.1","","null","audio_feedback/shuffles/shuffle01.mp3","null","","","","","0","18","35","300","[""0078_N0300_K0035_NOCLIQUE"",""0058_N0300_K0035_CLIQUE""]"
"","","","","","canvas-keyboard-response","95","368485","0.0-66.2-0.2-0.2","","6537","","arrowright","[202,84,1,210,160,143,179,289,125,43,263,27,72,3,15,281,274,196,200,19,206,219,74,132,231,290,150,266,229,127,33,297,287,192,100,204,167,81,99,82,248,59,149,253,191,217,153,234,237,285,180,34,232,187,120,5,134,32,252,16,279,45,173,144,161,60,39,65,133,112,216,52,262,292,122,58,157,116,85,53,282,235,299,118,141,186,227,71,80,13,147,165,201,93,221,26,158,0,37,154,101,67,146,222,23,135,268,163,293,131,156,115,126,247,214,123,21,78,152,90,169,88,188,113,183,208,261,107,97,63,238,185,211,226,124,205,76,255,55,31,142,151,136,251,246,271,49,89,284,288,176,239,92,2,189,105,170,276,109,207,6,12,241,174,4,273,230,29,35,18,51,28,155,168,56,294,190,57,164,20,199,212,283,243,242,272,267,41,69,77,91,140,249,119,111,264,75,24,46,275,129,68,175,7,95,178,209,269,215,225,86,198,181,128,244,145,121,30,62,83,203,54,66,104,9,193,177,139,223,138,61,270,254,245,102,36,195,218,42,117,96,224,11,47,70,295,17,98,296,233,79,171,38,194,87,22,184,172,110,213,40,280,73,250,50,48,298,44,277,162,10,8,182,130,94,137,291,286,228,260,166,265,197,257,106,14,64,236,148,103,114,220,256,240,159,259,25,108,258,278]","arrowright","","true","0","18","35","300","[""0078_N0300_K0035_NOCLIQUE"",""0058_N0300_K0035_CLIQUE""]"
"","","","","","audio-keyboard-response","96","368951","0.0-66.2-0.2-1.2","","null","audio_feedback/right/coin01.mp3","null","","","","","0","18","35","300","[""0078_N0300_K0035_NOCLIQUE"",""0058_N0300_K0035_CLIQUE""]"
"","","","","","canvas-keyboard-response","97","375558","0.0-67.0-0.0-0.0","","6314",""," ","[57,262,292,270,231,283,189,268,224,74,148,155,66,68,20,199,298,166,221,188,91,10,232,181,289,79,286,89,257,17,16,117,123,272,99,119,41,259,122,223,132,37,69,3,299,64,156,167,213,172,116,25,5,161,126,55,102,2,240,203,235,187,245,282,36,50,15,96,192,104,44,105,14,73,266,242,153,184,59,170,197,63,219,251,72,154,135,206,169,82,151,209,4,26,281,149,295,296,1,158,87,173,165,180,182,260,54,101,290,62,39,252,76,127,211,214,160,49,29,24,244,138,133,195,98,241,150,215,146,277,85,174,9,129,22,53,103,190,287,253,164,90,275,140,254,95,178,248,31,136,131,264,218,230,201,58,279,60,227,247,288,297,145,134,198,107,291,114,263,130,243,92,106,84,179,273,18,236,13,229,56,280,177,43,65,217,7,40,38,67,21,78,171,294,249,168,265,210,83,112,121,152,233,33,12,216,81,113,27,100,125,141,220,94,237,52,269,162,97,191,108,163,30,88,194,157,228,256,261,250,109,285,45,274,143,207,258,28,185,61,225,176,293,183,139,234,246,186,23,8,34,205,202,46,193,267,239,142,147,35,118,0,71,11,200,42,276,208,271,144,51,77,196,284,48,124,32,278,80,128,75,93,212,70,137,255,159,120,47,19,204,110,6,111,175,238,226,115,222,86]","arrowright","","","0","19","35","300","[""0053_N0300_K0035_NOCLIQUE"",""0091_N0300_K0035_CLIQUE""]"
"","","","","","audio-keyboard-response","98","376131","0.0-67.0-0.0-1.0","","null","audio_feedback/shuffles/shuffle01.mp3","null","","","","","0","19","35","300","[""0053_N0300_K0035_NOCLIQUE"",""0091_N0300_K0035_CLIQUE""]"
"","","","","","canvas-keyboard-response","99","385058","0.0-67.1-0.1-0.1","","8636",""," ","[31,253,154,265,33,260,202,227,107,139,196,235,67,262,69,215,199,96,290,275,231,129,45,237,115,168,172,197,88,218,295,161,68,63,191,40,140,269,11,20,189,211,116,38,151,219,173,193,57,243,165,17,225,276,87,114,70,297,30,261,206,50,169,138,250,281,13,118,272,216,42,170,296,212,289,135,277,28,254,24,178,217,19,249,133,159,39,195,26,245,175,14,214,256,242,95,122,226,21,62,156,104,209,264,157,233,293,102,280,113,187,204,166,36,48,15,241,174,78,210,23,248,283,294,145,291,64,284,208,299,76,287,252,239,152,8,109,182,47,186,198,12,263,77,103,49,121,41,236,82,112,93,108,54,2,285,81,124,101,80,238,53,162,65,224,29,292,137,136,268,25,177,207,194,18,16,142,7,149,9,130,160,66,106,259,120,91,143,134,147,278,52,183,185,176,128,71,181,267,5,6,73,85,146,246,221,37,132,213,92,258,100,257,244,60,205,150,171,61,188,59,279,22,298,141,111,32,27,90,274,232,44,266,271,72,286,230,126,131,273,98,220,201,167,288,247,203,282,105,255,223,148,190,200,35,119,75,10,43,184,34,3,84,153,270,228,97,89,234,155,79,158,164,51,163,179,1,229,180,94,125,123,56,86,55,110,58,99,83,4,0,127,251,46,240,74,117,144,192,222]","arrowright","","","0","19","35","300","[""0053_N0300_K0035_NOCLIQUE"",""0091_N0300_K0035_CLIQUE""]"
"","","","","","audio-keyboard-response","100","385652","0.0-67.1-0.1-1.1","","null","audio_feedback/shuffles/shuffle01.mp3","null","","","","","0","19","35","300","[""0053_N0300_K0035_NOCLIQUE"",""0091_N0300_K0035_CLIQUE""]"
"","","","","","canvas-keyboard-response","101","394161","0.0-67.2-0.2-0.2","","8208",""," ","[215,91,269,235,178,86,40,131,78,179,61,197,142,239,163,161,107,32,37,232,92,132,289,254,53,146,43,12,194,79,217,114,11,277,298,233,234,212,295,165,99,49,69,145,103,90,20,168,273,209,229,276,243,216,28,108,296,51,147,102,271,97,236,84,293,106,21,119,121,73,14,258,272,120,255,96,115,285,88,140,134,185,263,268,203,29,270,201,141,290,72,18,244,230,31,278,253,259,223,171,71,135,112,202,136,5,74,6,219,109,264,192,15,26,24,225,246,38,118,187,183,281,206,214,46,130,204,25,291,22,213,63,208,93,275,2,200,125,195,52,128,89,196,248,67,199,87,205,129,143,123,279,153,98,167,50,137,47,164,30,288,226,231,124,210,85,9,292,257,35,33,284,160,287,190,105,181,280,157,245,162,122,150,59,76,94,170,173,45,221,152,207,191,80,222,166,100,158,266,149,139,174,23,101,189,218,126,184,274,27,48,186,220,283,75,193,256,81,155,64,242,8,39,13,260,36,60,104,10,42,172,261,82,228,116,198,251,68,159,297,282,3,113,237,247,286,70,154,294,62,1,17,188,265,176,250,0,144,249,177,241,77,66,133,148,169,224,34,238,16,95,4,175,58,138,227,262,180,41,211,55,267,117,56,65,127,111,44,54,182,83,151,156,240,299,57,110,252,19,7]","arrowright","","","0","19","35","300","[""0053_N0300_K0035_NOCLIQUE"",""0091_N0300_K0035_CLIQUE""]"
"","","","","","audio-keyboard-response","102","394752","0.0-67.2-0.2-1.2","","null","audio_feedback/shuffles/shuffle01.mp3","null","","","","","0","19","35","300","[""0053_N0300_K0035_NOCLIQUE"",""0091_N0300_K0035_CLIQUE""]"
"","","","","","canvas-keyboard-response","103","405873","0.0-67.3-0.3-0.3","","10874","","arrowleft","[9,158,111,190,88,292,277,86,294,16,230,148,130,90,149,71,212,26,203,127,165,45,11,47,129,144,205,49,170,80,166,180,276,132,21,116,288,261,142,2,202,56,293,15,36,268,30,197,183,123,221,178,87,217,75,1,164,193,57,3,151,24,32,101,156,152,191,211,122,207,274,14,296,140,97,98,82,92,204,192,124,285,278,68,171,85,251,103,188,74,252,61,219,35,46,135,229,25,12,265,175,174,105,224,73,134,187,107,227,254,94,185,189,6,133,269,150,52,222,225,108,5,168,161,39,239,287,297,4,216,102,162,275,112,241,42,139,256,54,220,209,290,13,115,172,200,79,242,33,109,179,28,260,286,96,146,240,235,50,233,258,58,223,206,245,213,214,279,154,66,266,23,76,182,155,10,100,153,145,169,59,194,125,20,299,147,270,19,234,53,248,106,78,60,226,291,69,84,22,282,262,7,208,119,249,121,0,63,43,218,177,167,141,120,281,246,250,77,48,238,284,257,17,31,283,259,81,159,83,137,38,72,8,44,263,41,176,70,118,163,95,289,64,29,298,253,201,247,89,186,264,255,280,157,181,232,18,37,196,27,51,295,244,110,236,126,34,40,99,237,272,160,55,91,113,131,143,128,65,228,215,67,267,138,104,93,273,195,210,271,243,198,114,231,62,136,184,117,173,199]","arrowright","","false","0","19","35","300","[""0053_N0300_K0035_NOCLIQUE"",""0091_N0300_K0035_CLIQUE""]"
"","","","","","audio-keyboard-response","104","406497","0.0-67.3-0.3-1.3","","null","audio_feedback/wrong/error01.mp3","null","","","","","0","19","35","300","[""0053_N0300_K0035_NOCLIQUE"",""0091_N0300_K0035_CLIQUE""]"
"","","","","","canvas-keyboard-response","105","420714","0.0-68.0-0.0-0.0","","13741",""," ","[58,80,219,239,231,36,291,37,274,100,14,243,240,117,223,245,70,29,177,169,160,250,103,51,53,147,7,148,136,133,55,30,277,188,75,153,190,86,119,152,256,248,16,258,145,182,23,27,159,265,96,141,140,26,114,193,263,297,1,94,217,207,32,138,11,61,79,247,184,104,101,233,115,35,107,279,238,220,218,8,285,203,137,62,157,129,43,237,102,267,164,234,149,165,295,24,46,65,172,17,299,215,235,83,204,166,90,151,260,109,178,158,287,39,0,181,9,173,72,272,253,48,214,298,118,91,192,171,98,60,82,261,229,42,283,155,18,232,179,230,64,194,228,242,74,170,195,59,6,209,45,198,92,20,276,227,41,135,142,13,294,296,73,146,21,221,186,251,280,176,206,63,156,282,189,268,257,293,121,28,154,224,38,255,111,50,196,266,236,2,284,292,122,187,200,3,112,252,139,191,208,105,52,97,264,66,85,56,180,76,244,288,116,262,286,161,183,150,120,22,93,249,113,197,175,33,201,271,10,110,226,4,222,205,77,81,211,167,269,281,254,212,123,124,128,275,54,89,49,126,78,99,225,19,71,199,31,290,278,216,127,130,87,241,163,57,108,34,273,270,162,88,168,131,143,5,185,213,134,210,202,25,174,67,47,125,95,144,259,68,106,44,40,15,12,246,289,84,132,69]","arrowright","","","0","20","30","300","[""0014_N0300_K0030_NOCLIQUE"",""0044_N0300_K0030_CLIQUE""]"
"","","","","","audio-keyboard-response","106","421308","0.0-68.0-0.0-1.0","","null","audio_feedback/shuffles/shuffle01.mp3","null","","","","","0","20","30","300","[""0014_N0300_K0030_NOCLIQUE"",""0044_N0300_K0030_CLIQUE""]"
"","","","","","canvas-keyboard-response","107","425610","0.0-68.1-0.1-0.1","","3990","","arrowright","[111,21,254,277,203,73,169,195,24,28,172,36,16,7,250,240,170,14,58,184,199,139,90,110,217,257,76,27,297,150,211,233,9,165,158,137,3,263,238,57,61,63,60,124,127,105,212,176,138,92,29,186,102,187,20,268,154,70,282,163,134,266,32,72,276,123,209,53,22,115,146,215,149,228,52,286,6,107,237,157,204,46,33,225,164,265,113,114,249,37,241,17,288,116,98,83,247,198,26,79,218,122,35,235,68,267,159,245,271,287,140,144,100,205,177,94,246,290,229,259,50,118,65,280,299,171,117,106,56,4,253,141,18,66,166,101,192,87,142,178,294,88,10,91,119,270,202,221,103,8,191,44,168,40,226,179,272,219,239,256,48,193,143,120,45,152,298,262,181,86,89,295,93,75,84,34,173,156,81,207,278,252,194,155,147,174,80,131,38,2,30,196,258,236,54,200,129,95,43,109,283,231,213,82,12,41,175,108,251,197,104,269,289,125,167,281,201,39,145,224,11,51,180,206,284,97,185,279,19,190,1,234,208,285,260,71,275,148,13,77,74,291,15,293,55,223,232,5,135,0,261,274,85,153,188,31,49,242,160,230,126,220,264,64,227,47,183,128,210,161,59,78,222,296,42,255,182,248,151,112,136,133,96,292,189,244,214,99,162,130,69,121,62,132,243,67,23,273,25,216]","arrowright","","true","0","20","30","300","[""0014_N0300_K0030_NOCLIQUE"",""0044_N0300_K0030_CLIQUE""]"
"","","","","","audio-keyboard-response","108","426067","0.0-68.1-0.1-1.1","","null","audio_feedback/right/coin01.mp3","null","","","","","0","20","30","300","[""0014_N0300_K0030_NOCLIQUE"",""0044_N0300_K0030_CLIQUE""]"
"","","","","","canvas-keyboard-response","109","432048","0.0-69.0-0.0-0.0","","5669","","arrowleft","[173,224,77,279,249,206,113,270,98,180,96,43,272,73,138,266,101,288,242,1,24,174,130,176,210,233,95,92,231,123,227,114,146,204,31,183,67,230,187,124,137,56,29,246,139,127,145,296,260,222,45,91,143,97,201,282,85,223,295,59,190,207,199,93,221,81,168,35,62,256,52,182,129,250,219,48,32,82,17,121,247,262,292,234,200,37,102,134,89,55,156,273,126,10,135,225,115,6,268,265,80,291,181,297,259,131,94,237,111,116,209,5,215,175,12,271,294,150,239,240,25,44,255,235,172,68,289,3,192,99,58,11,112,286,105,86,258,132,299,119,158,275,191,197,30,290,189,298,198,120,241,19,70,276,42,178,125,283,128,203,254,267,186,293,160,218,165,248,20,148,245,50,28,149,287,214,74,122,65,142,211,107,261,60,72,41,46,40,159,53,2,166,202,22,281,179,284,84,51,110,252,253,79,162,167,217,263,144,251,16,14,157,15,18,109,243,264,147,106,228,117,151,9,163,238,61,177,8,154,208,170,75,229,171,26,169,36,212,104,161,136,38,34,155,278,226,23,0,205,193,269,21,195,108,57,33,54,140,133,118,76,285,257,88,196,185,66,13,78,49,27,71,184,63,194,153,213,83,69,90,277,103,216,220,232,164,274,188,47,87,236,244,4,141,39,152,64,280,100,7]","arrowright","","false","0","21","30","300","[""0081_N0300_K0030_NOCLIQUE"",""0089_N0300_K0030_CLIQUE""]"
"","","","","","audio-keyboard-response","110","432688","0.0-69.0-0.0-1.0","","null","audio_feedback/wrong/error01.mp3","null","","","","","0","21","30","300","[""0081_N0300_K0030_NOCLIQUE"",""0089_N0300_K0030_CLIQUE""]"
"","","","","","canvas-keyboard-response","111","439041","0.0-70.0-0.0-0.0","","6052","","arrowright","[176,263,190,183,128,162,75,283,245,40,29,89,132,139,116,3,265,181,4,227,72,62,133,253,180,115,288,257,204,223,149,70,224,252,208,285,14,281,198,280,131,199,165,160,39,215,136,13,2,20,15,110,44,112,74,188,209,113,35,135,233,12,237,143,67,59,262,187,92,27,195,250,103,196,182,140,266,21,246,211,205,31,126,36,273,30,156,236,86,73,93,99,197,85,284,161,255,299,276,45,243,277,124,71,23,220,1,261,50,256,214,60,142,229,105,125,58,80,68,152,109,57,10,177,34,270,228,9,225,137,217,259,164,79,26,123,291,114,51,200,264,122,37,5,254,282,297,260,11,101,91,77,221,290,52,296,275,271,42,102,82,33,192,94,84,22,173,8,150,64,119,235,17,242,88,47,38,241,147,272,210,97,56,159,6,141,178,230,78,151,231,144,216,54,206,98,53,267,167,240,258,130,238,212,222,111,293,100,153,171,170,168,172,65,0,18,202,189,127,185,25,294,174,247,194,186,274,43,154,16,155,157,184,49,83,61,48,146,203,191,295,292,251,218,232,163,145,96,46,287,121,148,41,201,239,269,175,118,279,207,24,81,278,169,129,28,138,104,95,249,179,117,66,19,69,107,120,289,226,286,108,90,87,106,63,55,248,158,134,268,213,298,219,244,193,76,166,32,7,234]","arrowright","","true","0","22","25","300","[""0013_N0300_K0025_NOCLIQUE"",""0097_N0300_K0025_CLIQUE""]"
"","","","","","audio-keyboard-response","112","439467","0.0-70.0-0.0-1.0","","null","audio_feedback/right/coin01.mp3","null","","","","","0","22","25","300","[""0013_N0300_K0025_NOCLIQUE"",""0097_N0300_K0025_CLIQUE""]"
"","","","","","canvas-keyboard-response","113","443620","0.0-71.0-0.0-0.0","","3797","","arrowleft","[290,35,191,265,77,54,161,276,168,193,119,188,249,71,26,142,129,286,75,236,233,3,167,156,29,234,47,254,177,171,41,205,271,124,162,63,104,32,99,170,25,235,238,160,293,117,283,105,82,81,166,15,106,2,211,78,51,278,52,274,123,153,204,268,16,295,247,14,196,209,137,108,187,42,146,122,200,258,216,181,128,248,7,89,62,72,280,107,94,164,197,240,50,243,183,61,189,38,180,279,121,179,207,143,294,114,263,39,98,257,259,285,141,220,154,19,289,37,40,152,195,210,275,198,175,250,237,169,241,6,266,203,80,148,140,155,111,73,215,76,84,5,208,0,79,110,92,246,227,66,242,251,194,53,298,93,255,67,231,95,173,116,281,206,244,45,199,277,49,269,225,12,70,149,174,48,13,267,103,260,69,126,299,96,131,60,17,22,33,287,223,272,101,27,229,97,21,288,186,256,138,8,201,36,130,91,83,261,178,43,88,31,102,100,127,11,64,176,159,182,297,58,217,147,56,68,9,120,90,118,184,273,113,222,86,134,145,74,262,20,172,282,1,224,57,144,245,4,221,202,226,165,28,230,87,292,109,59,296,185,112,291,252,65,190,284,270,133,30,135,150,34,163,125,253,85,214,213,218,157,219,55,23,136,192,10,44,212,232,158,228,115,151,24,239,264,139,46,132,18]","arrowright","","false","0","23","25","300","[""0018_N0300_K0025_NOCLIQUE"",""0031_N0300_K0025_CLIQUE""]"
"","","","","","audio-keyboard-response","114","444225","0.0-71.0-0.0-1.0","","null","audio_feedback/wrong/error01.mp3","null","","","","","0","23","25","300","[""0018_N0300_K0025_NOCLIQUE"",""0031_N0300_K0025_CLIQUE""]"
"","","","","","canvas-keyboard-response","115","454005","0.0-72.0-0.0-0.0","","9578","","arrowright","[24,136,227,84,8,170,109,177,189,122,164,228,230,0,265,268,102,218,45,67,165,10,74,232,6,53,41,282,243,249,224,117,98,33,290,244,195,293,200,79,201,157,235,276,166,155,22,31,17,28,43,211,42,138,198,37,124,70,82,285,257,281,191,60,175,216,239,183,171,180,4,297,89,241,119,264,247,114,140,267,29,18,44,55,193,131,160,229,69,47,40,107,272,83,150,256,20,100,125,62,187,287,209,12,181,226,245,141,278,133,103,46,196,66,72,263,240,237,236,162,50,173,210,204,221,118,295,233,214,48,14,23,158,61,35,205,284,90,64,112,288,76,167,143,259,176,132,121,292,71,225,134,104,147,1,242,26,179,21,38,73,213,15,99,127,113,145,261,178,252,81,52,280,95,299,266,51,25,185,154,152,128,250,296,108,3,238,159,202,258,251,197,106,212,7,186,289,286,101,58,254,65,194,190,149,2,188,275,57,91,111,93,206,54,262,274,30,87,294,151,203,75,16,68,137,153,269,277,123,27,59,85,253,222,184,88,120,207,39,174,126,163,231,234,80,56,169,220,9,116,49,246,172,298,130,223,135,270,260,273,5,105,182,77,142,219,92,208,156,283,11,146,129,255,13,86,148,34,36,279,168,139,32,115,144,97,161,78,217,215,192,96,19,291,63,199,271,248,94,110]","arrowright","","true","0","24","20","300","[""0053_N0300_K0020_NOCLIQUE"",""0074_N0300_K0020_CLIQUE""]"
"","","","","","audio-keyboard-response","116","454427","0.0-72.0-0.0-1.0","","null","audio_feedback/right/coin01.mp3","null","","","","","0","24","20","300","[""0053_N0300_K0020_NOCLIQUE"",""0074_N0300_K0020_CLIQUE""]"
"","","","","","canvas-keyboard-response","117","464718","0.0-73.0-0.0-0.0","","9883","","arrowright","[127,156,41,288,125,10,62,19,226,33,11,133,57,164,42,117,212,277,154,48,261,14,22,108,231,60,278,161,243,267,27,272,296,2,250,53,67,113,98,162,78,215,235,77,172,65,50,299,280,282,106,163,72,262,270,168,271,264,244,97,158,192,26,177,28,184,38,90,128,234,211,150,82,24,37,279,281,197,124,286,35,132,289,7,110,74,214,138,99,36,224,114,58,265,199,260,239,29,39,245,151,112,9,30,31,230,100,61,190,187,109,213,229,195,144,18,115,16,13,152,227,222,252,4,25,285,136,173,121,171,255,15,104,129,142,225,89,176,208,217,169,275,247,159,175,298,268,165,91,107,216,256,205,102,166,86,196,232,228,105,223,1,203,59,283,249,101,8,185,201,3,43,146,180,6,218,131,49,122,248,17,69,237,200,254,120,246,56,257,259,178,194,181,210,71,251,269,103,263,116,0,23,139,157,44,284,32,85,83,241,46,81,140,287,266,145,188,75,88,170,153,141,238,186,130,219,52,96,291,51,204,148,149,55,206,5,70,179,240,92,80,167,191,294,118,182,221,207,123,198,189,76,295,21,40,193,119,54,220,20,160,94,93,242,111,135,73,202,293,87,273,274,209,174,155,236,233,66,134,12,79,183,258,137,34,143,276,126,292,290,47,45,84,95,253,297,63,147,64,68]","arrowleft","","false","0","25","20","300","[""0022_N0300_K0020_CLIQUE"",""0028_N0300_K0020_NOCLIQUE""]"
"","","","","","audio-keyboard-response","118","465339","0.0-73.0-0.0-1.0","","null","audio_feedback/wrong/error01.mp3","null","","","","","0","25","20","300","[""0022_N0300_K0020_CLIQUE"",""0028_N0300_K0020_NOCLIQUE""]"
"","","","","","canvas-keyboard-response","119","470517","0.0-74.0-0.0-0.0","","4809","","arrowleft","[171,198,207,103,70,213,285,217,23,242,272,5,30,224,53,283,91,87,267,233,221,11,222,26,4,61,289,188,121,212,3,1,122,163,273,290,160,275,123,228,21,211,249,65,239,243,250,82,34,183,0,73,195,92,165,127,109,132,8,235,219,96,229,138,258,291,159,254,78,31,35,169,117,150,154,225,264,19,268,24,116,238,257,141,244,216,131,294,261,84,99,113,47,9,37,146,168,66,7,274,6,230,16,232,177,287,210,266,14,51,143,203,10,38,234,185,197,88,158,139,57,200,166,164,147,298,255,151,126,281,189,140,190,60,218,220,144,101,245,209,271,125,43,153,247,237,148,156,98,89,288,62,93,286,42,241,133,260,262,194,80,46,182,172,269,176,208,76,205,56,135,236,240,81,256,45,136,114,175,120,106,204,97,58,142,186,2,48,129,105,277,227,253,149,39,50,199,155,118,270,25,296,104,71,63,95,278,41,173,174,263,110,52,72,202,137,54,179,75,231,223,18,29,295,108,248,49,12,20,134,17,13,299,79,152,94,33,178,69,77,36,180,157,226,184,282,68,162,83,112,102,119,276,74,100,44,85,59,206,161,124,280,90,284,214,27,246,170,215,55,252,292,259,293,111,265,28,15,67,128,32,22,279,196,181,251,167,145,86,64,115,40,201,107,187,192,130,297,191,193]","arrowright","","false","0","26","15","300","[""0097_N0300_K0015_NOCLIQUE"",""0089_N0300_K0015_CLIQUE""]"
"","","","","","audio-keyboard-response","120","471117","0.0-74.0-0.0-1.0","","null","audio_feedback/wrong/error01.mp3","null","","","","","0","26","15","300","[""0097_N0300_K0015_NOCLIQUE"",""0089_N0300_K0015_CLIQUE""]"
"","","","","","canvas-keyboard-response","121","474128","0.0-75.0-0.0-0.0","","2618","","arrowleft","[108,191,168,35,197,100,31,216,236,267,257,34,159,48,165,18,101,222,11,71,115,279,14,296,20,176,134,106,38,292,214,62,120,30,255,237,240,24,206,210,220,199,265,82,78,225,17,298,202,151,155,212,125,182,122,129,157,234,68,285,152,33,244,150,59,200,42,4,170,178,104,223,217,250,288,249,274,190,270,198,23,128,103,113,19,203,275,276,86,171,252,175,283,109,192,201,121,75,247,99,9,258,0,262,148,110,235,145,286,268,174,54,127,50,273,36,209,164,111,154,49,80,248,47,37,241,114,251,246,297,43,242,88,27,141,232,65,260,289,144,3,131,166,12,194,295,85,1,45,57,119,25,173,207,138,105,186,8,277,73,271,118,153,61,124,16,185,181,32,218,46,219,58,284,26,53,28,70,117,230,163,229,193,160,123,243,140,294,77,228,112,169,238,69,156,149,44,211,177,135,5,196,137,293,56,256,179,280,83,143,93,51,81,13,76,63,221,64,245,281,39,215,6,96,290,299,263,66,95,233,227,180,204,269,291,22,231,226,161,79,92,261,90,94,158,7,264,142,84,239,126,282,187,146,254,29,98,60,72,266,116,89,107,162,136,67,139,184,102,10,259,183,147,253,205,287,97,15,189,224,272,172,167,132,55,52,91,130,87,213,278,2,74,195,40,188,41,208,21,133]","arrowleft","","true","0","27","15","300","[""0052_N0300_K0015_CLIQUE"",""0021_N0300_K0015_NOCLIQUE""]"
"","","","","","audio-keyboard-response","122","474598","0.0-75.0-0.0-1.0","","null","audio_feedback/right/coin01.mp3","null","","","","","0","27","15","300","[""0052_N0300_K0015_CLIQUE"",""0021_N0300_K0015_NOCLIQUE""]"
"","","","","","canvas-keyboard-response","123","479317","0.0-76.0-0.0-0.0","","4299","","arrowleft","[292,225,164,180,17,265,48,79,194,259,21,96,23,191,89,101,177,114,184,33,76,204,228,199,37,284,151,215,252,121,254,208,110,112,6,103,277,241,141,288,56,195,248,84,11,243,158,133,63,210,161,214,32,15,138,50,7,197,94,74,251,276,1,91,102,242,183,174,69,137,105,5,206,160,95,150,65,221,64,207,260,98,291,77,203,211,144,71,216,22,36,38,272,244,41,3,146,51,49,87,182,202,123,155,34,78,169,127,19,14,181,287,40,231,237,258,176,286,192,124,168,129,68,9,26,227,235,2,238,253,10,224,279,280,100,130,247,16,263,218,157,269,295,42,262,268,62,201,212,188,232,111,73,116,222,61,125,185,142,66,264,249,220,255,189,236,229,92,93,143,298,44,104,136,175,115,90,126,39,18,187,271,223,139,205,13,108,54,24,293,145,59,27,261,200,118,148,209,166,80,60,140,4,278,198,119,28,30,113,190,52,172,240,81,67,234,70,250,186,266,281,285,82,117,86,58,12,152,88,167,97,109,8,299,29,297,135,156,43,213,75,283,128,153,275,257,53,83,196,239,0,120,85,294,178,267,193,290,289,45,122,154,245,57,131,35,147,273,296,134,230,132,159,106,282,163,179,226,171,256,162,55,274,219,47,270,173,149,25,99,72,233,31,246,46,170,217,20,107,165]","arrowright","","false","0","28","10","300","[""0001_N0300_K0010_NOCLIQUE"",""0075_N0300_K0010_CLIQUE""]"
"","","","","","audio-keyboard-response","124","479917","0.0-76.0-0.0-1.0","","null","audio_feedback/wrong/error01.mp3","null","","","","","0","28","10","300","[""0001_N0300_K0010_NOCLIQUE"",""0075_N0300_K0010_CLIQUE""]"
"","","","","","canvas-keyboard-response","125","487695","0.0-77.0-0.0-0.0","","7316",""," ","[157,99,33,202,170,69,46,52,276,30,104,184,176,34,223,92,244,209,137,143,135,1,21,142,194,86,87,54,158,79,70,196,55,145,19,267,81,74,299,220,232,212,217,165,180,233,24,18,260,149,67,250,128,129,229,14,159,119,48,238,251,108,120,40,294,140,36,45,235,88,105,201,280,63,62,169,133,32,139,292,298,295,290,7,265,263,90,57,287,115,246,50,181,37,89,203,269,85,205,155,38,289,270,61,113,199,106,192,224,272,122,178,141,190,91,53,82,126,240,198,195,51,247,183,93,23,179,168,191,213,84,258,116,230,59,78,161,234,171,151,96,16,13,121,275,231,211,132,4,44,75,188,185,107,283,271,296,43,243,39,80,187,0,42,83,166,266,146,242,293,65,206,41,27,227,100,134,285,215,164,66,241,58,9,221,156,259,245,25,49,286,249,264,261,182,288,3,252,73,284,237,114,160,152,94,200,219,257,236,102,64,268,95,125,222,20,124,210,101,225,174,35,291,228,117,189,150,214,193,103,274,186,226,77,255,207,282,172,279,256,12,111,167,31,28,208,10,173,15,2,72,273,148,11,253,138,297,175,22,8,281,110,254,239,97,98,130,68,131,127,216,162,277,47,278,71,6,218,76,123,144,154,56,262,17,29,177,118,109,147,136,26,197,60,112,204,153,163,5,248]","arrowleft","","","0","29","10","300","[""0052_N0300_K0010_CLIQUE"",""0037_N0300_K0010_NOCLIQUE""]"
"","","","","","audio-keyboard-response","126","488316","0.0-77.0-0.0-1.0","","null","audio_feedback/shuffles/shuffle01.mp3","null","","","","","0","29","10","300","[""0052_N0300_K0010_CLIQUE"",""0037_N0300_K0010_NOCLIQUE""]"
"","","","","","canvas-keyboard-response","127","491612","0.0-77.1-0.1-0.1","","2947",""," ","[179,20,213,278,34,237,227,171,167,293,137,197,127,229,95,36,149,48,216,172,81,18,25,251,249,0,53,289,144,239,146,142,156,77,186,37,12,169,288,58,89,59,245,72,141,243,138,230,233,218,80,98,88,215,175,23,15,279,276,121,145,187,178,221,67,210,86,96,73,155,8,28,292,208,2,253,26,117,206,126,265,270,212,40,107,242,160,143,165,198,166,260,21,87,297,101,280,257,200,236,78,42,69,14,199,140,1,228,55,170,163,202,9,287,184,298,211,266,281,57,139,7,125,112,234,263,114,259,16,119,123,267,13,203,147,115,134,65,41,177,50,22,285,188,159,173,290,252,248,39,283,105,97,192,46,180,231,274,131,30,250,232,106,3,223,190,33,291,196,35,104,91,286,238,93,136,158,83,110,273,185,49,247,189,32,62,66,61,268,264,214,6,224,153,52,226,132,118,258,240,181,277,176,130,68,74,296,17,79,154,295,161,60,168,4,102,205,94,11,241,151,271,75,47,261,45,194,103,43,162,254,152,109,183,262,120,71,284,246,70,51,124,99,128,164,294,244,148,10,63,256,193,182,76,204,56,135,207,19,191,92,27,5,100,150,201,222,133,31,269,217,235,29,113,24,111,90,299,272,157,220,108,84,225,38,122,209,116,129,82,282,174,54,195,275,255,64,44,219,85]","arrowleft","","","0","29","10","300","[""0052_N0300_K0010_CLIQUE"",""0037_N0300_K0010_NOCLIQUE""]"
"","","","","","audio-keyboard-response","128","492196","0.0-77.1-0.1-1.1","","null","audio_feedback/shuffles/shuffle01.mp3","null","","","","","0","29","10","300","[""0052_N0300_K0010_CLIQUE"",""0037_N0300_K0010_NOCLIQUE""]"
"","","","","","canvas-keyboard-response","129","501223","0.0-77.2-0.2-0.2","","8645","","arrowright","[67,29,141,285,189,45,179,129,196,267,23,54,79,299,16,204,201,222,3,282,71,13,112,173,107,123,244,26,195,1,59,56,116,160,2,39,212,86,158,250,268,213,166,120,132,216,18,188,259,183,276,41,231,293,256,125,126,25,144,142,186,143,219,60,233,83,180,245,134,57,235,255,273,224,165,254,34,97,230,223,210,58,274,168,74,164,81,199,127,240,147,96,280,220,85,102,46,170,236,258,103,279,294,295,94,177,182,218,239,265,269,88,117,209,49,270,286,227,73,105,261,66,36,167,155,93,91,47,185,43,22,291,264,200,70,289,266,162,232,297,80,238,114,171,78,163,148,234,11,208,161,100,225,275,243,38,115,229,76,82,211,257,99,136,131,42,192,108,61,133,146,12,110,72,135,194,277,87,169,111,247,84,296,278,198,121,44,203,288,14,145,75,95,4,281,130,260,150,113,53,140,52,90,271,24,292,5,217,31,77,249,172,101,193,272,181,92,139,109,98,106,151,215,8,237,253,89,55,152,51,65,128,0,15,17,202,40,104,298,290,263,174,178,226,7,207,21,206,138,156,284,20,157,19,251,241,242,37,118,68,228,191,119,197,154,221,137,63,10,153,124,287,214,190,30,32,6,122,176,27,50,175,33,187,35,69,28,149,248,246,62,205,283,159,9,252,184,64,48,262]","arrowleft","","false","0","29","10","300","[""0052_N0300_K0010_CLIQUE"",""0037_N0300_K0010_NOCLIQUE""]"
"","","","","","audio-keyboard-response","130","501856","0.0-77.2-0.2-1.2","","null","audio_feedback/wrong/error01.mp3","null","","","","","0","29","10","300","[""0052_N0300_K0010_CLIQUE"",""0037_N0300_K0010_NOCLIQUE""]"
"","","","","","instructions","131","507583","0.0-78.0","[{""page_index"":0,""viewing_time"":5719}]","5721","","","","","","","","","","",""
"","","","","","canvas-keyboard-response","132","513299","0.0-79.0-0.0-0.0","","5472","","arrowright","[196,136,73,266,170,87,43,15,166,145,183,246,130,103,272,121,164,274,67,33,186,220,42,256,11,160,204,118,222,149,58,0,35,224,144,232,171,80,199,92,129,19,54,84,131,259,61,216,190,278,45,241,138,168,251,125,257,96,239,294,213,208,102,180,197,24,184,202,137,159,249,100,181,245,281,93,254,233,28,200,261,66,88,59,25,290,252,153,157,89,111,40,21,268,50,280,30,79,27,270,108,64,155,287,140,112,269,4,82,277,218,56,75,52,230,193,31,162,219,288,284,235,177,39,10,34,173,283,29,109,178,282,227,154,203,74,286,76,172,72,195,152,147,14,248,299,8,126,174,228,12,150,236,258,156,176,120,122,116,63,37,285,161,271,104,297,234,23,127,229,253,175,133,255,94,107,141,244,26,77,148,163,83,115,143,205,293,32,198,119,6,279,262,47,263,7,194,212,18,106,114,264,49,209,231,85,298,36,192,86,201,134,250,71,238,48,295,260,9,296,276,105,91,51,44,243,191,151,247,113,146,273,185,237,123,142,57,169,207,20,275,110,117,158,98,13,70,69,265,179,99,17,226,267,97,128,90,124,53,16,68,221,139,206,62,81,55,210,189,223,2,3,5,215,217,46,225,22,289,135,292,182,214,78,65,1,165,242,132,240,211,41,167,95,101,187,38,188,291,60]","arrowright","","true","1","0","90","300","[""0085_N0300_K0090_NOCLIQUE"",""0001_N0300_K0090_CLIQUE""]"
"","","","","","audio-keyboard-response","133","513737","0.0-79.0-0.0-1.0","","null","audio_feedback/right/coin01.mp3","null","","","","","1","0","90","300","[""0085_N0300_K0090_NOCLIQUE"",""0001_N0300_K0090_CLIQUE""]"
"","","","","","canvas-keyboard-response","134","516336","0.0-80.0-0.0-0.0","","2344","","arrowright","[169,191,52,61,23,223,82,40,229,55,272,213,19,258,250,124,210,120,127,170,129,149,84,264,202,277,138,292,53,276,67,186,180,46,71,157,155,230,15,196,87,0,74,252,26,142,109,184,163,221,173,64,241,298,167,164,152,24,195,30,198,205,121,110,34,193,159,215,135,150,158,166,12,209,228,259,242,11,208,283,106,187,244,69,114,218,199,243,76,280,113,92,63,48,189,227,247,111,47,107,119,91,90,203,105,188,128,50,222,256,220,68,288,282,89,6,257,44,270,299,41,9,239,27,54,176,99,57,289,3,254,183,249,95,60,104,139,112,291,281,28,200,38,262,17,78,236,22,134,102,56,177,117,151,37,126,178,285,100,216,83,96,146,194,263,80,7,153,231,49,59,179,238,267,130,43,86,141,14,197,174,240,279,154,207,101,72,214,275,204,206,62,136,271,245,297,45,181,160,253,133,58,98,145,211,77,290,73,5,296,8,286,66,185,122,295,162,20,224,217,172,32,36,246,123,293,156,237,260,137,148,33,97,226,65,255,29,284,171,2,165,248,235,94,81,42,232,261,93,251,144,168,13,147,287,79,4,115,51,265,212,278,18,108,140,274,201,269,266,125,131,268,10,161,70,273,85,182,294,75,35,88,116,1,225,175,190,132,234,118,143,103,16,25,219,192,21,31,233,39]","arrowright","","true","1","1","90","300","[""0036_N0300_K0090_NOCLIQUE"",""0088_N0300_K0090_CLIQUE""]"
"","","","","","audio-keyboard-response","135","516756","0.0-80.0-0.0-1.0","","null","audio_feedback/right/coin01.mp3","null","","","","","1","1","90","300","[""0036_N0300_K0090_NOCLIQUE"",""0088_N0300_K0090_CLIQUE""]"
"","","","","","canvas-keyboard-response","136","519299","0.0-81.0-0.0-0.0","","2230","","arrowright","[63,163,276,269,184,138,297,133,0,278,46,86,140,105,11,113,38,176,194,139,37,115,39,47,181,135,87,103,94,255,203,199,127,232,201,117,280,110,8,178,271,223,93,205,164,106,209,263,262,183,108,283,207,293,124,57,123,1,2,24,251,233,40,285,152,132,217,41,50,157,226,109,144,168,9,102,90,147,62,242,19,243,154,72,145,114,224,52,282,290,166,216,265,21,158,7,65,235,236,196,58,137,198,156,12,227,279,141,155,246,197,126,104,214,186,131,28,296,29,260,121,85,84,287,160,142,77,16,247,130,221,215,14,228,89,230,146,78,264,64,261,45,150,20,159,42,32,175,284,25,66,172,35,162,18,60,292,237,143,204,122,229,55,97,248,244,33,256,112,185,71,288,171,15,195,289,272,129,13,27,206,240,165,210,4,6,273,120,257,177,211,212,208,281,267,10,36,92,83,231,51,44,180,76,75,169,253,213,179,67,173,56,234,107,17,270,80,95,225,170,250,182,101,23,259,222,241,69,54,149,26,148,161,191,202,258,61,134,5,187,252,275,91,30,3,286,49,193,74,116,98,125,245,239,43,81,299,200,53,192,189,268,220,99,174,188,249,31,82,266,277,153,218,59,190,167,100,238,118,48,88,79,73,119,34,219,128,294,22,136,291,151,111,70,298,274,254,295,96,68]","arrowright","","true","1","2","80","300","[""0066_N0300_K0080_NOCLIQUE"",""0090_N0300_K0080_CLIQUE""]"
"","","","","","audio-keyboard-response","137","519736","0.0-81.0-0.0-1.0","","null","audio_feedback/right/coin01.mp3","null","","","","","1","2","80","300","[""0066_N0300_K0080_NOCLIQUE"",""0090_N0300_K0080_CLIQUE""]"
"","","","","","canvas-keyboard-response","138","521894","0.0-82.0-0.0-0.0","","1825","","arrowright","[245,197,51,218,98,55,241,271,187,102,165,256,280,292,265,21,19,87,248,10,116,41,152,168,53,206,161,107,2,0,183,127,216,270,170,46,220,151,24,129,169,149,132,186,188,122,65,284,29,30,136,164,166,42,134,141,6,199,286,212,69,221,215,213,40,1,67,13,138,26,236,175,62,33,8,272,45,34,47,229,289,124,243,237,81,182,258,157,242,56,189,208,92,209,266,264,277,278,231,113,281,123,109,12,5,86,57,273,196,79,230,143,84,97,76,287,219,228,296,32,184,27,290,43,162,35,247,146,223,294,140,120,262,128,249,77,142,158,217,137,83,156,20,44,250,90,78,227,112,200,105,160,101,260,246,22,173,274,267,238,198,190,257,68,291,269,7,254,37,147,125,298,214,261,28,133,225,74,232,48,139,85,70,52,49,239,100,36,203,255,259,117,103,80,145,193,72,9,288,148,104,244,191,226,73,233,131,202,15,275,38,11,240,17,63,18,176,50,276,295,172,91,121,25,64,178,224,185,268,61,39,14,234,31,285,99,75,159,59,205,66,71,204,181,293,235,150,253,210,60,195,153,171,135,16,82,180,126,163,23,174,201,88,194,192,115,207,114,263,155,154,89,283,222,179,110,177,95,211,58,93,299,119,111,144,297,3,54,118,106,252,108,94,130,167,282,96,4,251,279]","arrowright","","true","1","3","80","300","[""0014_N0300_K0080_NOCLIQUE"",""0081_N0300_K0080_CLIQUE""]"
"","","","","","audio-keyboard-response","139","522316","0.0-82.0-0.0-1.0","","null","audio_feedback/right/coin01.mp3","null","","","","","1","3","80","300","[""0014_N0300_K0080_NOCLIQUE"",""0081_N0300_K0080_CLIQUE""]"
"","","","","","canvas-keyboard-response","140","525614","0.0-83.0-0.0-0.0","","2895","","arrowright","[143,287,97,121,292,69,177,76,67,270,241,156,232,275,155,80,254,248,296,154,266,21,207,45,194,9,47,19,77,256,164,63,174,101,226,94,253,134,168,170,78,167,133,290,158,273,60,157,28,127,258,40,3,259,148,173,247,180,282,223,37,118,32,211,193,298,25,214,165,0,141,189,10,295,261,123,92,280,57,187,178,83,34,114,129,281,151,22,191,73,65,46,75,120,149,206,271,95,222,283,119,153,49,221,186,138,131,107,128,209,38,102,74,51,105,246,299,48,6,4,110,279,115,294,175,27,104,216,5,202,195,89,23,43,41,171,250,8,276,100,264,20,136,113,59,91,239,220,262,190,272,1,199,109,255,82,284,169,288,184,122,111,66,218,39,252,33,112,268,210,243,29,130,99,237,81,274,161,58,54,291,18,234,166,35,61,162,146,269,106,12,42,227,15,14,215,152,11,126,213,249,159,84,160,245,201,238,150,244,44,87,85,24,267,196,137,198,96,88,229,147,36,181,277,26,185,132,124,172,90,188,205,200,225,108,72,93,297,286,135,79,236,53,278,70,50,2,233,176,64,192,68,13,56,219,145,17,139,217,224,289,62,183,7,52,116,240,203,260,197,103,71,163,230,31,142,228,265,16,182,212,204,257,293,30,263,179,231,98,251,235,208,285,140,125,242,144,55,86,117]","arrowright","","true","1","4","70","300","[""0088_N0300_K0070_NOCLIQUE"",""0039_N0300_K0070_CLIQUE""]"
"","","","","","audio-keyboard-response","141","526037","0.0-83.0-0.0-1.0","","null","audio_feedback/right/coin01.mp3","null","","","","","1","4","70","300","[""0088_N0300_K0070_NOCLIQUE"",""0039_N0300_K0070_CLIQUE""]"
"","","","","","canvas-keyboard-response","142","544951","0.0-84.0-0.0-0.0","","18418",""," ","[61,77,168,188,89,277,176,106,268,92,165,70,158,284,252,160,62,36,32,135,202,258,64,140,55,229,270,59,11,110,167,16,218,30,10,260,194,145,39,82,27,182,233,14,171,189,69,289,227,238,86,154,253,164,26,191,286,290,157,299,72,264,136,269,185,248,276,214,207,296,74,263,93,15,190,217,251,267,35,73,149,65,28,25,294,240,12,195,186,75,22,20,172,117,100,196,250,212,84,279,52,198,49,63,222,178,152,95,79,211,247,155,150,184,236,66,246,13,285,1,85,203,226,80,139,272,126,235,225,47,192,256,134,34,54,51,239,88,123,127,7,280,273,3,6,193,103,170,44,200,107,58,2,209,204,245,83,295,111,21,274,288,298,221,46,33,262,67,243,223,68,141,249,94,121,147,153,108,130,42,169,257,60,131,224,265,287,166,5,41,275,17,125,177,148,179,201,259,208,237,220,161,210,38,109,29,43,241,128,81,271,40,9,19,183,0,234,175,23,78,142,91,231,146,4,129,159,292,115,133,137,119,57,99,132,163,87,230,205,156,101,297,213,71,242,105,45,24,96,120,98,151,216,112,232,228,173,254,174,181,255,197,53,206,219,144,118,56,215,76,116,138,113,102,180,114,8,283,278,291,162,266,143,187,31,199,122,261,244,124,50,97,282,37,293,104,18,90,48,281]","arrowleft","","","1","5","70","300","[""0034_N0300_K0070_CLIQUE"",""0049_N0300_K0070_NOCLIQUE""]"
"","","","","","audio-keyboard-response","143","546150","0.0-84.0-0.0-1.0","","null","audio_feedback/shuffles/shuffle01.mp3","null","","","","","1","5","70","300","[""0034_N0300_K0070_CLIQUE"",""0049_N0300_K0070_NOCLIQUE""]"
"","","","","","canvas-keyboard-response","144","548336","0.0-84.1-0.1-0.1","","1903",""," ","[1,184,262,45,273,282,99,37,292,101,130,233,167,187,14,265,108,23,53,210,20,227,5,0,93,289,136,195,271,75,148,145,123,80,112,76,18,36,40,17,199,216,25,127,165,12,50,248,177,146,67,92,110,277,176,131,68,150,222,285,157,190,78,160,49,152,116,141,295,269,209,155,11,83,172,153,263,164,264,113,118,63,168,24,171,28,88,30,174,132,206,166,61,41,212,169,10,207,115,77,106,286,274,65,189,267,111,250,297,90,230,220,135,276,261,126,96,54,98,201,100,16,175,181,42,51,211,117,69,156,95,178,287,231,149,74,219,224,22,192,293,66,62,163,183,208,249,283,246,120,47,86,202,284,133,35,290,191,259,9,56,196,3,144,94,182,245,170,260,247,243,70,268,193,299,140,272,73,21,82,79,107,129,137,57,213,19,229,198,204,142,124,162,253,109,143,139,159,151,280,241,8,128,270,87,7,121,180,31,43,89,15,6,59,27,214,266,32,84,296,4,221,188,102,44,185,125,158,217,173,237,161,228,255,244,236,200,252,223,291,256,81,39,218,288,103,203,186,64,48,58,240,294,147,138,154,278,194,254,225,251,60,226,114,85,13,275,2,298,105,72,258,281,279,257,34,52,242,235,215,134,239,38,104,122,91,46,179,26,234,238,97,29,205,119,55,197,71,33,232]","arrowleft","","","1","5","70","300","[""0034_N0300_K0070_CLIQUE"",""0049_N0300_K0070_NOCLIQUE""]"
"","","","","","audio-keyboard-response","145","548912","0.0-84.1-0.1-1.1","","null","audio_feedback/shuffles/shuffle01.mp3","null","","","","","1","5","70","300","[""0034_N0300_K0070_CLIQUE"",""0049_N0300_K0070_NOCLIQUE""]"
"","","","","","canvas-keyboard-response","146","551440","0.0-84.2-0.2-0.2","","2138","","arrowleft","[167,11,44,82,250,161,111,286,256,171,199,228,223,279,132,212,102,4,191,94,81,61,162,19,39,32,272,188,120,12,273,237,119,281,97,263,145,53,1,24,155,125,41,73,113,152,147,8,92,89,105,98,106,257,294,101,67,131,211,200,283,100,209,29,184,255,74,219,138,178,91,245,157,176,264,180,190,5,10,38,271,103,210,249,141,183,208,137,130,15,166,68,135,56,126,221,170,79,7,270,93,150,227,18,118,146,284,153,288,291,235,51,196,2,90,207,129,259,83,109,278,36,241,48,220,240,253,33,267,252,232,203,172,243,262,57,65,254,276,175,136,277,179,214,108,116,293,49,26,248,128,16,185,181,35,154,0,85,266,261,164,42,55,192,244,297,168,193,31,160,13,71,77,202,50,114,117,115,46,124,21,107,34,201,225,96,217,242,197,20,25,204,231,216,299,296,139,59,75,189,174,260,239,133,187,140,222,17,230,285,143,195,226,269,233,159,47,149,99,206,165,173,84,182,122,186,151,52,45,246,275,27,104,54,80,43,290,213,236,218,123,40,86,169,62,88,289,134,64,258,127,28,63,66,14,112,298,194,148,95,292,70,280,177,265,110,9,287,121,142,198,6,234,144,37,72,69,76,224,251,295,282,78,268,87,247,22,163,3,158,60,229,215,205,23,30,58,274,238,156]","arrowleft","","true","1","5","70","300","[""0034_N0300_K0070_CLIQUE"",""0049_N0300_K0070_NOCLIQUE""]"
"","","","","","audio-keyboard-response","147","551933","0.0-84.2-0.2-1.2","","null","audio_feedback/right/coin01.mp3","null","","","","","1","5","70","300","[""0034_N0300_K0070_CLIQUE"",""0049_N0300_K0070_NOCLIQUE""]"
"","","","","","canvas-keyboard-response","148","554847","0.0-85.0-0.0-0.0","","2627","","arrowleft","[266,250,7,234,64,58,119,260,163,94,104,280,109,120,133,257,225,219,268,72,25,32,103,271,197,71,5,17,47,274,276,36,153,112,157,84,86,192,118,70,140,297,37,251,65,80,223,51,66,191,207,67,18,35,54,287,220,201,1,267,55,198,292,139,56,158,195,275,100,6,60,53,160,125,127,248,126,255,231,210,115,2,172,142,20,213,85,138,209,99,180,61,167,291,288,113,182,148,244,10,117,247,278,290,49,215,87,131,134,43,285,299,174,98,236,177,96,46,11,186,122,93,164,265,124,181,62,4,193,136,121,208,161,273,59,269,165,226,111,57,149,221,19,277,175,270,22,224,252,33,228,196,77,173,262,216,202,88,79,171,14,170,129,189,230,259,13,232,289,145,28,222,235,264,16,296,162,24,21,73,190,132,243,44,194,279,168,69,40,211,45,282,206,239,8,143,114,34,102,169,245,237,75,52,106,184,9,23,130,188,76,95,91,27,242,281,74,253,42,294,41,26,82,156,272,258,63,135,78,183,105,214,246,166,249,205,241,203,179,154,261,286,204,298,295,159,101,254,116,107,15,48,176,263,146,128,141,12,137,89,199,29,81,68,217,92,39,284,238,151,185,218,293,152,144,97,83,240,30,123,283,178,150,229,256,147,227,31,233,187,200,212,50,90,108,3,38,0,155,110]","arrowleft","","true","1","6","65","300","[""0078_N0300_K0065_CLIQUE"",""0073_N0300_K0065_NOCLIQUE""]"
"","","","","","audio-keyboard-response","149","555292","0.0-85.0-0.0-1.0","","null","audio_feedback/right/coin01.mp3","null","","","","","1","6","65","300","[""0078_N0300_K0065_CLIQUE"",""0073_N0300_K0065_NOCLIQUE""]"
"","","","","","canvas-keyboard-response","150","556905","0.0-86.0-0.0-0.0","","1196","","arrowleft","[88,49,33,232,274,226,185,41,216,175,154,45,4,295,7,245,270,157,0,168,104,278,70,72,173,169,5,92,167,229,73,27,13,22,220,135,238,166,212,200,194,201,50,111,137,138,30,148,239,144,21,100,267,93,231,155,32,46,131,63,101,279,26,149,260,87,207,161,139,48,9,119,97,225,52,130,133,186,12,124,81,252,289,210,80,248,269,261,172,79,44,64,228,217,78,246,98,197,96,23,163,280,35,247,116,122,204,6,29,171,181,192,208,106,215,177,291,187,199,31,67,153,120,20,281,74,180,109,143,174,259,253,219,151,55,241,14,68,43,268,223,86,82,190,105,264,254,59,66,213,202,141,136,250,39,85,203,256,140,84,1,162,296,108,62,117,196,99,294,299,17,257,164,54,211,129,158,121,60,112,233,290,227,47,145,2,214,244,273,271,298,258,218,224,61,272,75,209,266,191,159,282,42,234,152,150,94,18,240,3,128,38,126,285,25,123,249,113,102,37,58,205,34,77,236,293,16,76,179,255,36,193,146,176,90,125,103,110,134,91,71,182,242,83,206,286,10,198,156,114,115,243,235,184,275,15,8,69,56,263,142,65,11,107,283,132,19,178,297,288,221,284,170,95,127,292,160,24,265,165,262,287,147,118,183,277,57,28,276,89,40,251,237,51,230,222,189,188,53,195]","arrowleft","","true","1","7","65","300","[""0067_N0300_K0065_CLIQUE"",""0010_N0300_K0065_NOCLIQUE""]"
"","","","","","audio-keyboard-response","151","557352","0.0-86.0-0.0-1.0","","null","audio_feedback/right/coin01.mp3","null","","","","","1","7","65","300","[""0067_N0300_K0065_CLIQUE"",""0010_N0300_K0065_NOCLIQUE""]"
"","","","","","canvas-keyboard-response","152","561931","0.0-87.0-0.0-0.0","","4317","","arrowright","[161,269,229,53,257,226,291,115,281,119,68,163,282,181,86,231,3,180,273,99,47,210,0,128,290,151,244,199,6,85,127,185,72,172,77,13,19,126,122,143,82,232,95,259,104,190,29,57,97,37,171,192,201,152,204,238,73,167,24,156,252,51,12,241,246,45,295,10,98,272,55,26,198,191,216,28,2,80,27,43,35,1,258,25,200,56,121,153,168,166,92,150,219,42,162,46,186,279,90,62,203,271,294,135,132,169,102,165,63,30,224,137,293,18,220,187,233,120,182,39,164,188,130,4,251,217,178,69,91,247,84,61,234,154,276,116,206,138,266,89,160,275,33,96,277,288,136,75,286,287,59,100,144,227,50,71,117,107,284,240,88,225,260,44,140,70,278,145,213,110,108,83,254,205,129,223,123,177,81,184,195,245,17,134,101,31,189,22,125,158,149,196,214,7,197,36,65,48,106,173,175,264,280,283,183,174,268,87,221,228,270,20,274,16,218,60,235,49,66,111,64,253,146,215,32,297,265,79,263,52,14,292,155,237,179,230,114,261,299,54,194,208,289,243,202,242,40,207,236,131,262,109,113,222,159,147,5,157,76,298,78,239,38,8,176,15,21,34,139,9,296,67,23,118,249,255,211,209,285,170,103,267,250,248,193,148,94,74,105,256,41,133,212,112,142,141,11,124,93,58]","arrowright","","true","1","8","60","300","[""0076_N0300_K0060_NOCLIQUE"",""0039_N0300_K0060_CLIQUE""]"
"","","","","","audio-keyboard-response","153","562372","0.0-87.0-0.0-1.0","","null","audio_feedback/right/coin01.mp3","null","","","","","1","8","60","300","[""0076_N0300_K0060_NOCLIQUE"",""0039_N0300_K0060_CLIQUE""]"
"","","","","","canvas-keyboard-response","154","564835","0.0-88.0-0.0-0.0","","2156","","arrowright","[35,278,5,197,160,108,284,189,286,11,129,103,50,200,27,180,46,21,70,190,142,241,245,136,228,249,259,144,248,277,61,291,56,279,258,6,231,166,16,49,273,39,213,283,139,42,23,262,104,9,114,90,96,84,251,47,64,288,32,33,238,269,38,80,138,60,109,244,51,154,156,229,260,157,267,121,186,242,134,17,202,14,135,120,211,113,150,148,18,201,193,171,165,98,210,25,44,41,19,253,184,24,226,8,275,168,298,87,7,176,214,71,178,152,15,147,68,276,173,101,220,261,82,281,73,217,169,4,155,58,141,97,128,172,225,99,292,72,34,75,37,232,85,268,206,218,237,194,65,123,66,127,122,271,83,256,287,3,29,100,93,164,295,92,224,106,289,297,265,185,196,143,299,270,163,86,191,209,272,2,146,131,222,125,274,105,12,192,124,158,204,187,62,280,79,207,28,149,235,69,243,215,0,36,264,263,102,205,59,159,76,198,294,137,140,247,167,20,170,26,89,250,115,183,230,177,119,63,181,293,48,182,236,118,110,22,91,162,296,151,10,161,246,52,53,285,116,199,67,188,212,239,223,45,77,240,203,111,290,174,13,54,78,208,221,30,255,233,133,179,126,74,227,195,254,234,1,81,130,88,95,117,112,145,40,257,153,107,282,252,94,266,43,175,55,132,219,57,31,216]","arrowright","","true","1","9","60","300","[""0031_N0300_K0060_NOCLIQUE"",""0053_N0300_K0060_CLIQUE""]"
"","","","","","audio-keyboard-response","155","565272","0.0-88.0-0.0-1.0","","null","audio_feedback/right/coin01.mp3","null","","","","","1","9","60","300","[""0031_N0300_K0060_NOCLIQUE"",""0053_N0300_K0060_CLIQUE""]"
"","","","","","canvas-keyboard-response","156","570351","0.0-89.0-0.0-0.0","","4641",""," ","[211,143,14,190,177,1,179,75,213,63,180,291,3,70,22,27,21,169,72,280,237,64,45,136,224,28,152,8,85,82,200,100,15,83,57,285,264,51,268,110,121,56,145,226,163,178,9,133,107,115,42,101,229,69,54,68,254,144,221,91,154,26,172,296,148,74,234,269,279,201,79,76,281,7,186,23,160,288,10,98,33,286,153,173,13,183,205,164,247,252,256,34,218,71,292,299,97,192,230,287,167,104,11,248,25,187,65,47,220,90,30,53,46,194,20,89,258,255,88,108,126,87,112,204,50,165,59,282,146,24,283,170,80,158,193,228,55,249,125,250,161,223,6,147,5,94,236,137,219,18,298,231,238,222,62,106,267,278,227,182,96,277,266,206,78,114,270,16,48,118,203,272,265,155,61,239,208,212,127,261,84,159,174,242,86,251,44,240,99,119,138,262,156,274,209,271,284,140,38,263,117,92,216,235,210,259,93,168,60,253,294,157,290,260,19,257,184,109,295,29,175,58,276,39,142,135,181,199,215,132,52,111,81,289,198,122,191,40,129,151,149,124,120,297,245,246,244,17,49,176,243,166,275,217,241,12,214,225,37,293,162,273,128,0,232,189,102,233,202,77,197,131,185,105,4,73,103,130,67,36,32,31,139,43,41,171,2,116,134,95,123,188,195,207,35,66,196,150,141,113]","arrowright","","","1","10","55","300","[""0068_N0300_K0055_NOCLIQUE"",""0077_N0300_K0055_CLIQUE""]"
"","","","","","audio-keyboard-response","157","570972","0.0-89.0-0.0-1.0","","null","audio_feedback/shuffles/shuffle01.mp3","null","","","","","1","10","55","300","[""0068_N0300_K0055_NOCLIQUE"",""0077_N0300_K0055_CLIQUE""]"
"","","","","","canvas-keyboard-response","158","572733","0.0-89.1-0.1-0.1","","1484",""," ","[87,5,221,171,3,94,257,137,135,169,268,144,281,184,223,251,235,116,129,82,123,173,51,182,208,16,273,203,109,22,265,66,261,29,259,12,14,151,47,48,160,215,280,13,290,130,242,233,207,166,45,204,57,227,74,83,198,222,210,262,52,238,93,43,178,239,18,147,81,276,145,285,172,24,294,167,134,219,115,170,58,264,297,98,95,194,67,80,140,102,271,141,84,53,23,163,2,126,181,113,150,296,20,161,193,246,162,283,269,174,197,156,250,114,146,218,279,212,90,4,128,91,236,55,131,188,243,101,263,124,136,119,216,99,200,277,165,191,65,282,286,96,89,229,177,133,46,37,26,272,110,104,54,15,256,31,255,120,34,35,299,7,9,228,125,176,73,234,11,245,121,117,248,211,0,30,112,201,183,249,70,69,292,40,179,42,61,287,244,8,295,122,21,59,159,75,17,153,158,266,284,278,56,237,254,111,298,19,199,270,232,118,164,155,6,205,72,33,291,202,139,64,86,154,253,157,132,231,1,185,138,50,230,88,168,39,103,275,186,36,148,247,293,288,107,143,225,32,106,258,214,226,240,220,76,192,68,28,78,190,41,77,79,127,142,274,267,108,175,27,10,85,149,60,241,49,63,209,152,260,100,289,189,195,187,105,38,97,224,62,252,44,213,206,196,180,25,71,92,217]","arrowright","","","1","10","55","300","[""0068_N0300_K0055_NOCLIQUE"",""0077_N0300_K0055_CLIQUE""]"
"","","","","","audio-keyboard-response","159","573312","0.0-89.1-0.1-1.1","","null","audio_feedback/shuffles/shuffle01.mp3","null","","","","","1","10","55","300","[""0068_N0300_K0055_NOCLIQUE"",""0077_N0300_K0055_CLIQUE""]"
"","","","","","canvas-keyboard-response","160","575817","0.0-89.2-0.2-0.2","","2161","","arrowright","[31,109,179,78,236,221,110,238,50,242,219,108,184,283,298,76,46,253,10,277,29,261,275,171,120,61,205,7,237,77,4,224,113,80,13,11,209,291,158,81,197,101,276,95,14,134,36,92,41,279,187,247,133,218,154,70,73,295,285,52,39,67,265,119,260,282,96,35,82,244,6,66,186,169,162,49,85,180,241,135,139,91,58,132,230,30,144,150,293,143,68,86,8,245,159,281,161,55,249,287,243,33,38,167,234,20,26,60,220,43,170,105,264,142,42,9,94,56,140,297,138,207,263,69,177,200,286,34,176,239,269,212,215,292,146,89,284,160,213,280,18,225,125,19,118,130,271,63,211,72,165,189,121,64,222,272,93,74,2,217,246,151,288,203,37,117,107,98,190,262,233,198,163,145,214,153,25,21,289,191,296,53,227,206,15,3,257,148,226,193,188,102,178,136,266,157,223,155,183,114,185,137,51,59,240,28,83,259,23,104,182,216,201,299,27,40,122,100,47,254,173,115,278,128,99,273,202,195,147,252,1,111,12,57,250,251,204,166,75,90,248,168,97,65,164,112,84,175,22,267,255,32,231,290,131,256,88,208,152,268,129,149,274,16,235,87,270,127,79,54,123,17,294,258,0,194,232,45,174,48,126,156,192,199,24,172,210,103,229,124,181,44,116,196,5,228,106,62,141,71]","arrowright","","true","1","10","55","300","[""0068_N0300_K0055_NOCLIQUE"",""0077_N0300_K0055_CLIQUE""]"
"","","","","","audio-keyboard-response","161","576272","0.0-89.2-0.2-1.2","","null","audio_feedback/right/coin01.mp3","null","","","","","1","10","55","300","[""0068_N0300_K0055_NOCLIQUE"",""0077_N0300_K0055_CLIQUE""]"
"","","","","","canvas-keyboard-response","162","581625","0.0-90.0-0.0-0.0","","4975",""," ","[71,247,99,263,96,78,272,27,131,17,41,225,33,293,190,285,91,77,42,63,97,20,196,145,67,288,281,240,166,157,220,187,21,98,264,267,139,218,251,299,296,143,237,178,260,182,92,73,87,62,10,234,65,35,43,83,88,169,221,246,250,203,222,244,276,158,210,103,204,8,19,180,113,107,44,297,173,14,56,112,202,126,90,273,274,160,206,289,153,214,215,40,275,186,253,282,193,23,66,28,257,138,194,217,105,229,115,89,259,144,141,85,121,106,47,127,208,298,163,155,94,270,219,57,179,49,183,227,93,50,181,54,32,25,292,38,75,266,114,197,125,132,164,241,37,261,269,31,147,128,122,109,22,283,1,249,159,64,74,58,184,231,177,198,101,245,46,268,191,284,233,151,55,120,211,294,165,108,39,140,6,142,116,45,162,30,34,280,226,248,287,123,68,189,18,72,235,16,262,119,174,172,205,150,84,242,48,2,171,4,11,13,238,129,152,104,236,230,26,286,224,168,118,255,102,201,0,291,117,232,133,278,154,277,3,149,136,134,213,243,53,209,15,192,111,51,265,252,36,81,29,59,60,188,223,146,185,9,176,239,69,148,161,130,52,156,290,258,110,295,195,79,5,100,207,70,124,279,216,135,137,82,200,271,76,80,86,256,212,95,199,24,254,175,61,228,7,12,167,170]","arrowright","","","1","11","55","300","[""0037_N0300_K0055_NOCLIQUE"",""0037_N0300_K0055_CLIQUE""]"
"","","","","","audio-keyboard-response","163","582212","0.0-90.0-0.0-1.0","","null","audio_feedback/shuffles/shuffle01.mp3","null","","","","","1","11","55","300","[""0037_N0300_K0055_NOCLIQUE"",""0037_N0300_K0055_CLIQUE""]"
