"success","timeout","failed_images","failed_audio","failed_video","trial_type","trial_index","time_elapsed","internal_node_id","view_history","rt","stimulus","response","nodes_order","correct_response","block_index","presentation_index","clique_size","graph_size","graphs_names","graphs_couple","accuracy"
"true","false","[]","[]","[]","preload","0","35752","0.0-0.0","","","","","","","","","","","","",""
"","","","","","pavlovia","1","36872","0.0-1.0","","","","","","","","","","","","",""
"","","","","","instructions","2","59428","0.0-2.0","[{""page_index"":0,""viewing_time"":3479},{""page_index"":1,""viewing_time"":19071}]","22550","","","","","","","","","","",""
"true","false","[]","[]","[]","preload","3","134081","0.0-3.0","","","","","","","","","","","","",""
"","","","","","instructions","4","327182","0.0-4.0","[{""page_index"":0,""viewing_time"":7335},{""page_index"":1,""viewing_time"":1602},{""page_index"":2,""viewing_time"":948},{""page_index"":3,""viewing_time"":1983},{""page_index"":4,""viewing_time"":2410},{""page_index"":5,""viewing_time"":2659},{""page_index"":6,""viewing_time"":1282},{""page_index"":7,""viewing_time"":1620},{""page_index"":8,""viewing_time"":2494},{""page_index"":9,""viewing_time"":2213},{""page_index"":10,""viewing_time"":10448},{""page_index"":11,""viewing_time"":1020},{""page_index"":12,""viewing_time"":868},{""page_index"":13,""viewing_time"":1579},{""page_index"":14,""viewing_time"":622},{""page_index"":15,""viewing_time"":1004},{""page_index"":16,""viewing_time"":1010},{""page_index"":17,""viewing_time"":1099},{""page_index"":18,""viewing_time"":1003},{""page_index"":19,""viewing_time"":1210},{""page_index"":20,""viewing_time"":1104},{""page_index"":21,""viewing_time"":2324},{""page_index"":22,""viewing_time"":1475},{""page_index"":23,""viewing_time"":1382},{""page_index"":22,""viewing_time"":1203},{""page_index"":23,""viewing_time"":1895},{""page_index"":24,""viewing_time"":10315},{""page_index"":25,""viewing_time"":1709},{""page_index"":26,""viewing_time"":2832},{""page_index"":27,""viewing_time"":3431},{""page_index"":28,""viewing_time"":3731},{""page_index"":29,""viewing_time"":2561},{""page_index"":30,""viewing_time"":1947},{""page_index"":29,""viewing_time"":395},{""page_index"":28,""viewing_time"":397},{""page_index"":27,""viewing_time"":359},{""page_index"":28,""viewing_time"":383},{""page_index"":29,""viewing_time"":326},{""page_index"":30,""viewing_time"":278},{""page_index"":31,""viewing_time"":3200},{""page_index"":32,""viewing_time"":10703},{""page_index"":33,""viewing_time"":3199},{""page_index"":34,""viewing_time"":2216},{""page_index"":35,""viewing_time"":1087},{""page_index"":36,""viewing_time"":3044},{""page_index"":37,""viewing_time"":2457},{""page_index"":38,""viewing_time"":1168},{""page_index"":39,""viewing_time"":3081},{""page_index"":40,""viewing_time"":2741},{""page_index"":41,""viewing_time"":5604},{""page_index"":42,""viewing_time"":437},{""page_index"":41,""viewing_time"":289},{""page_index"":40,""viewing_time"":475},{""page_index"":39,""viewing_time"":385},{""page_index"":38,""viewing_time"":2459},{""page_index"":39,""viewing_time"":1150},{""page_index"":38,""viewing_time"":474},{""page_index"":37,""viewing_time"":979},{""page_index"":36,""viewing_time"":556},{""page_index"":37,""viewing_time"":840},{""page_index"":36,""viewing_time"":209},{""page_index"":35,""viewing_time"":475},{""page_index"":34,""viewing_time"":403},{""page_index"":35,""viewing_time"":633},{""page_index"":34,""viewing_time"":208},{""page_index"":33,""viewing_time"":405},{""page_index"":34,""viewing_time"":255},{""page_index"":35,""viewing_time"":213},{""page_index"":36,""viewing_time"":511},{""page_index"":37,""viewing_time"":2152},{""page_index"":38,""viewing_time"":2984},{""page_index"":39,""viewing_time"":2419},{""page_index"":40,""viewing_time"":1071},{""page_index"":41,""viewing_time"":2055},{""page_index"":42,""viewing_time"":1942},{""page_index"":43,""viewing_time"":4131},{""page_index"":42,""viewing_time"":2204},{""page_index"":43,""viewing_time"":6366},{""page_index"":44,""viewing_time"":4566},{""page_index"":45,""viewing_time"":10028},{""page_index"":46,""viewing_time"":2500},{""page_index"":47,""viewing_time"":1604},{""page_index"":48,""viewing_time"":3031},{""page_index"":49,""viewing_time"":2844},{""page_index"":50,""viewing_time"":6261},{""page_index"":51,""viewing_time"":4635}]","193100","","","","","","","","","","",""
"","","","","","instructions","5","332868","0.0-5.0","[{""page_index"":0,""viewing_time"":5684}]","5684","","","","","","","","","","",""
"true","false","[]","[]","[]","preload","6","391696","0.0-6.0","","","","","","","","","","","","",""
"","","","","","image-keyboard-response","7","398721","0.0-7.0","","7022","tutorial/task_familiarization_images/part 1/01_N160_K90_cliqueRight_question1.PNG"," ","","","","","","","","",""
"","","","","","image-keyboard-response","8","400638","0.0-8.0","","1914","tutorial/task_familiarization_images/part 1/02_N160_K90_cliqueRight_question2.PNG"," ","","","","","","","","",""
"","","","","","image-keyboard-response","9","402838","0.0-9.0","","2198","tutorial/task_familiarization_images/part 1/03_N160_K90_cliqueRight_question3.PNG","arrowright","","","","","","","","",""
"","","","","","image-keyboard-response","10","404974","0.0-10.0","","2133","tutorial/task_familiarization_images/part 1/04_N160_K90_cliqueRight_solution.PNG"," ","","","","","","","","",""
"","","","","","image-keyboard-response","11","408488","0.0-11.0","","3512","tutorial/task_familiarization_images/part 1/05_N160_K65_cliqueRight_question1.PNG"," ","","","","","","","","",""
"","","","","","image-keyboard-response","12","410535","0.0-12.0","","2045","tutorial/task_familiarization_images/part 1/06_N160_K65_cliqueRight_question2.PNG"," ","","","","","","","","",""
"","","","","","image-keyboard-response","13","412691","0.0-13.0","","2155","tutorial/task_familiarization_images/part 1/07_N160_K65_cliqueRight_question3.PNG","arrowright","","","","","","","","",""
"","","","","","image-keyboard-response","14","414102","0.0-14.0","","1408","tutorial/task_familiarization_images/part 1/08_N160_K65_cliqueRight_solution.PNG"," ","","","","","","","","",""
"","","","","","image-keyboard-response","15","417419","0.0-15.0","","3316","tutorial/task_familiarization_images/part 1/09_N160_K50_cliqueLeft_question1.PNG"," ","","","","","","","","",""
"","","","","","image-keyboard-response","16","419356","0.0-16.0","","1937","tutorial/task_familiarization_images/part 1/10_N160_K50_cliqueLeft_question2.PNG"," ","","","","","","","","",""
"","","","","","image-keyboard-response","17","424348","0.0-17.0","","4991","tutorial/task_familiarization_images/part 1/11_N160_K50_cliqueLeft_question3.PNG","arrowleft","","","","","","","","",""
"","","","","","image-keyboard-response","18","427038","0.0-18.0","","2687","tutorial/task_familiarization_images/part 1/12_N160_K50_cliqueLeft_solution.PNG"," ","","","","","","","","",""
"","","","","","image-keyboard-response","19","429304","0.0-19.0","","2265","tutorial/task_familiarization_images/part 1/13_N160_K80_cliqueLeft_question1.PNG"," ","","","","","","","","",""
"","","","","","image-keyboard-response","20","430921","0.0-20.0","","1615","tutorial/task_familiarization_images/part 1/14_N160_K80_cliqueLeft_question2.PNG"," ","","","","","","","","",""
"","","","","","image-keyboard-response","21","432887","0.0-21.0","","1962","tutorial/task_familiarization_images/part 1/15_N160_K80_cliqueLeft_question3.PNG","arrowleft","","","","","","","","",""
"","","","","","image-keyboard-response","22","434048","0.0-22.0","","1158","tutorial/task_familiarization_images/part 1/16_N160_K80_cliqueLeft_solution.PNG"," ","","","","","","","","",""
"","","","","","image-keyboard-response","23","437422","0.0-23.0","","3371","tutorial/task_familiarization_images/part 1/17_N160_K40_cliqueRight_question1.PNG"," ","","","","","","","","",""
"","","","","","image-keyboard-response","24","438723","0.0-24.0","","1299","tutorial/task_familiarization_images/part 1/18_N160_K40_cliqueRight_question2.PNG"," ","","","","","","","","",""
"","","","","","image-keyboard-response","25","439950","0.0-25.0","","1225","tutorial/task_familiarization_images/part 1/19_N160_K40_cliqueRight_question3.PNG","arrowright","","","","","","","","",""
"","","","","","image-keyboard-response","26","441069","0.0-26.0","","1117","tutorial/task_familiarization_images/part 1/20_N160_K40_cliqueRight_solution.PNG"," ","","","","","","","","",""
"","","","","","image-keyboard-response","27","443385","0.0-27.0","","2313","tutorial/task_familiarization_images/part 1/21_N160_K70_cliqueLeft_question1.PNG"," ","","","","","","","","",""
"","","","","","image-keyboard-response","28","444745","0.0-28.0","","1358","tutorial/task_familiarization_images/part 1/22_N160_K70_cliqueLeft_question2.PNG"," ","","","","","","","","",""
"","","","","","image-keyboard-response","29","445417","0.0-29.0","","670","tutorial/task_familiarization_images/part 1/23_N160_K70_cliqueLeft_question3.PNG","arrowleft","","","","","","","","",""
"","","","","","image-keyboard-response","30","446596","0.0-30.0","","1178","tutorial/task_familiarization_images/part 1/24_N160_K70_cliqueLeft_solution.PNG"," ","","","","","","","","",""
"true","false","[]","[]","[]","preload","31","492307","0.0-31.0","","","","","","","","","","","","",""
"","","","","","image-keyboard-response","32","502586","0.0-32.0","","10278","tutorial/task_familiarization_images/part 2/01_160_80_cliqueLeft_withFeedback_1.PNG"," ","","","","","","","","",""
"","","","","","image-keyboard-response","33","507315","0.0-33.0","","4728","tutorial/task_familiarization_images/part 2/02_160_80_cliqueLeft_withFeedback_1.PNG"," ","","","","","","","","",""
"","","","","","image-keyboard-response","34","509192","0.0-34.0","","1876","tutorial/task_familiarization_images/part 2/03_160_80_cliqueLeft_withFeedback_3.PNG","arrowleft","","","","","","","","",""
"","","","","","image-keyboard-response","35","513552","0.0-35.0","","4356","tutorial/task_familiarization_images/part 2/04_160_80_cliqueLeft_withFeedback_correct.PNG"," ","","","","","","","","",""
"","","","","","image-keyboard-response","36","517100","0.0-36.0","","3546","tutorial/task_familiarization_images/part 2/05_160_55_cliqueRight_withFeedback_1.PNG"," ","","","","","","","","",""
"","","","","","image-keyboard-response","37","521486","0.0-37.0","","4384","tutorial/task_familiarization_images/part 2/06_160_55_cliqueRight_withFeedback_2.PNG"," ","","","","","","","","",""
"","","","","","image-keyboard-response","38","522427","0.0-38.0","","939","tutorial/task_familiarization_images/part 2/07_160_55_cliqueRight_withFeedback_3.PNG","arrowright","","","","","","","","",""
"","","","","","image-keyboard-response","39","527252","0.0-39.0","","4823","tutorial/task_familiarization_images/part 2/08_160_55_cliqueRight_withFeedback_correct.PNG"," ","","","","","","","","",""
"","","","","","image-keyboard-response","40","530984","0.0-40.0","","3730","tutorial/task_familiarization_images/part 2/09_160_70_cliqueLeft_withFeedback_1.PNG"," ","","","","","","","","",""
"","","","","","image-keyboard-response","41","532462","0.0-41.0","","1476","tutorial/task_familiarization_images/part 2/10_160_70_cliqueLeft_withFeedback_2.PNG"," ","","","","","","","","",""
"","","","","","image-keyboard-response","42","533274","0.0-42.0","","809","tutorial/task_familiarization_images/part 2/11_160_70_cliqueLeft_withFeedback_3.PNG","arrowleft","","","","","","","","",""
"","","","","","image-keyboard-response","43","537693","0.0-43.0","","4417","tutorial/task_familiarization_images/part 2/12_160_70_cliqueLeft_withFeedback_correct.PNG"," ","","","","","","","","",""
"","","","","","survey-html-form","44","545586","0.0-44.0","","7885","","{""gender"":""female"",""age"":""24""}","","","","","","","","",""
"","","","","","instructions","45","561599","0.0-45.0","[{""page_index"":0,""viewing_time"":16012}]","16012","","","","","","","","","","",""
"true","","","","","fullscreen","46","565120","0.0-47.0","","","","","","","","","","","","",""
"","","","","","canvas-keyboard-response","47","568448","0.0-48.0-0.0-0.0","","3167",""," ","[246,127,267,287,294,196,172,85,257,112,97,131,2,83,260,74,93,60,96,50,51,184,49,64,137,198,113,9,104,266,13,218,167,286,43,100,219,248,102,205,151,99,6,165,35,110,188,23,275,195,29,187,62,118,174,63,291,98,152,19,22,247,144,120,3,17,280,164,15,293,148,273,191,36,57,160,45,282,28,12,226,73,284,54,231,155,262,212,245,21,34,232,88,53,233,25,94,272,10,157,292,176,126,244,299,154,229,236,171,130,139,225,79,1,166,269,283,258,297,30,124,71,298,24,105,207,276,255,5,141,82,181,288,26,66,201,281,106,211,168,55,133,278,77,221,250,75,87,146,169,268,81,70,285,89,33,90,175,204,40,238,261,156,180,162,271,68,253,92,222,47,227,145,114,119,170,134,150,159,206,265,108,116,263,72,161,213,20,111,210,31,140,32,208,185,125,143,39,0,147,123,41,67,121,241,242,128,38,69,103,234,252,256,199,190,18,58,109,209,203,84,279,216,91,61,243,274,214,37,11,52,259,95,192,224,228,59,295,129,194,14,197,290,189,138,86,277,115,223,56,235,183,186,251,220,240,200,163,16,239,215,44,202,270,65,42,289,237,296,4,48,46,178,179,158,122,249,101,7,136,254,132,264,230,177,173,149,217,8,80,117,107,27,76,182,142,78,193,135,153]","arrowleft","0","0","90","300","[""0092_N0300_K0090_CLIQUE"",""0058_N0300_K0090_NOCLIQUE""]","",""
"","","","","","audio-keyboard-response","48","569242","0.0-48.0-0.0-1.0","","null","audio_feedback/shuffles/shuffle01.mp3","null","","","0","0","90","300","[""0092_N0300_K0090_CLIQUE"",""0058_N0300_K0090_NOCLIQUE""]","",""
"","","","","","canvas-keyboard-response","49","570459","0.0-48.1-0.1-0.1","","1104",""," ","[178,26,209,87,25,273,179,59,5,219,279,191,46,13,37,254,235,140,2,197,264,257,63,239,256,27,117,20,125,51,227,56,211,91,212,210,218,62,200,143,121,1,193,291,176,252,180,126,225,123,259,24,262,161,4,280,216,132,85,138,119,134,195,18,40,165,223,66,6,152,71,149,203,231,48,9,173,163,108,77,171,175,167,241,64,95,151,230,217,115,127,192,243,202,288,81,118,15,30,32,139,29,190,105,93,226,111,116,261,153,215,159,214,158,290,236,271,131,65,129,17,162,89,68,224,286,287,72,222,276,58,83,36,240,10,86,104,245,103,60,237,130,49,135,242,266,267,112,42,186,73,207,246,247,33,0,258,194,188,233,296,169,205,109,145,54,208,228,232,96,248,251,187,61,274,14,144,220,238,31,92,133,201,142,11,50,99,137,147,172,174,39,90,160,44,277,122,265,102,23,285,155,43,34,244,250,82,177,114,21,98,67,185,289,12,97,52,199,38,297,294,292,204,19,221,293,22,45,57,168,106,3,100,198,156,47,270,148,166,55,255,299,110,284,283,298,7,107,141,184,146,295,78,196,150,74,164,263,41,80,269,206,35,260,154,8,120,136,181,28,278,213,229,275,84,75,79,53,189,76,272,282,101,268,70,170,249,69,183,94,234,128,253,88,281,182,113,16,124,157]","arrowleft","0","0","90","300","[""0092_N0300_K0090_CLIQUE"",""0058_N0300_K0090_NOCLIQUE""]","",""
"","","","","","audio-keyboard-response","50","571042","0.0-48.1-0.1-1.1","","null","audio_feedback/shuffles/shuffle01.mp3","null","","","0","0","90","300","[""0092_N0300_K0090_CLIQUE"",""0058_N0300_K0090_NOCLIQUE""]","",""
"","","","","","canvas-keyboard-response","51","572043","0.0-48.2-0.2-0.2","","871",""," ","[215,223,228,130,219,69,132,254,78,285,92,106,297,176,75,249,85,269,117,72,287,79,200,294,214,260,54,44,46,87,185,194,253,58,114,232,4,112,199,282,180,77,155,237,227,5,270,84,55,110,13,222,3,154,258,80,217,256,159,295,175,25,205,122,276,109,141,57,152,89,38,231,225,236,131,277,97,189,115,0,202,101,262,137,187,52,39,271,34,172,261,41,266,65,119,170,218,88,255,216,104,161,26,268,33,121,56,247,50,229,151,60,158,22,103,279,246,30,245,20,207,66,191,14,6,91,192,45,147,157,35,173,68,138,96,177,169,226,12,133,71,198,142,206,23,190,83,67,184,99,47,37,118,36,74,284,183,167,208,140,64,145,238,298,144,274,259,150,21,203,281,188,24,264,273,123,8,241,195,234,162,263,275,224,107,286,28,148,204,105,278,193,1,290,81,212,156,82,11,9,40,48,61,18,146,135,220,179,209,178,272,53,171,127,291,149,164,102,32,124,128,70,2,93,19,267,7,76,196,221,16,42,153,10,289,143,51,288,94,210,129,134,126,211,73,100,139,186,49,213,113,166,163,95,98,201,251,86,299,243,244,181,17,29,90,43,293,252,59,235,248,174,292,265,136,250,257,116,283,240,160,242,280,296,197,15,233,125,108,165,239,230,111,182,120,63,27,31,62,168]","arrowleft","0","0","90","300","[""0092_N0300_K0090_CLIQUE"",""0058_N0300_K0090_NOCLIQUE""]","",""
"","","","","","audio-keyboard-response","52","572623","0.0-48.2-0.2-1.2","","null","audio_feedback/shuffles/shuffle01.mp3","null","","","0","0","90","300","[""0092_N0300_K0090_CLIQUE"",""0058_N0300_K0090_NOCLIQUE""]","",""
"","","","","","canvas-keyboard-response","53","573677","0.0-48.3-0.3-0.3","","931","","arrowleft","[162,64,185,205,204,154,190,135,283,94,122,179,131,56,231,91,287,284,128,157,47,125,35,151,152,242,144,55,69,32,289,211,202,240,61,134,182,62,25,198,192,136,212,129,77,275,266,147,139,26,292,95,143,109,184,46,249,281,263,282,243,273,93,123,196,110,118,63,207,108,221,18,90,171,158,295,76,277,9,156,82,50,141,116,54,51,12,97,178,262,177,267,176,21,227,19,216,255,199,70,276,280,285,225,194,29,83,258,105,291,161,247,228,68,138,256,168,271,260,222,248,298,132,279,167,106,49,74,92,28,72,124,44,175,101,65,236,2,114,119,113,208,111,290,41,60,160,272,166,8,89,230,81,259,104,210,57,209,270,274,173,264,5,145,10,14,174,238,115,100,126,45,1,36,59,195,245,293,140,73,88,149,66,159,180,294,201,53,150,24,48,121,20,214,215,244,235,102,218,246,75,107,183,71,220,229,16,187,224,297,103,23,87,239,155,7,15,163,188,278,96,200,31,299,232,268,217,38,269,40,133,98,4,153,170,86,186,37,11,172,286,0,130,13,148,164,6,288,226,253,58,251,127,43,67,99,80,219,189,265,250,142,120,197,261,193,237,85,52,112,241,79,17,296,3,254,206,146,213,117,84,233,169,33,223,181,191,165,30,203,137,27,78,34,234,22,42,257,39,252]","arrowleft","0","0","90","300","[""0092_N0300_K0090_CLIQUE"",""0058_N0300_K0090_NOCLIQUE""]","","true"
"","","","","","audio-keyboard-response","54","574102","0.0-48.3-0.3-1.3","","null","audio_feedback/right/coin01.mp3","null","","","0","0","90","300","[""0092_N0300_K0090_CLIQUE"",""0058_N0300_K0090_NOCLIQUE""]","",""
"","","","","","canvas-keyboard-response","55","578084","0.0-49.0-0.0-0.0","","3864",""," ","[217,104,254,258,190,100,185,52,129,272,75,23,156,234,291,11,270,144,90,208,215,154,136,40,247,54,16,60,225,36,22,143,178,5,14,132,206,233,223,107,121,235,239,264,219,68,89,43,180,153,248,224,98,106,158,10,279,135,119,287,49,200,286,182,111,71,12,83,167,204,243,276,299,266,157,293,51,48,13,209,214,20,78,269,46,259,159,33,218,262,164,289,240,294,246,66,221,42,92,74,93,91,271,199,277,41,268,39,230,50,201,124,179,186,86,29,126,196,87,148,82,6,97,137,95,263,187,8,9,44,15,47,88,192,64,63,278,57,31,188,118,94,298,249,265,73,292,7,120,228,170,56,237,166,260,284,211,133,290,210,61,128,58,28,297,212,69,85,288,194,177,245,149,274,295,110,84,252,184,65,176,142,202,250,168,227,70,122,139,213,146,79,163,232,256,173,195,283,80,27,231,123,113,130,244,24,105,169,62,193,285,125,2,21,241,101,189,32,197,67,198,53,191,238,281,165,155,17,81,117,253,261,171,267,251,25,229,150,103,102,203,30,114,255,242,275,222,0,151,4,55,3,236,205,76,18,45,115,273,296,19,108,140,37,181,145,131,152,162,174,72,134,38,96,1,109,34,282,226,175,26,116,147,207,127,257,280,138,161,216,77,35,99,141,183,59,112,220,160,172]","arrowright","0","1","90","300","[""0070_N0300_K0090_NOCLIQUE"",""0013_N0300_K0090_CLIQUE""]","",""
"","","","","","audio-keyboard-response","56","578660","0.0-49.0-0.0-1.0","","null","audio_feedback/shuffles/shuffle01.mp3","null","","","0","1","90","300","[""0070_N0300_K0090_NOCLIQUE"",""0013_N0300_K0090_CLIQUE""]","",""
"","","","","","canvas-keyboard-response","57","579184","0.0-49.1-0.1-0.1","","431",""," ","[220,97,273,122,223,155,29,299,240,257,60,279,68,59,262,215,168,127,34,62,13,5,105,154,69,185,197,280,251,161,167,2,184,124,146,134,187,16,205,118,266,102,14,189,235,242,142,183,149,263,202,295,55,194,1,79,106,207,32,165,224,229,65,121,26,259,289,80,208,119,123,150,135,228,221,57,96,147,152,49,82,195,272,287,206,238,267,95,24,174,156,260,176,15,278,282,281,73,227,182,129,85,192,204,175,9,193,110,296,190,157,76,108,81,276,114,107,173,18,6,181,171,264,33,186,286,153,222,126,188,45,112,90,22,274,136,225,51,217,179,261,283,270,200,28,160,253,249,72,56,93,298,247,212,10,232,209,216,191,40,163,236,133,70,277,53,103,268,210,162,166,27,178,84,92,75,23,233,143,196,11,199,50,48,243,47,265,7,237,83,46,177,244,172,61,109,158,88,254,230,290,64,294,132,201,198,219,111,252,214,292,113,39,44,141,54,275,91,21,89,211,25,128,291,288,213,98,131,20,218,137,226,250,140,31,77,66,42,241,58,125,285,203,144,43,234,180,87,248,130,63,35,284,17,245,99,145,293,36,139,37,159,170,297,269,86,169,101,67,19,4,0,41,151,100,30,231,104,12,71,148,246,256,52,271,38,115,8,116,255,3,120,138,78,117,164,94,239,74,258]","arrowright","0","1","90","300","[""0070_N0300_K0090_NOCLIQUE"",""0013_N0300_K0090_CLIQUE""]","",""
"","","","","","audio-keyboard-response","58","579762","0.0-49.1-0.1-1.1","","null","audio_feedback/shuffles/shuffle01.mp3","null","","","0","1","90","300","[""0070_N0300_K0090_NOCLIQUE"",""0013_N0300_K0090_CLIQUE""]","",""
"","","","","","canvas-keyboard-response","59","580415","0.0-49.2-0.2-0.2","","541","","arrowright","[120,23,124,81,66,156,195,227,130,217,38,89,282,121,298,91,134,199,178,295,164,208,114,113,202,158,65,257,276,15,35,149,148,267,51,224,9,117,172,240,299,76,100,205,213,291,231,235,296,19,2,144,136,109,111,210,288,63,133,154,272,151,197,60,191,33,292,93,128,185,147,261,43,268,279,152,79,68,104,265,244,168,212,214,115,69,141,179,219,284,72,8,95,30,266,270,142,14,58,29,94,99,278,41,232,110,132,201,229,192,73,126,87,293,187,269,137,160,230,61,186,22,56,196,188,250,274,32,55,275,37,131,222,237,21,39,176,198,163,24,64,243,171,102,44,101,84,50,209,225,67,31,285,259,233,182,135,166,1,281,287,200,155,3,85,289,20,255,204,170,273,127,42,162,206,57,254,122,236,189,180,5,249,88,161,238,107,25,143,86,74,52,242,184,10,46,271,248,294,215,221,262,59,174,264,98,47,0,239,216,145,150,48,146,6,193,183,234,251,75,97,218,53,82,45,103,49,105,106,256,4,159,211,277,7,34,83,297,140,138,245,290,253,108,70,119,26,118,220,123,78,247,62,241,112,228,54,157,167,169,203,286,173,165,13,17,96,177,90,139,280,27,77,92,12,175,181,80,28,263,223,258,40,18,252,246,153,71,283,194,190,260,36,11,116,125,16,207,226,129]","arrowright","0","1","90","300","[""0070_N0300_K0090_NOCLIQUE"",""0013_N0300_K0090_CLIQUE""]","","true"
"","","","","","audio-keyboard-response","60","580821","0.0-49.2-0.2-1.2","","null","audio_feedback/right/coin01.mp3","null","","","0","1","90","300","[""0070_N0300_K0090_NOCLIQUE"",""0013_N0300_K0090_CLIQUE""]","",""
"","","","","","canvas-keyboard-response","61","582198","0.0-50.0-0.0-0.0","","1278","","arrowleft","[179,200,11,228,33,268,152,75,1,275,176,118,89,2,85,81,263,239,259,166,113,108,74,216,43,84,70,45,127,90,29,206,38,125,164,261,193,225,41,196,121,23,297,255,32,171,68,148,202,111,52,57,238,163,58,87,129,4,143,114,96,9,266,158,169,71,79,278,67,128,299,247,154,21,280,175,47,283,72,49,28,147,155,160,133,101,99,88,257,215,279,62,182,116,212,265,187,295,94,218,55,86,189,63,5,250,100,120,22,230,76,285,8,251,80,168,115,254,146,174,210,97,178,186,14,135,53,59,249,106,235,54,220,248,298,226,217,294,20,144,78,13,3,65,50,25,107,123,35,95,258,77,264,188,233,224,93,117,92,10,103,272,274,199,61,256,69,12,109,290,46,151,37,184,232,159,246,234,26,195,242,208,153,0,131,281,194,282,207,227,183,198,219,165,110,213,98,36,51,30,211,180,201,192,203,244,214,15,221,24,236,136,289,31,269,288,42,6,138,130,243,91,229,172,209,16,40,177,173,190,34,56,7,102,245,145,73,222,44,197,271,260,83,273,142,149,162,286,204,276,262,39,150,60,293,48,277,231,112,167,170,157,252,66,126,161,104,64,124,17,122,140,141,82,132,137,284,19,287,223,291,237,105,270,253,267,139,119,205,296,185,241,181,134,240,18,292,156,191,27]","arrowleft","0","2","80","300","[""0059_N0300_K0080_CLIQUE"",""0028_N0300_K0080_NOCLIQUE""]","","true"
"","","","","","audio-keyboard-response","62","582622","0.0-50.0-0.0-1.0","","null","audio_feedback/right/coin01.mp3","null","","","0","2","80","300","[""0059_N0300_K0080_CLIQUE"",""0028_N0300_K0080_NOCLIQUE""]","",""
"","","","","","canvas-keyboard-response","63","583892","0.0-51.0-0.0-0.0","","1164","","arrowleft","[54,190,99,95,236,154,13,109,253,146,185,157,50,56,120,261,77,178,195,286,291,70,202,285,84,45,5,271,199,136,3,156,280,22,83,208,293,243,21,242,245,124,212,61,153,217,57,94,201,98,29,62,273,297,127,107,67,110,179,231,252,264,112,276,128,103,255,145,16,96,108,78,263,198,68,265,39,115,15,194,42,34,200,213,163,35,58,181,159,196,123,258,241,51,161,75,133,289,114,142,287,240,164,171,216,165,298,295,23,147,249,172,53,6,292,254,234,284,20,210,24,8,60,207,228,266,79,141,149,174,64,166,272,19,76,183,281,223,25,218,246,150,288,80,73,48,215,41,28,226,238,158,111,192,59,46,225,55,170,197,100,187,9,180,63,275,143,204,69,193,278,203,230,283,206,105,259,168,36,86,175,72,7,191,97,93,214,270,219,277,260,104,177,87,155,251,221,31,37,10,239,138,27,160,227,132,121,148,33,18,152,30,256,268,89,229,282,52,116,162,169,296,205,290,49,17,0,90,131,88,267,117,299,151,250,106,257,1,244,26,232,189,91,14,233,262,12,135,101,102,176,38,134,140,144,82,173,237,118,184,209,211,130,235,167,269,113,126,44,43,11,186,119,248,71,279,220,2,274,85,66,32,74,137,247,182,139,4,222,81,129,294,40,224,92,47,188,65,125,122]","arrowleft","0","3","80","300","[""0026_N0300_K0080_CLIQUE"",""0008_N0300_K0080_NOCLIQUE""]","","true"
"","","","","","audio-keyboard-response","64","584303","0.0-51.0-0.0-1.0","","null","audio_feedback/right/coin01.mp3","null","","","0","3","80","300","[""0026_N0300_K0080_CLIQUE"",""0008_N0300_K0080_NOCLIQUE""]","",""
"","","","","","canvas-keyboard-response","65","585883","0.0-52.0-0.0-0.0","","1484",""," ","[29,245,18,47,160,41,226,290,148,10,162,255,233,128,248,191,209,86,135,251,228,163,176,137,91,102,134,167,116,197,194,287,214,139,222,220,101,105,82,204,230,169,217,111,100,289,51,122,0,174,98,240,147,227,268,236,284,178,36,50,297,123,279,259,186,182,278,273,38,263,92,140,193,219,43,61,166,127,88,57,66,188,192,11,286,157,2,9,249,161,115,106,253,19,60,14,269,70,208,141,12,154,78,173,83,234,246,181,212,71,90,49,272,285,132,200,203,152,54,229,180,125,187,1,291,145,296,93,16,68,244,33,175,210,221,151,95,75,99,8,56,277,4,133,65,62,20,74,63,235,271,153,32,42,298,266,267,120,292,206,39,24,136,15,205,270,7,6,189,198,254,164,250,190,59,85,252,72,170,225,213,17,199,149,67,94,159,110,40,21,183,13,53,223,257,288,121,69,131,44,168,138,281,27,79,45,31,108,218,282,3,48,87,177,171,146,280,165,262,81,207,241,158,104,256,144,293,150,260,103,114,238,195,73,26,179,172,215,124,107,30,129,185,224,155,258,299,77,231,52,196,109,126,5,89,23,265,274,201,211,117,119,143,25,112,34,261,118,28,130,113,216,239,242,58,247,276,80,237,35,37,264,46,202,84,243,97,283,142,156,55,64,295,22,76,294,184,232,275,96]","arrowright","0","4","70","300","[""0089_N0300_K0070_NOCLIQUE"",""0013_N0300_K0070_CLIQUE""]","",""
"","","","","","audio-keyboard-response","66","586462","0.0-52.0-0.0-1.0","","null","audio_feedback/shuffles/shuffle01.mp3","null","","","0","4","70","300","[""0089_N0300_K0070_NOCLIQUE"",""0013_N0300_K0070_CLIQUE""]","",""
"","","","","","canvas-keyboard-response","67","587167","0.0-52.1-0.1-0.1","","597","","arrowright","[17,140,230,143,281,192,139,104,119,167,295,149,50,159,51,221,266,32,247,233,60,288,136,7,109,170,16,268,270,216,212,102,23,3,248,70,93,242,210,67,289,200,117,254,6,84,55,45,130,225,22,208,190,128,126,90,161,44,205,284,10,33,280,180,252,277,227,74,169,229,218,198,214,35,238,294,223,62,176,72,39,98,239,181,261,215,13,276,235,237,59,31,179,20,24,152,272,27,207,279,204,213,115,264,19,189,95,267,111,236,99,244,56,186,1,224,114,121,178,243,249,257,127,4,246,48,271,162,120,26,53,250,54,251,40,253,148,285,201,85,122,38,77,106,222,18,68,66,108,263,134,147,283,240,144,97,202,173,188,145,0,118,112,86,69,42,132,293,234,151,11,14,146,163,195,299,217,194,92,182,153,298,131,164,30,292,83,226,82,273,36,91,203,5,258,28,52,291,61,193,103,177,275,231,269,157,138,105,197,158,209,110,154,274,296,165,75,12,265,278,41,71,142,174,168,29,2,123,133,286,206,15,107,37,175,155,125,232,124,63,241,8,196,137,76,171,256,94,191,80,262,220,255,150,65,160,183,81,156,199,88,113,100,21,101,73,228,78,187,64,58,79,172,25,185,211,290,245,219,287,9,57,116,166,34,184,129,259,96,135,47,46,141,43,49,260,89,297,87,282]","arrowright","0","4","70","300","[""0089_N0300_K0070_NOCLIQUE"",""0013_N0300_K0070_CLIQUE""]","","true"
"","","","","","audio-keyboard-response","68","587581","0.0-52.1-0.1-1.1","","null","audio_feedback/right/coin01.mp3","null","","","0","4","70","300","[""0089_N0300_K0070_NOCLIQUE"",""0013_N0300_K0070_CLIQUE""]","",""
"","","","","","canvas-keyboard-response","69","588460","0.0-53.0-0.0-0.0","","777",""," ","[193,273,146,288,65,234,139,254,258,35,138,63,1,227,215,112,165,203,103,229,224,10,50,127,189,241,48,7,36,183,228,239,79,5,89,190,184,214,28,171,222,223,252,217,281,178,104,233,216,69,246,168,208,268,44,292,164,45,272,149,13,117,113,151,299,133,293,191,256,262,2,206,21,249,105,251,238,267,66,42,197,154,158,176,174,140,162,75,58,73,90,56,283,219,114,59,296,30,202,22,71,119,152,244,235,60,101,121,46,282,53,72,3,33,156,64,116,77,17,167,210,275,86,61,132,265,173,270,182,4,0,218,284,57,52,14,261,199,128,97,91,253,232,263,204,83,285,67,243,213,209,170,98,290,205,181,137,136,41,94,11,40,286,172,92,226,291,161,192,120,82,297,74,221,274,145,51,236,186,122,76,255,34,55,18,24,100,259,245,80,84,207,31,185,108,123,109,93,29,39,266,247,242,43,9,166,118,62,195,20,37,240,78,264,188,107,96,179,187,49,269,198,23,68,169,159,212,70,148,110,201,106,102,271,88,237,287,81,147,155,175,144,126,225,194,125,277,16,196,130,260,12,47,134,19,295,27,95,180,280,278,99,157,32,163,230,142,276,85,38,141,8,250,177,131,129,289,54,298,124,143,294,257,25,115,87,15,160,150,248,135,220,211,111,200,231,153,6,26,279]","arrowright","0","5","70","300","[""0056_N0300_K0070_NOCLIQUE"",""0049_N0300_K0070_CLIQUE""]","",""
"","","","","","audio-keyboard-response","70","589040","0.0-53.0-0.0-1.0","","null","audio_feedback/shuffles/shuffle01.mp3","null","","","0","5","70","300","[""0056_N0300_K0070_NOCLIQUE"",""0049_N0300_K0070_CLIQUE""]","",""
"","","","","","canvas-keyboard-response","71","589920","0.0-53.1-0.1-0.1","","686",""," ","[253,187,70,208,91,89,5,168,192,114,224,182,43,29,156,94,58,139,238,150,179,25,105,27,202,292,242,85,219,190,24,251,69,44,278,196,145,284,237,123,178,21,152,194,155,82,173,56,199,62,177,119,216,65,4,100,244,68,75,132,205,1,252,16,10,49,125,299,83,122,20,50,147,255,180,57,72,193,59,195,172,143,120,264,176,297,90,46,222,23,160,118,80,232,88,104,243,234,211,153,110,289,36,225,6,9,141,221,113,131,106,280,11,256,48,209,60,64,103,144,0,154,246,61,293,257,175,67,81,74,140,51,32,115,249,95,13,107,295,171,54,254,223,276,230,138,161,282,290,226,142,186,241,158,41,78,55,275,227,14,87,235,66,207,136,126,296,28,30,263,268,240,92,86,127,97,15,204,163,8,135,228,111,279,99,39,112,34,121,274,206,134,217,231,214,271,76,286,45,151,17,170,265,18,166,162,258,79,229,22,272,42,84,26,197,148,266,181,189,117,137,210,245,149,159,40,63,96,273,262,2,250,215,164,260,201,294,128,283,77,239,247,270,174,169,37,200,267,109,93,236,102,288,298,146,220,185,130,218,248,203,133,53,281,184,269,19,124,12,291,52,165,167,233,259,7,213,35,38,277,3,116,33,73,129,188,285,108,191,101,98,287,31,157,71,261,198,212,47,183]","arrowright","0","5","70","300","[""0056_N0300_K0070_NOCLIQUE"",""0049_N0300_K0070_CLIQUE""]","",""
"","","","","","audio-keyboard-response","72","590500","0.0-53.1-0.1-1.1","","null","audio_feedback/shuffles/shuffle01.mp3","null","","","0","5","70","300","[""0056_N0300_K0070_NOCLIQUE"",""0049_N0300_K0070_CLIQUE""]","",""
"","","","","","canvas-keyboard-response","73","591341","0.0-53.2-0.2-0.2","","712",""," ","[215,98,180,88,20,188,67,171,274,61,207,144,21,15,195,9,90,12,211,194,45,253,236,49,277,24,100,39,148,214,91,226,275,183,42,252,23,33,165,75,107,84,237,93,65,172,78,105,234,254,141,16,261,29,181,191,287,68,56,282,278,111,162,189,117,292,57,3,264,5,243,102,71,152,267,197,268,297,272,142,284,158,177,59,213,125,114,276,202,92,79,83,168,167,6,116,53,62,149,2,113,140,36,137,19,130,244,77,233,269,0,245,51,232,225,208,138,251,28,279,190,159,81,294,13,52,175,134,86,74,196,285,218,108,26,157,224,60,192,76,106,120,198,73,22,203,151,145,227,80,217,30,154,110,206,72,200,230,94,223,238,31,210,44,239,259,241,255,58,281,298,119,10,139,290,131,97,48,204,27,136,160,161,17,32,169,133,55,123,273,121,186,173,43,220,96,115,146,34,299,14,231,176,260,11,205,166,229,270,212,240,47,262,185,8,249,266,271,37,219,170,193,286,4,164,257,7,263,89,99,109,187,163,256,38,135,87,153,178,129,265,288,35,1,18,63,95,104,296,242,112,66,235,222,156,150,295,25,247,69,246,291,50,182,40,128,209,127,221,293,147,199,54,216,126,70,228,46,179,118,258,101,132,41,85,124,248,82,283,289,103,155,174,201,64,122,184,143,280,250]","arrowright","0","5","70","300","[""0056_N0300_K0070_NOCLIQUE"",""0049_N0300_K0070_CLIQUE""]","",""
"","","","","","audio-keyboard-response","74","591921","0.0-53.2-0.2-1.2","","null","audio_feedback/shuffles/shuffle01.mp3","null","","","0","5","70","300","[""0056_N0300_K0070_NOCLIQUE"",""0049_N0300_K0070_CLIQUE""]","",""
"","","","","","canvas-keyboard-response","75","592823","0.0-53.3-0.3-0.3","","781",""," ","[223,117,279,44,285,210,124,204,211,102,185,66,272,290,107,91,114,150,38,0,281,46,259,137,9,20,184,72,201,202,248,266,253,233,168,23,243,282,122,40,57,232,36,284,260,264,220,121,82,76,235,69,55,108,98,289,252,136,216,161,236,84,88,15,67,278,92,167,18,257,10,56,42,255,142,178,277,192,267,112,183,193,212,95,24,273,12,207,128,234,83,177,143,58,144,111,227,110,245,188,101,186,222,138,157,217,8,240,41,93,195,90,198,130,189,99,297,256,11,27,81,29,74,294,158,135,113,62,37,280,13,75,151,163,132,196,194,187,104,50,125,85,43,53,247,214,14,35,197,287,131,16,251,96,145,149,181,265,238,79,293,5,275,140,160,123,219,173,164,1,288,97,221,218,213,54,31,228,241,59,208,244,32,120,127,60,65,215,30,239,64,176,296,47,134,246,141,34,22,68,254,49,250,133,203,174,52,242,262,4,3,78,209,115,200,28,147,226,162,48,274,17,7,89,179,80,70,61,283,73,116,2,109,19,172,258,171,175,100,155,118,270,25,263,170,298,237,126,295,63,261,129,182,205,166,299,146,291,119,269,268,159,229,225,199,39,148,71,21,106,153,230,156,87,51,139,154,77,271,94,6,33,165,191,276,105,231,169,26,103,45,224,292,86,152,206,180,286,190,249]","arrowright","0","5","70","300","[""0056_N0300_K0070_NOCLIQUE"",""0049_N0300_K0070_CLIQUE""]","",""
"","","","","","audio-keyboard-response","76","593400","0.0-53.3-0.3-1.3","","null","audio_feedback/shuffles/shuffle01.mp3","null","","","0","5","70","300","[""0056_N0300_K0070_NOCLIQUE"",""0049_N0300_K0070_CLIQUE""]","",""
"","","","","","canvas-keyboard-response","77","594603","0.0-53.4-0.4-0.4","","1079",""," ","[56,108,131,60,193,217,59,118,242,90,221,273,185,137,27,82,9,216,32,212,103,84,77,294,124,51,10,41,169,61,126,199,58,262,157,149,68,140,181,298,105,13,35,70,139,49,289,146,112,145,233,65,147,184,138,4,46,284,23,202,156,37,253,48,206,93,92,116,207,209,175,141,74,25,47,8,194,17,227,106,237,264,134,14,73,297,218,259,115,54,244,265,136,19,268,171,20,45,6,292,192,198,117,164,66,230,159,271,275,1,166,29,81,223,240,220,224,261,245,154,130,21,186,128,12,255,231,208,288,67,215,16,225,204,18,293,285,152,222,86,155,52,33,257,251,64,38,174,144,270,30,226,201,277,200,263,183,111,246,197,281,219,143,142,238,57,161,101,296,50,247,167,88,165,256,121,248,87,187,3,114,168,210,11,211,172,80,188,34,104,291,129,228,229,162,239,28,44,163,120,290,213,99,196,249,276,98,179,15,191,76,214,24,178,96,180,107,94,236,170,91,295,267,95,287,252,258,43,83,2,195,62,75,89,85,235,119,280,269,241,278,31,158,190,42,69,26,72,205,55,135,113,234,79,97,5,272,283,173,260,127,250,160,102,177,189,243,122,63,299,22,100,203,39,148,71,254,53,282,274,123,176,286,7,151,266,110,109,132,279,40,150,153,182,125,0,36,133,78,232]","arrowright","0","5","70","300","[""0056_N0300_K0070_NOCLIQUE"",""0049_N0300_K0070_CLIQUE""]","",""
"","","","","","audio-keyboard-response","78","595181","0.0-53.4-0.4-1.4","","null","audio_feedback/shuffles/shuffle01.mp3","null","","","0","5","70","300","[""0056_N0300_K0070_NOCLIQUE"",""0049_N0300_K0070_CLIQUE""]","",""
"","","","","","canvas-keyboard-response","79","596811","0.0-53.5-0.5-0.5","","1516","","arrowleft","[297,125,53,140,153,167,223,63,276,141,288,274,267,139,48,204,228,219,199,103,163,18,293,242,282,37,281,7,214,27,193,126,116,246,209,127,25,196,109,227,166,273,38,26,134,299,241,75,230,245,222,208,40,254,115,57,174,198,106,218,149,67,252,138,93,225,50,35,232,47,58,55,158,130,147,247,97,296,216,294,76,42,19,188,41,235,161,268,114,83,278,9,12,170,11,255,190,69,257,113,5,96,156,70,239,15,135,182,81,128,205,295,290,51,59,213,285,43,181,270,240,82,94,64,260,17,23,176,272,289,132,0,266,107,100,85,211,91,92,160,194,259,39,84,185,102,286,28,154,150,151,243,24,164,31,98,283,62,148,121,187,136,122,142,184,119,101,201,217,86,173,234,264,29,2,36,203,251,61,90,279,110,89,80,112,144,137,250,155,133,195,275,231,249,8,189,191,263,277,258,202,291,117,298,224,66,105,236,32,159,44,192,212,120,180,21,16,226,262,30,20,169,74,179,88,79,146,256,124,292,14,280,49,261,157,253,152,165,104,6,220,197,233,269,123,210,186,178,229,221,171,111,238,215,87,162,143,200,99,72,168,175,13,78,118,71,45,65,271,129,10,206,265,131,34,248,237,52,95,22,287,46,145,183,244,4,207,56,3,33,54,284,68,77,172,1,108,73,177,60]","arrowright","0","5","70","300","[""0056_N0300_K0070_NOCLIQUE"",""0049_N0300_K0070_CLIQUE""]","","false"
"","","","","","audio-keyboard-response","80","597400","0.0-53.5-0.5-1.5","","null","audio_feedback/wrong/error01.mp3","null","","","0","5","70","300","[""0056_N0300_K0070_NOCLIQUE"",""0049_N0300_K0070_CLIQUE""]","",""
"","","","","","canvas-keyboard-response","81","599244","0.0-54.0-0.0-0.0","","1726","","arrowleft","[127,45,184,231,145,218,34,99,288,70,228,8,219,162,9,213,53,149,193,205,296,257,292,249,51,232,27,141,196,124,277,80,55,169,246,191,212,95,271,104,63,240,275,13,176,208,138,282,111,171,215,155,128,35,214,177,254,209,122,67,30,188,183,180,42,174,245,283,20,25,179,37,21,236,50,199,88,87,263,154,110,286,291,186,241,121,253,242,156,137,217,46,226,233,284,102,92,72,210,120,297,206,299,239,151,91,273,59,19,248,276,252,264,69,113,266,201,142,223,198,90,172,244,61,52,64,123,22,259,116,195,187,75,237,139,262,221,265,3,48,225,77,44,234,98,49,175,200,269,148,181,73,167,106,79,159,202,119,83,107,285,38,84,289,165,287,192,189,211,29,47,97,293,170,93,131,96,76,16,157,66,101,117,82,89,109,147,94,118,7,295,227,134,251,268,272,166,220,23,230,15,158,261,255,229,256,41,105,26,11,5,115,161,58,150,298,71,2,258,281,85,132,143,190,274,114,100,136,126,197,65,31,60,43,178,278,250,18,135,108,294,207,163,222,130,185,238,129,140,153,247,4,78,68,6,267,54,280,1,32,112,279,168,146,28,125,182,56,160,164,86,243,81,216,270,204,17,12,14,290,40,133,144,173,74,194,36,260,152,235,39,24,103,33,224,57,62,203,0,10]","arrowleft","0","6","65","300","[""0058_N0300_K0065_CLIQUE"",""0004_N0300_K0065_NOCLIQUE""]","","true"
"","","","","","audio-keyboard-response","82","599660","0.0-54.0-0.0-1.0","","null","audio_feedback/right/coin01.mp3","null","","","0","6","65","300","[""0058_N0300_K0065_CLIQUE"",""0004_N0300_K0065_NOCLIQUE""]","",""
"","","","","","canvas-keyboard-response","83","600738","0.0-55.0-0.0-0.0","","943","","arrowright","[240,210,214,287,220,139,19,111,15,230,18,182,102,53,82,155,69,215,142,162,180,258,42,146,32,29,229,26,7,70,54,194,87,93,286,237,299,244,33,55,278,212,31,294,81,51,161,8,98,198,59,163,61,94,261,149,197,105,74,65,92,130,245,173,200,24,269,191,41,290,11,223,156,170,160,274,151,211,150,113,185,48,99,239,248,121,189,134,114,49,20,5,246,232,231,12,143,6,122,281,62,117,254,275,169,168,218,22,38,23,199,238,154,140,116,21,228,174,123,128,209,80,202,179,175,66,141,183,35,28,108,71,34,207,297,219,251,137,282,46,279,45,73,133,52,159,276,288,47,43,30,132,40,206,58,264,171,259,164,186,178,112,176,83,249,89,148,10,37,91,217,233,203,284,144,88,250,13,221,234,79,205,262,190,76,293,201,184,213,153,60,75,216,118,44,222,166,172,188,100,119,289,208,167,296,224,267,86,226,3,277,255,292,193,39,127,2,145,235,1,17,138,256,196,253,131,106,243,36,109,9,283,63,295,16,126,260,107,97,0,14,27,152,265,64,104,247,96,147,95,236,241,242,273,90,177,263,257,129,101,120,68,72,181,165,195,124,57,271,77,84,192,268,266,252,298,157,125,158,291,67,270,272,135,85,285,280,187,56,225,115,110,227,136,4,78,204,25,103,50]","arrowright","0","7","65","300","[""0030_N0300_K0065_NOCLIQUE"",""0021_N0300_K0065_CLIQUE""]","","true"
"","","","","","audio-keyboard-response","84","601160","0.0-55.0-0.0-1.0","","null","audio_feedback/right/coin01.mp3","null","","","0","7","65","300","[""0030_N0300_K0065_NOCLIQUE"",""0021_N0300_K0065_CLIQUE""]","",""
"","","","","","canvas-keyboard-response","85","603821","0.0-56.0-0.0-0.0","","2553",""," ","[158,14,126,206,13,41,133,232,242,286,109,279,226,222,150,276,155,83,188,268,34,93,130,149,282,42,31,129,205,277,3,160,151,100,177,210,27,252,4,65,209,136,88,51,169,2,53,290,219,292,75,8,220,125,147,235,262,154,77,217,46,92,124,249,10,67,107,280,22,111,269,54,29,55,196,81,213,20,99,6,113,145,0,260,228,178,236,204,250,245,63,61,234,25,118,185,80,56,200,255,180,73,146,17,103,115,120,289,216,11,189,153,294,273,287,137,62,82,174,239,296,191,229,166,85,16,112,44,207,1,60,104,5,84,86,208,152,184,69,74,79,253,91,89,50,68,214,43,70,263,187,72,164,284,39,64,248,105,182,49,35,171,202,76,57,295,297,225,45,23,270,128,28,275,19,156,291,122,15,240,230,299,78,173,288,197,266,30,119,247,274,131,47,7,37,26,38,36,293,256,201,101,40,90,238,162,170,18,190,138,159,110,227,186,144,32,254,261,211,87,66,223,12,134,194,192,203,243,116,179,298,199,181,167,135,183,231,114,218,97,96,168,102,24,163,94,212,48,233,142,148,143,33,121,257,283,117,141,176,52,58,278,132,267,98,172,139,271,244,246,241,108,157,106,198,224,221,195,123,127,258,140,215,165,281,272,265,264,251,21,193,237,161,9,59,71,95,285,175,259]","arrowright","0","8","60","300","[""0052_N0300_K0060_NOCLIQUE"",""0086_N0300_K0060_CLIQUE""]","",""
"","","","","","audio-keyboard-response","86","604402","0.0-56.0-0.0-1.0","","null","audio_feedback/shuffles/shuffle01.mp3","null","","","0","8","60","300","[""0052_N0300_K0060_NOCLIQUE"",""0086_N0300_K0060_CLIQUE""]","",""
"","","","","","canvas-keyboard-response","87","606267","0.0-56.1-0.1-0.1","","1757",""," ","[289,255,127,151,58,164,129,234,15,196,297,191,239,214,75,0,28,34,235,248,177,44,205,105,117,225,47,31,245,208,206,292,41,121,202,61,106,192,88,52,63,37,86,133,17,100,115,66,142,222,182,166,227,147,173,228,216,251,178,134,250,190,261,298,13,19,293,62,258,253,280,159,76,81,120,29,269,210,195,175,154,101,43,107,179,219,281,218,213,50,123,57,285,266,65,184,263,204,224,287,176,148,102,291,27,242,229,36,233,262,168,200,87,26,185,95,260,259,152,130,193,125,128,98,165,240,114,203,146,42,12,237,54,157,112,170,187,273,145,209,135,169,143,72,35,181,264,290,51,111,23,212,211,38,124,113,40,160,279,84,199,149,46,140,288,231,167,271,158,20,188,97,10,215,254,131,24,296,22,70,119,71,201,171,53,138,284,4,68,226,163,60,49,183,139,274,69,230,99,220,257,109,104,243,247,5,144,78,45,197,236,238,286,161,56,118,93,256,3,73,268,162,85,30,74,67,282,137,194,132,55,207,18,64,295,25,249,155,277,103,8,82,77,91,278,33,39,89,294,244,217,32,283,92,186,246,299,136,275,180,79,265,267,96,7,11,94,110,153,270,6,221,2,156,48,16,241,14,232,172,108,174,272,1,276,122,80,9,150,21,189,223,83,198,141,252,116,59,126,90]","arrowright","0","8","60","300","[""0052_N0300_K0060_NOCLIQUE"",""0086_N0300_K0060_CLIQUE""]","",""
"","","","","","audio-keyboard-response","88","606840","0.0-56.1-0.1-1.1","","null","audio_feedback/shuffles/shuffle01.mp3","null","","","0","8","60","300","[""0052_N0300_K0060_NOCLIQUE"",""0086_N0300_K0060_CLIQUE""]","",""
"","","","","","canvas-keyboard-response","89","608077","0.0-56.2-0.2-0.2","","1105","","arrowleft","[263,236,176,175,118,168,36,217,246,135,270,83,6,7,103,148,139,155,179,9,255,113,143,96,274,47,114,273,190,131,92,245,50,200,116,91,198,201,283,150,59,65,52,219,170,53,285,80,268,34,64,296,280,204,294,146,153,261,11,140,144,183,25,61,256,178,62,1,32,227,82,290,97,264,193,21,17,251,188,76,229,128,221,286,87,213,298,117,172,222,30,202,2,98,23,173,199,254,160,43,12,224,20,45,56,191,10,164,78,203,108,122,187,129,226,228,257,104,95,106,130,171,289,267,169,70,184,73,29,18,207,279,35,46,126,90,132,291,33,156,181,51,67,277,182,133,63,28,151,54,167,161,119,71,159,208,165,281,206,238,218,174,123,288,89,189,265,149,79,194,86,42,271,16,157,112,242,278,75,276,31,297,109,107,37,101,111,55,72,93,250,214,141,125,244,121,27,248,192,177,102,243,237,232,212,295,39,124,253,154,120,299,162,195,74,220,180,216,209,22,272,145,4,15,0,60,127,223,210,166,138,44,5,163,14,142,196,282,24,158,234,235,284,185,262,258,292,152,252,287,225,26,241,19,293,66,115,266,77,275,240,233,205,58,259,13,69,105,81,94,247,41,57,197,84,134,88,249,3,136,211,40,215,49,100,48,68,230,99,269,147,110,38,85,239,231,8,137,186,260]","arrowright","0","8","60","300","[""0052_N0300_K0060_NOCLIQUE"",""0086_N0300_K0060_CLIQUE""]","","false"
"","","","","","audio-keyboard-response","90","608660","0.0-56.2-0.2-1.2","","null","audio_feedback/wrong/error01.mp3","null","","","0","8","60","300","[""0052_N0300_K0060_NOCLIQUE"",""0086_N0300_K0060_CLIQUE""]","",""
"","","","","","canvas-keyboard-response","91","610229","0.0-57.0-0.0-0.0","","1457","","arrowright","[135,106,287,266,18,72,192,103,205,252,165,166,275,35,226,231,23,218,34,102,21,90,16,209,297,77,248,143,195,155,33,22,117,153,281,48,82,183,79,179,246,120,119,292,167,157,199,69,280,73,261,268,241,122,42,113,19,131,283,263,236,65,196,37,258,259,55,212,169,221,186,89,299,284,4,257,92,112,270,255,189,11,38,70,138,26,224,161,39,200,20,184,234,81,95,134,162,222,99,220,5,243,127,168,115,249,181,227,132,177,85,136,74,58,147,285,118,260,291,9,216,71,107,141,150,274,215,265,188,62,173,17,30,160,124,191,94,288,98,295,253,156,130,267,207,41,105,149,245,1,43,269,230,293,6,174,242,264,15,198,121,114,10,28,214,61,208,240,203,151,100,96,211,67,290,91,296,232,75,50,60,219,204,104,31,109,158,36,125,247,182,233,254,27,180,110,185,171,190,172,251,88,225,278,128,51,273,256,210,187,76,145,111,137,206,289,237,78,133,25,66,235,140,277,2,142,152,3,262,80,63,8,32,229,126,13,97,129,272,56,144,271,244,12,44,197,223,276,59,202,45,170,228,40,176,139,108,238,101,64,49,29,83,86,279,53,47,54,298,24,194,175,148,239,217,87,7,163,294,123,146,178,93,14,282,193,52,68,286,46,57,250,213,154,116,0,164,201,84,159]","arrowright","0","9","60","300","[""0074_N0300_K0060_NOCLIQUE"",""0054_N0300_K0060_CLIQUE""]","","true"
"","","","","","audio-keyboard-response","92","610640","0.0-57.0-0.0-1.0","","null","audio_feedback/right/coin01.mp3","null","","","0","9","60","300","[""0074_N0300_K0060_NOCLIQUE"",""0054_N0300_K0060_CLIQUE""]","",""
"","","","","","canvas-keyboard-response","93","612583","0.0-58.0-0.0-0.0","","1800",""," ","[265,234,295,288,40,120,168,52,21,76,9,122,131,298,225,66,181,248,284,180,49,64,227,240,50,96,206,210,90,268,207,69,33,204,0,14,185,292,214,88,42,281,264,161,235,45,7,229,201,124,79,80,189,141,140,192,130,296,209,111,59,208,237,223,231,16,11,177,291,86,93,286,257,178,167,83,203,78,261,118,213,119,28,31,19,195,1,172,170,275,290,149,98,215,91,113,43,173,246,63,102,293,297,71,216,34,211,10,75,267,171,106,165,278,259,13,46,17,147,220,51,232,187,103,188,260,179,283,158,169,53,89,174,146,166,198,182,273,242,221,39,134,224,67,112,127,274,109,258,100,121,125,101,162,104,128,73,137,233,5,197,252,95,20,56,139,138,135,30,289,55,116,44,255,151,272,123,62,154,164,270,247,191,57,4,81,148,238,115,256,190,68,217,222,58,144,243,228,199,254,8,18,250,61,276,3,87,15,22,253,107,193,142,205,36,105,2,32,219,157,26,202,97,70,277,271,266,155,163,48,282,35,176,27,150,285,279,23,184,94,160,251,294,37,132,29,244,262,117,212,129,269,239,72,54,25,41,24,230,6,218,47,92,65,84,145,159,110,156,236,82,287,186,12,136,126,60,108,77,114,99,85,263,183,74,153,38,226,152,245,280,143,175,299,249,194,133,241,200,196]","arrowright","0","10","55","300","[""0094_N0300_K0055_NOCLIQUE"",""0052_N0300_K0055_CLIQUE""]","",""
"","","","","","audio-keyboard-response","94","613162","0.0-58.0-0.0-1.0","","null","audio_feedback/shuffles/shuffle01.mp3","null","","","0","10","55","300","[""0094_N0300_K0055_NOCLIQUE"",""0052_N0300_K0055_CLIQUE""]","",""
"","","","","","canvas-keyboard-response","95","614100","0.0-58.1-0.1-0.1","","809","","arrowright","[194,153,88,42,225,187,197,97,50,200,202,294,235,218,160,178,267,163,156,159,89,132,164,206,58,245,171,80,207,64,289,237,27,28,118,288,266,92,249,72,172,233,63,241,146,109,297,32,5,120,165,244,101,190,107,212,11,8,125,277,185,173,65,93,162,232,108,104,260,240,276,34,242,149,113,248,49,210,52,281,60,203,234,10,39,55,78,22,115,193,7,180,179,57,155,257,4,46,274,213,71,286,145,31,40,17,296,217,299,182,231,73,273,85,246,261,23,29,148,81,56,258,158,254,221,112,224,116,122,117,95,70,15,123,174,208,201,69,44,128,98,275,144,138,111,176,147,43,170,284,103,192,84,54,48,82,67,199,61,269,264,24,250,141,220,143,168,271,252,285,227,265,12,238,211,121,96,110,282,139,198,25,33,291,18,86,298,214,36,53,287,131,195,129,124,189,157,283,136,239,77,191,83,105,2,47,253,1,130,219,151,209,183,142,91,140,270,293,255,66,137,229,20,74,79,181,223,169,0,51,106,167,205,134,272,135,21,114,26,102,150,16,186,204,175,216,45,90,30,3,184,226,59,247,166,228,251,13,6,259,290,9,256,177,41,236,94,292,133,262,243,152,295,280,75,278,188,161,87,196,268,38,14,222,279,127,126,215,230,99,154,119,35,19,62,263,100,37,68,76]","arrowright","0","10","55","300","[""0094_N0300_K0055_NOCLIQUE"",""0052_N0300_K0055_CLIQUE""]","","true"
"","","","","","audio-keyboard-response","96","614520","0.0-58.1-0.1-1.1","","null","audio_feedback/right/coin01.mp3","null","","","0","10","55","300","[""0094_N0300_K0055_NOCLIQUE"",""0052_N0300_K0055_CLIQUE""]","",""
"","","","","","canvas-keyboard-response","97","615439","0.0-59.0-0.0-0.0","","790",""," ","[42,220,161,228,140,179,136,43,121,120,35,9,98,82,255,51,249,212,297,89,118,213,94,49,172,19,151,85,6,188,158,286,227,27,293,79,184,152,77,263,196,75,62,295,45,219,222,276,180,194,63,285,176,90,275,103,36,66,110,69,169,61,171,153,223,129,237,266,167,270,195,245,130,258,97,28,193,104,13,187,30,299,162,291,95,29,238,156,32,54,8,106,278,64,284,218,208,114,25,47,280,142,206,59,10,160,294,207,38,96,268,298,166,67,92,78,229,12,135,57,88,7,16,102,186,185,241,292,55,178,224,201,58,100,1,31,250,122,124,210,215,240,226,230,243,144,233,81,99,119,242,271,211,105,236,17,87,101,111,20,190,231,253,41,48,221,141,205,257,145,2,197,143,199,264,23,33,4,15,3,37,84,296,209,192,175,198,26,254,107,86,134,272,269,60,252,125,39,65,159,76,44,46,68,281,216,279,155,174,189,157,177,22,34,170,232,289,288,91,183,138,112,287,274,256,56,200,137,116,214,267,139,239,133,262,148,123,53,109,290,235,21,244,234,165,181,283,217,251,246,14,131,202,248,146,132,259,127,24,182,117,11,260,191,72,115,149,70,18,50,83,80,265,225,261,173,71,277,52,113,204,74,93,168,128,164,273,40,163,203,73,150,5,282,154,126,247,108,147,0]","arrowright","0","11","55","300","[""0080_N0300_K0055_NOCLIQUE"",""0044_N0300_K0055_CLIQUE""]","",""
"","","","","","audio-keyboard-response","98","616019","0.0-59.0-0.0-1.0","","null","audio_feedback/shuffles/shuffle01.mp3","null","","","0","11","55","300","[""0080_N0300_K0055_NOCLIQUE"",""0044_N0300_K0055_CLIQUE""]","",""
"","","","","","canvas-keyboard-response","99","617380","0.0-59.1-0.1-0.1","","1248",""," ","[48,89,54,107,118,46,288,14,23,146,1,97,150,114,202,122,120,15,106,4,127,244,276,289,277,21,253,47,123,267,213,156,161,82,299,259,183,32,293,36,109,172,50,208,121,286,281,9,185,179,29,5,110,70,44,278,216,249,128,24,169,68,180,22,200,282,233,290,30,197,134,74,158,166,239,136,147,103,222,157,92,95,206,151,66,266,198,111,27,85,137,175,72,138,225,64,224,176,193,12,28,210,20,17,125,26,187,258,215,294,250,57,131,63,201,126,186,196,231,112,124,42,34,247,283,153,65,207,261,170,234,264,33,280,199,237,113,295,75,100,287,296,6,139,256,88,269,99,116,212,115,53,45,209,18,260,62,189,182,178,265,188,93,13,257,245,211,141,38,251,60,80,39,87,235,35,77,242,69,55,171,275,51,273,25,191,102,143,43,148,81,31,255,90,8,84,96,162,133,58,83,291,79,152,232,298,86,10,37,173,108,67,16,218,0,246,192,11,159,241,104,177,252,219,164,226,76,119,297,220,129,195,73,194,78,285,240,263,3,284,221,130,142,229,140,184,274,268,101,91,174,160,292,41,271,49,272,163,71,270,203,132,155,248,168,228,2,243,223,165,135,167,59,254,98,7,262,154,52,236,205,214,149,144,105,238,61,217,230,279,94,19,56,181,40,190,204,227,145,117]","arrowright","0","11","55","300","[""0080_N0300_K0055_NOCLIQUE"",""0044_N0300_K0055_CLIQUE""]","",""
"","","","","","audio-keyboard-response","100","617960","0.0-59.1-0.1-1.1","","null","audio_feedback/shuffles/shuffle01.mp3","null","","","0","11","55","300","[""0080_N0300_K0055_NOCLIQUE"",""0044_N0300_K0055_CLIQUE""]","",""
"","","","","","canvas-keyboard-response","101","619802","0.0-59.2-0.2-0.2","","1715",""," ","[299,190,215,251,174,132,49,146,226,75,82,273,178,126,204,214,280,1,210,108,134,286,252,218,11,236,119,104,199,27,15,17,220,51,176,121,278,201,292,0,249,173,62,239,228,46,120,39,152,229,12,254,13,261,100,32,211,142,37,282,24,230,29,172,61,290,90,233,223,167,131,92,267,263,68,169,42,98,36,127,164,168,161,96,87,244,256,253,91,16,238,149,195,157,84,165,66,283,222,291,274,240,34,65,3,242,73,183,170,186,79,231,198,160,55,193,276,71,109,63,110,5,116,47,53,35,107,221,255,59,45,74,72,216,139,163,288,158,162,77,105,234,205,20,285,143,148,295,217,188,58,106,33,21,177,128,112,209,203,192,151,269,78,89,247,102,123,80,122,124,243,208,81,281,137,147,48,38,202,268,88,14,154,197,225,179,83,94,187,117,56,275,153,145,293,181,246,189,260,271,235,7,136,60,207,31,41,114,180,118,50,196,93,144,25,277,141,30,200,101,97,175,138,125,219,265,298,272,133,44,185,115,86,258,159,184,43,95,28,99,194,212,262,206,69,289,130,245,26,67,287,111,57,70,257,227,22,171,294,191,85,264,135,9,76,40,8,241,19,2,270,54,129,250,213,103,4,266,150,237,113,52,64,224,10,182,23,6,140,155,156,259,18,297,279,296,166,248,232,284]","arrowright","0","11","55","300","[""0080_N0300_K0055_NOCLIQUE"",""0044_N0300_K0055_CLIQUE""]","",""
"","","","","","audio-keyboard-response","102","620381","0.0-59.2-0.2-1.2","","null","audio_feedback/shuffles/shuffle01.mp3","null","","","0","11","55","300","[""0080_N0300_K0055_NOCLIQUE"",""0044_N0300_K0055_CLIQUE""]","",""
"","","","","","canvas-keyboard-response","103","623065","0.0-59.3-0.3-0.3","","2577",""," ","[222,43,179,133,175,239,162,137,49,266,271,83,29,197,55,135,108,129,109,200,269,193,47,65,261,190,76,77,243,90,126,297,170,66,156,223,1,230,93,245,138,234,69,32,292,36,22,165,160,14,291,213,279,117,257,240,89,52,56,130,121,134,112,136,118,217,206,115,210,255,208,220,38,4,158,64,172,79,273,54,150,171,280,141,246,46,252,270,173,113,44,5,28,260,265,125,154,187,95,41,140,20,250,295,277,247,226,67,192,215,274,107,53,231,146,120,221,13,139,218,202,40,122,12,299,254,294,147,25,185,168,124,123,236,161,62,290,3,19,276,75,86,203,6,100,293,176,9,15,80,31,60,144,166,74,2,196,59,11,219,268,111,70,26,186,272,216,17,131,103,212,48,51,178,0,205,224,209,199,10,114,94,286,204,102,235,237,227,253,8,262,142,151,159,281,58,73,155,189,184,169,68,71,104,164,256,242,34,81,72,228,105,61,287,225,87,39,97,96,16,21,110,188,57,7,264,148,241,201,258,30,78,82,35,284,63,289,23,251,288,194,238,182,132,106,249,45,145,99,263,177,127,174,153,267,198,180,278,232,207,92,163,116,282,167,98,128,214,119,84,259,181,285,18,152,85,157,233,298,37,101,191,283,296,248,88,229,50,244,91,211,143,195,149,27,33,24,275,42,183]","arrowright","0","11","55","300","[""0080_N0300_K0055_NOCLIQUE"",""0044_N0300_K0055_CLIQUE""]","",""
"","","","","","audio-keyboard-response","104","623642","0.0-59.3-0.3-1.3","","null","audio_feedback/shuffles/shuffle01.mp3","null","","","0","11","55","300","[""0080_N0300_K0055_NOCLIQUE"",""0044_N0300_K0055_CLIQUE""]","",""
"","","","","","canvas-keyboard-response","105","625143","0.0-59.4-0.4-0.4","","1404",""," ","[2,109,212,234,33,246,65,14,207,235,291,241,118,256,67,159,292,115,99,232,244,3,148,57,51,120,205,229,18,169,285,98,276,74,287,204,93,269,293,73,46,174,280,129,250,37,160,278,54,87,247,225,152,157,40,274,105,183,231,91,206,41,59,213,108,243,186,35,56,266,220,71,132,187,216,72,158,25,184,140,191,144,223,76,62,82,127,69,24,47,192,173,283,42,248,218,226,195,100,176,17,188,95,170,90,135,208,70,259,145,251,39,209,178,263,258,4,260,154,200,161,171,88,249,81,177,36,50,150,254,224,79,294,139,147,136,7,245,26,138,146,119,237,277,94,272,117,89,267,236,134,265,31,296,53,202,116,165,10,270,8,61,168,45,63,297,104,164,142,30,279,282,48,64,77,221,11,193,111,286,214,28,78,261,133,194,6,262,121,122,211,102,106,163,198,44,75,34,185,5,19,264,43,113,172,55,137,80,167,252,124,27,228,128,196,103,299,58,281,151,96,32,179,23,222,162,97,180,215,143,21,253,38,84,197,20,123,29,203,60,240,155,101,126,149,107,290,289,255,16,175,68,13,288,217,92,12,298,110,85,52,239,190,275,0,141,66,1,219,15,112,271,227,182,83,199,156,238,295,166,114,201,210,242,125,22,257,131,49,181,153,230,284,268,273,86,9,233,189,130]","arrowright","0","11","55","300","[""0080_N0300_K0055_NOCLIQUE"",""0044_N0300_K0055_CLIQUE""]","",""
"","","","","","audio-keyboard-response","106","625722","0.0-59.4-0.4-1.4","","null","audio_feedback/shuffles/shuffle01.mp3","null","","","0","11","55","300","[""0080_N0300_K0055_NOCLIQUE"",""0044_N0300_K0055_CLIQUE""]","",""
"","","","","","canvas-keyboard-response","107","626627","0.0-59.5-0.5-0.5","","789",""," ","[91,167,64,232,223,32,291,276,82,8,2,34,217,135,42,31,11,21,6,229,7,157,133,248,125,163,89,225,88,182,39,40,110,96,0,271,194,287,202,15,52,268,20,277,294,220,261,176,46,12,121,179,256,138,186,4,33,107,16,3,47,36,45,156,128,265,132,124,22,239,5,38,158,280,249,113,216,148,50,190,19,282,74,146,181,245,290,211,80,37,214,149,81,295,289,246,210,270,62,266,207,227,174,160,198,199,243,140,73,221,150,139,59,177,215,155,237,116,171,286,164,70,260,191,209,284,275,14,136,226,213,272,43,78,23,54,230,278,242,10,169,153,137,122,285,262,53,267,253,288,18,258,51,296,235,293,1,238,254,274,144,264,76,251,90,13,48,87,185,175,212,279,93,193,100,180,240,29,204,299,231,79,241,197,66,114,57,236,9,162,105,41,25,142,120,30,60,99,35,263,188,244,173,103,178,69,208,195,63,130,106,127,154,77,115,298,161,147,269,203,17,26,112,205,222,94,250,117,159,281,200,111,151,292,85,228,297,104,165,273,234,44,172,55,95,61,187,247,166,218,27,184,131,118,108,252,84,28,68,65,75,119,257,219,102,183,123,283,224,101,189,58,259,72,67,145,71,170,86,24,56,97,92,109,98,126,129,168,83,192,233,143,49,206,201,255,152,134,196,141]","arrowright","0","11","55","300","[""0080_N0300_K0055_NOCLIQUE"",""0044_N0300_K0055_CLIQUE""]","",""
"","","","","","audio-keyboard-response","108","627202","0.0-59.5-0.5-1.5","","null","audio_feedback/shuffles/shuffle01.mp3","null","","","0","11","55","300","[""0080_N0300_K0055_NOCLIQUE"",""0044_N0300_K0055_CLIQUE""]","",""
"","","","","","canvas-keyboard-response","109","629725","0.0-59.6-0.6-0.6","","2422",""," ","[13,12,24,194,118,247,185,138,117,177,218,134,171,256,77,243,86,111,109,8,227,81,125,143,277,291,293,161,162,40,270,190,294,148,33,233,290,202,272,78,49,122,57,278,50,97,19,176,241,59,53,88,211,103,123,65,157,92,168,279,208,1,34,258,152,180,276,63,173,2,146,104,288,83,260,7,39,55,221,30,209,264,131,22,165,250,80,62,17,245,26,207,139,273,38,3,145,66,186,184,170,236,196,75,179,28,281,37,266,210,5,116,151,191,35,240,115,299,56,4,204,267,285,163,274,133,283,127,74,197,229,183,271,187,101,164,232,284,255,108,249,96,192,112,158,51,216,58,79,282,242,251,44,82,239,20,298,156,15,257,280,85,254,222,203,217,46,224,160,219,29,136,69,113,262,93,124,100,60,155,201,25,235,234,47,114,153,42,16,154,178,110,228,99,106,132,137,45,237,10,18,126,286,144,212,31,54,41,119,244,32,226,98,120,199,129,36,261,189,0,275,21,72,43,188,269,182,252,166,23,167,223,89,128,135,94,141,71,14,172,248,253,169,225,198,150,159,289,73,149,130,102,140,67,64,220,215,205,68,265,6,259,121,90,263,91,193,287,84,95,70,174,238,292,231,181,11,76,206,268,295,147,230,175,52,214,27,105,297,200,9,296,213,87,48,61,195,142,246,107]","arrowright","0","11","55","300","[""0080_N0300_K0055_NOCLIQUE"",""0044_N0300_K0055_CLIQUE""]","",""
"","","","","","audio-keyboard-response","110","630302","0.0-59.6-0.6-1.6","","null","audio_feedback/shuffles/shuffle01.mp3","null","","","0","11","55","300","[""0080_N0300_K0055_NOCLIQUE"",""0044_N0300_K0055_CLIQUE""]","",""
"","","","","","canvas-keyboard-response","111","631169","0.0-59.7-0.7-0.7","","764","","arrowright","[273,288,235,284,229,241,181,72,85,216,151,148,275,44,263,205,261,218,167,103,171,38,222,54,156,161,240,278,126,155,198,199,56,226,105,255,58,173,77,102,212,297,83,37,227,132,142,24,239,131,32,46,184,1,192,12,189,153,76,282,118,211,110,48,158,252,193,81,145,265,243,287,267,207,249,260,60,250,200,259,186,143,166,49,157,41,129,112,19,107,113,188,98,45,248,251,150,93,137,152,202,94,13,22,231,128,279,80,187,55,165,106,253,79,53,194,66,292,29,57,33,191,89,163,172,75,209,183,99,16,130,204,228,8,121,62,262,293,206,108,15,230,195,289,136,162,82,23,7,290,86,177,114,70,238,122,64,11,43,214,256,276,283,34,14,30,190,61,9,268,233,168,281,95,258,87,257,0,221,100,71,88,295,146,134,272,147,274,21,213,67,50,18,117,4,149,294,39,185,244,291,277,101,63,6,280,73,5,208,125,3,135,232,247,104,42,2,270,215,84,31,52,219,120,138,298,51,140,96,220,237,225,180,201,197,116,10,139,159,109,174,175,264,92,170,59,124,78,182,65,91,242,223,179,20,25,111,236,286,27,90,133,269,40,160,224,119,97,35,115,234,36,285,296,178,123,271,68,217,141,26,246,245,210,266,17,164,74,203,69,28,154,299,127,176,169,144,196,47,254]","arrowright","0","11","55","300","[""0080_N0300_K0055_NOCLIQUE"",""0044_N0300_K0055_CLIQUE""]","","true"
"","","","","","audio-keyboard-response","112","631602","0.0-59.7-0.7-1.7","","null","audio_feedback/right/coin01.mp3","null","","","0","11","55","300","[""0080_N0300_K0055_NOCLIQUE"",""0044_N0300_K0055_CLIQUE""]","",""
"","","","","","canvas-keyboard-response","113","633197","0.0-60.0-0.0-0.0","","1493","","arrowleft","[111,270,53,265,8,84,217,34,276,268,117,96,15,231,162,109,253,238,221,58,198,166,179,260,242,225,110,249,156,93,181,52,297,199,234,100,299,72,125,190,239,64,214,99,92,81,296,4,90,291,192,102,105,282,5,169,189,149,145,277,267,138,235,30,49,31,223,170,165,173,83,163,126,279,229,120,248,220,222,293,61,208,119,236,107,289,101,42,275,134,188,161,85,128,76,29,240,241,219,19,44,127,26,103,146,292,37,286,108,147,184,195,121,176,71,167,151,215,40,135,113,202,288,139,21,168,35,186,246,94,130,32,144,258,50,255,178,27,206,36,245,0,9,122,79,264,148,261,204,262,133,115,75,48,104,185,82,118,290,294,123,157,89,187,39,284,23,251,59,140,295,91,3,250,6,87,154,153,1,159,38,172,16,254,183,54,25,60,10,112,194,180,114,57,160,175,272,65,14,271,13,124,33,209,70,136,243,66,2,132,155,212,232,95,73,233,203,56,227,218,129,22,226,164,12,244,55,20,106,177,63,273,247,142,69,68,7,278,285,211,143,263,196,45,274,43,197,158,47,269,88,17,193,201,62,131,200,24,259,77,266,207,11,171,18,210,213,67,51,78,80,41,205,216,174,230,28,141,97,191,280,116,150,256,182,46,283,152,298,86,228,287,98,137,237,74,257,224,252,281]","arrowleft","0","12","50","300","[""0078_N0300_K0050_CLIQUE"",""0073_N0300_K0050_NOCLIQUE""]","","true"
"","","","","","audio-keyboard-response","114","633621","0.0-60.0-0.0-1.0","","null","audio_feedback/right/coin01.mp3","null","","","0","12","50","300","[""0078_N0300_K0050_CLIQUE"",""0073_N0300_K0050_NOCLIQUE""]","",""
"","","","","","canvas-keyboard-response","115","634553","0.0-61.0-0.0-0.0","","820",""," ","[4,199,96,69,149,228,219,20,268,145,270,174,283,277,61,171,245,84,256,100,276,112,179,162,175,194,203,86,10,12,146,183,215,103,214,158,76,231,121,51,123,44,18,262,63,269,182,192,71,299,289,9,225,287,106,28,122,142,129,290,152,230,53,188,166,120,93,52,23,186,132,91,272,15,197,39,278,118,7,191,95,99,282,164,59,246,274,116,143,25,134,237,180,193,113,21,29,26,130,22,279,64,115,0,173,266,62,198,267,105,284,98,210,201,295,181,298,153,111,144,75,55,247,178,163,36,78,204,159,66,281,261,259,124,133,229,97,38,49,13,291,5,56,209,161,265,90,19,253,8,46,169,165,114,235,205,45,150,243,244,241,234,117,170,172,135,255,220,40,258,119,141,140,155,292,233,74,131,211,239,70,293,27,11,73,14,125,200,17,252,217,238,157,72,58,168,67,57,286,189,216,104,236,294,88,50,81,85,89,33,1,251,110,213,138,296,280,257,24,102,128,47,271,83,177,136,139,127,249,6,254,101,54,31,109,68,92,87,154,226,248,167,65,156,240,32,41,260,79,273,80,151,227,48,126,207,264,60,94,196,218,288,185,176,184,35,43,206,42,37,208,223,82,160,147,212,148,2,30,297,3,232,107,108,221,187,242,195,16,224,77,190,285,222,275,263,137,34,202,250]","arrowright","0","13","50","300","[""0057_N0300_K0050_NOCLIQUE"",""0047_N0300_K0050_CLIQUE""]","",""
"","","","","","audio-keyboard-response","116","635122","0.0-61.0-0.0-1.0","","null","audio_feedback/shuffles/shuffle01.mp3","null","","","0","13","50","300","[""0057_N0300_K0050_NOCLIQUE"",""0047_N0300_K0050_CLIQUE""]","",""
"","","","","","canvas-keyboard-response","117","637072","0.0-61.1-0.1-0.1","","1845",""," ","[149,56,74,96,103,132,268,203,192,125,19,211,274,151,126,207,11,93,35,267,38,177,141,178,200,53,194,109,261,75,249,269,76,174,161,214,254,99,133,5,245,33,64,186,248,57,123,147,122,20,265,24,239,189,205,276,43,41,3,228,118,266,191,84,131,88,229,243,0,219,90,233,260,112,226,144,152,17,187,26,253,236,54,171,51,167,255,258,25,92,291,121,135,270,12,217,102,285,15,283,299,231,281,272,110,13,108,232,73,31,182,288,162,259,77,67,224,290,21,27,134,247,66,280,143,208,127,286,29,60,115,116,169,284,251,157,206,185,159,10,145,98,130,264,42,22,213,202,153,257,128,6,30,256,65,209,95,195,1,49,86,14,137,225,179,28,279,136,106,97,230,210,100,139,113,173,85,78,117,87,218,81,155,89,91,94,2,45,18,176,140,234,222,201,262,158,44,72,220,287,32,212,111,238,58,188,114,252,164,282,184,223,37,146,160,47,68,250,83,197,204,23,278,36,199,69,52,241,150,80,275,71,215,244,7,40,119,82,70,196,216,237,172,59,50,240,154,166,190,63,183,163,221,148,271,193,55,4,277,235,48,156,62,170,107,263,79,168,120,227,9,293,181,46,101,297,298,34,39,16,175,104,296,138,129,295,124,105,289,180,142,242,165,294,8,246,292,198,273,61]","arrowright","0","13","50","300","[""0057_N0300_K0050_NOCLIQUE"",""0047_N0300_K0050_CLIQUE""]","",""
"","","","","","audio-keyboard-response","118","637642","0.0-61.1-0.1-1.1","","null","audio_feedback/shuffles/shuffle01.mp3","null","","","0","13","50","300","[""0057_N0300_K0050_NOCLIQUE"",""0047_N0300_K0050_CLIQUE""]","",""
"","","","","","canvas-keyboard-response","119","638432","0.0-61.2-0.2-0.2","","685",""," ","[163,299,220,195,87,61,229,106,172,175,101,76,272,94,217,224,152,249,85,167,219,112,33,69,40,13,8,111,86,42,41,285,178,143,255,35,75,26,258,268,203,284,223,287,277,114,28,221,288,254,193,44,29,230,70,92,191,2,123,184,119,104,79,145,290,11,139,140,188,20,150,204,39,251,142,292,210,168,10,246,187,174,267,225,164,265,281,271,30,137,248,124,95,50,54,100,297,25,192,159,177,215,108,231,207,62,14,72,47,57,196,18,239,208,55,291,65,202,144,103,74,31,294,161,53,51,64,22,298,170,182,141,32,21,116,23,81,247,189,243,135,274,263,162,147,88,148,1,238,173,0,201,73,241,180,102,132,245,198,37,176,194,107,276,78,82,155,15,232,185,237,275,169,262,236,273,126,127,235,67,179,71,261,118,197,181,260,133,97,158,125,90,68,253,43,110,7,34,49,121,80,16,91,270,171,278,257,115,93,222,205,242,52,244,36,216,153,264,209,27,250,233,156,109,190,252,282,256,45,56,234,151,218,214,63,5,120,200,128,283,19,160,6,9,24,149,269,206,60,295,99,98,105,138,211,183,296,122,279,66,157,286,226,46,131,146,77,186,136,130,227,165,89,58,266,134,12,240,293,259,4,289,199,129,38,166,113,280,117,83,213,17,154,3,212,96,228,48,59,84]","arrowright","0","13","50","300","[""0057_N0300_K0050_NOCLIQUE"",""0047_N0300_K0050_CLIQUE""]","",""
"","","","","","audio-keyboard-response","120","639001","0.0-61.2-0.2-1.2","","null","audio_feedback/shuffles/shuffle01.mp3","null","","","0","13","50","300","[""0057_N0300_K0050_NOCLIQUE"",""0047_N0300_K0050_CLIQUE""]","",""
"","","","","","canvas-keyboard-response","121","639762","0.0-61.3-0.3-0.3","","651","","arrowright","[168,171,285,128,124,123,280,219,209,237,239,118,108,159,26,65,289,191,134,174,114,147,261,277,282,125,63,105,19,93,271,177,199,15,210,27,231,268,4,151,224,256,276,141,236,262,92,274,206,107,91,69,117,83,130,185,88,109,1,28,270,14,61,240,80,51,10,198,202,47,17,286,132,266,182,98,235,172,76,95,221,145,251,193,33,154,37,275,212,136,234,139,66,113,176,233,74,173,218,112,246,181,161,140,55,149,184,163,45,6,232,287,188,296,207,226,247,273,257,250,77,167,120,62,36,58,164,9,38,253,179,243,111,133,227,59,39,241,106,217,216,156,2,78,97,264,291,252,200,143,22,64,297,57,267,82,197,60,205,129,13,87,160,138,295,222,5,94,135,20,86,11,238,279,32,175,35,12,244,190,192,127,70,100,42,183,110,24,52,220,34,115,89,73,155,25,104,213,150,281,180,153,131,170,211,67,40,195,265,137,48,229,85,54,249,245,201,72,102,3,215,71,46,165,84,292,242,178,30,288,162,8,23,214,7,158,259,119,278,146,196,16,152,255,68,208,44,79,223,194,122,75,258,294,189,186,203,263,284,81,166,41,157,283,121,144,29,101,99,272,31,248,269,260,298,96,116,126,103,299,169,228,21,187,230,204,43,290,0,225,50,293,56,49,53,142,18,90,254,148]","arrowright","0","13","50","300","[""0057_N0300_K0050_NOCLIQUE"",""0047_N0300_K0050_CLIQUE""]","","true"
"","","","","","audio-keyboard-response","122","640182","0.0-61.3-0.3-1.3","","null","audio_feedback/right/coin01.mp3","null","","","0","13","50","300","[""0057_N0300_K0050_NOCLIQUE"",""0047_N0300_K0050_CLIQUE""]","",""
"","","","","","canvas-keyboard-response","123","641258","0.0-62.0-0.0-0.0","","961",""," ","[179,59,278,223,224,34,186,181,149,226,141,134,97,240,22,242,289,195,270,232,3,253,56,269,109,52,203,61,80,239,48,287,20,297,145,207,126,155,88,115,94,274,221,201,192,191,206,38,219,217,1,160,271,45,165,234,205,27,158,214,30,264,93,193,98,65,250,127,142,150,199,231,212,290,263,51,183,189,118,238,218,252,296,173,26,147,279,277,208,105,39,91,7,154,71,291,177,174,16,144,171,64,198,21,46,69,78,5,175,70,77,47,188,102,157,163,4,275,85,0,10,11,140,131,281,299,247,266,29,53,243,67,49,210,227,31,106,187,75,119,156,294,236,184,6,108,162,136,116,229,273,44,216,225,272,95,211,130,125,143,137,230,72,164,112,235,42,148,103,101,13,123,18,202,213,62,132,76,25,249,284,12,209,257,86,14,222,9,89,40,36,204,283,33,66,139,233,255,124,228,32,298,2,280,81,176,92,129,288,68,74,17,41,54,55,24,57,96,260,107,241,50,246,190,286,261,122,268,87,276,293,251,43,23,159,63,292,60,35,185,248,133,19,220,256,161,285,262,172,128,146,99,167,151,90,254,237,82,73,153,170,79,114,180,83,84,258,267,194,121,104,245,135,15,200,100,265,28,182,58,168,8,197,120,166,259,169,215,282,111,178,113,117,152,110,295,37,138,196,244]","arrowleft","0","14","45","300","[""0049_N0300_K0045_CLIQUE"",""0032_N0300_K0045_NOCLIQUE""]","",""
"","","","","","audio-keyboard-response","124","641842","0.0-62.0-0.0-1.0","","null","audio_feedback/shuffles/shuffle01.mp3","null","","","0","14","45","300","[""0049_N0300_K0045_CLIQUE"",""0032_N0300_K0045_NOCLIQUE""]","",""
"","","","","","canvas-keyboard-response","125","643311","0.0-62.1-0.1-0.1","","1377",""," ","[146,190,84,57,122,156,250,77,141,272,210,52,225,283,4,241,53,95,47,218,39,275,154,289,71,294,24,148,173,98,8,49,140,246,55,254,26,266,134,118,34,245,247,162,230,170,166,76,133,131,12,264,168,25,205,104,157,70,94,292,238,36,219,73,209,187,15,169,68,40,212,54,293,234,178,147,121,257,280,29,46,279,138,5,184,278,115,16,144,233,203,192,105,66,296,236,222,208,244,226,287,228,20,284,199,267,92,10,33,79,277,7,62,99,171,81,194,206,227,58,196,204,163,67,90,197,143,125,181,82,299,251,285,198,176,102,282,120,116,0,263,59,63,207,179,97,101,260,239,214,265,96,80,281,111,152,237,191,41,51,200,211,108,172,3,298,248,65,224,56,87,38,113,177,18,13,61,153,160,106,189,130,220,35,188,158,240,256,217,213,145,69,42,175,259,27,164,85,110,161,231,249,201,255,276,297,23,50,60,14,151,232,32,119,109,48,128,221,19,74,270,9,139,37,103,202,91,142,252,75,30,269,117,182,78,268,21,137,11,261,149,72,223,150,127,22,45,180,64,242,165,93,83,185,271,262,235,2,186,129,6,273,114,288,123,100,126,215,195,107,253,44,135,43,132,295,258,216,193,124,155,17,274,286,88,183,86,1,174,290,136,31,112,159,28,229,291,89,243,167]","arrowleft","0","14","45","300","[""0049_N0300_K0045_CLIQUE"",""0032_N0300_K0045_NOCLIQUE""]","",""
"","","","","","audio-keyboard-response","126","643882","0.0-62.1-0.1-1.1","","null","audio_feedback/shuffles/shuffle01.mp3","null","","","0","14","45","300","[""0049_N0300_K0045_CLIQUE"",""0032_N0300_K0045_NOCLIQUE""]","",""
"","","","","","canvas-keyboard-response","127","645319","0.0-62.2-0.2-0.2","","1344",""," ","[290,116,142,230,263,24,289,60,222,203,218,229,73,110,167,12,11,195,0,216,103,34,99,4,27,258,52,257,296,280,96,177,21,278,131,149,242,214,189,266,243,293,107,183,252,76,270,197,43,112,158,127,207,277,178,88,247,23,140,48,20,33,135,168,250,17,133,251,118,115,113,297,281,274,46,89,179,30,10,6,151,282,132,143,106,233,102,286,212,59,256,54,245,176,172,109,78,80,32,279,45,186,192,184,117,139,50,193,66,210,171,227,72,67,228,79,18,268,25,40,187,83,37,173,261,292,254,138,153,224,202,169,175,165,220,209,85,232,134,208,164,39,264,152,55,206,246,28,94,61,255,93,299,84,95,174,101,283,7,35,70,63,51,221,122,15,74,97,5,201,234,82,130,147,3,141,213,136,284,225,69,92,204,44,128,2,260,119,42,41,199,248,108,137,26,235,226,236,285,49,150,180,121,47,238,253,100,181,162,120,129,53,31,271,276,75,57,188,19,36,90,62,16,211,217,98,267,185,237,191,81,77,111,161,14,65,91,265,144,205,166,145,288,287,298,154,64,124,114,8,29,87,190,22,259,157,160,38,244,269,125,273,223,104,240,295,71,159,249,262,241,170,68,148,123,215,146,156,272,200,182,155,56,231,13,58,126,9,294,86,196,275,163,105,194,291,219,198,1,239]","arrowleft","0","14","45","300","[""0049_N0300_K0045_CLIQUE"",""0032_N0300_K0045_NOCLIQUE""]","",""
"","","","","","audio-keyboard-response","128","645901","0.0-62.2-0.2-1.2","","null","audio_feedback/shuffles/shuffle01.mp3","null","","","0","14","45","300","[""0049_N0300_K0045_CLIQUE"",""0032_N0300_K0045_NOCLIQUE""]","",""
"","","","","","canvas-keyboard-response","129","647139","0.0-62.3-0.3-0.3","","1121","","arrowright","[212,207,221,108,49,263,126,37,201,229,125,65,277,77,206,223,237,31,290,116,195,105,148,9,96,139,124,211,137,271,240,48,36,215,264,276,193,242,166,15,5,53,54,4,76,226,280,2,293,238,141,152,159,150,250,61,210,205,218,255,176,254,245,93,91,196,243,222,120,216,106,132,60,28,282,0,259,155,175,248,123,297,246,285,55,80,180,129,298,265,40,227,30,109,64,81,25,202,204,209,244,220,169,288,19,20,231,156,145,142,161,187,22,16,136,115,107,224,197,260,104,47,287,239,10,252,103,114,214,198,157,8,281,46,110,13,173,178,168,130,26,79,179,203,98,56,52,58,138,78,143,44,241,97,177,128,192,153,228,284,184,225,33,71,18,63,219,233,182,112,122,32,249,75,72,83,144,86,295,87,256,294,273,247,230,164,286,133,42,253,70,274,190,14,134,17,100,291,149,217,119,90,29,275,262,23,6,140,7,299,88,236,191,269,183,185,102,66,208,68,95,174,154,278,158,186,268,99,11,234,12,118,27,296,146,267,163,57,235,59,94,89,171,3,167,50,213,135,45,147,289,200,127,199,162,266,34,92,170,151,113,101,62,24,35,131,111,172,251,188,121,74,292,194,272,270,39,84,21,165,38,189,67,181,73,41,1,85,82,261,283,43,232,279,160,51,117,258,257,69]","arrowleft","0","14","45","300","[""0049_N0300_K0045_CLIQUE"",""0032_N0300_K0045_NOCLIQUE""]","","false"
"","","","","","audio-keyboard-response","130","647742","0.0-62.3-0.3-1.3","","null","audio_feedback/wrong/error01.mp3","null","","","0","14","45","300","[""0049_N0300_K0045_CLIQUE"",""0032_N0300_K0045_NOCLIQUE""]","",""
"","","","","","canvas-keyboard-response","131","648726","0.0-63.0-0.0-0.0","","863","","arrowleft","[94,145,18,17,21,290,174,31,222,42,63,221,7,161,110,93,78,82,171,218,160,25,38,210,184,133,262,69,282,158,298,113,280,177,235,59,252,233,190,79,30,114,116,151,216,86,52,294,100,9,129,187,138,142,134,85,47,146,194,266,165,203,105,80,220,206,269,244,54,227,126,83,247,240,170,274,27,267,150,236,125,293,92,127,5,97,263,49,270,205,13,201,121,0,155,217,178,164,153,213,64,272,8,123,232,163,281,131,167,61,259,237,4,202,239,149,219,37,71,45,76,288,284,46,90,212,128,207,99,132,208,277,60,55,70,22,255,56,95,68,119,225,279,200,276,91,51,40,195,173,72,223,147,265,246,180,89,73,188,296,115,124,156,250,98,242,88,299,24,189,15,186,44,192,117,182,140,50,41,214,2,144,3,289,268,248,152,35,196,1,62,287,122,231,29,292,48,43,273,20,16,87,28,286,275,278,249,109,176,130,166,285,33,215,264,183,53,181,135,104,198,23,112,39,148,197,118,209,58,108,228,295,77,36,245,254,159,26,143,169,154,179,271,74,193,103,185,84,283,204,101,141,120,81,260,258,257,238,136,19,32,139,168,211,96,234,65,102,224,57,66,157,256,226,107,6,11,14,241,229,34,243,137,191,251,75,111,230,172,106,291,253,10,261,162,12,175,199,297,67]","arrowleft","0","15","45","300","[""0079_N0300_K0045_CLIQUE"",""0064_N0300_K0045_NOCLIQUE""]","","true"
"","","","","","audio-keyboard-response","132","649142","0.0-63.0-0.0-1.0","","null","audio_feedback/right/coin01.mp3","null","","","0","15","45","300","[""0079_N0300_K0045_CLIQUE"",""0064_N0300_K0045_NOCLIQUE""]","",""
"","","","","","canvas-keyboard-response","133","650310","0.0-64.0-0.0-0.0","","1060","","arrowleft","[92,72,157,160,229,124,219,110,51,63,235,126,286,268,30,7,116,159,216,14,285,71,18,1,221,49,218,21,164,143,64,206,283,279,89,289,149,62,241,257,117,222,112,224,13,113,100,223,204,122,274,24,255,293,132,201,272,248,266,9,153,278,205,236,277,119,213,264,253,36,84,61,28,41,96,197,202,169,137,262,198,237,270,231,144,226,187,23,260,161,52,58,196,82,280,86,271,87,297,269,108,53,252,294,182,246,152,194,244,79,47,288,295,133,43,10,27,26,140,6,249,111,32,258,57,183,50,25,172,240,170,93,220,243,282,121,95,3,60,16,91,8,250,99,104,215,168,217,97,239,265,296,11,129,292,186,127,200,150,233,225,35,175,55,147,106,80,298,193,19,234,210,242,299,176,38,120,192,228,158,173,209,136,145,56,251,130,139,2,174,22,185,37,267,207,275,211,276,291,177,180,45,103,67,165,59,88,5,142,199,131,125,15,190,227,44,54,179,105,230,166,189,74,254,75,78,191,245,273,138,68,163,69,102,115,261,90,29,101,256,195,263,181,247,40,238,155,39,162,0,114,146,4,203,171,33,184,85,156,214,76,208,77,70,31,212,232,123,167,259,109,17,12,178,188,46,281,20,151,284,98,81,42,128,154,107,290,118,65,135,94,148,83,34,48,134,141,287,66,73]","arrowright","0","16","40","300","[""0027_N0300_K0040_NOCLIQUE"",""0095_N0300_K0040_CLIQUE""]","","false"
"","","","","","audio-keyboard-response","134","650902","0.0-64.0-0.0-1.0","","null","audio_feedback/wrong/error01.mp3","null","","","0","16","40","300","[""0027_N0300_K0040_NOCLIQUE"",""0095_N0300_K0040_CLIQUE""]","",""
"","","","","","canvas-keyboard-response","135","652246","0.0-65.0-0.0-0.0","","1231",""," ","[112,116,144,53,130,138,296,84,256,252,187,238,165,236,248,290,175,85,64,69,109,227,176,36,148,195,136,224,47,246,29,261,125,211,253,147,21,205,241,284,106,230,250,294,297,134,19,82,27,231,104,102,190,33,218,257,143,270,254,173,200,92,164,100,77,243,3,76,208,178,295,239,169,217,24,192,264,271,146,191,228,247,273,201,22,149,127,93,56,206,113,234,171,154,63,156,172,96,135,11,37,44,105,62,108,83,8,258,260,277,293,60,170,38,268,151,222,225,182,50,66,52,13,7,49,280,177,265,240,181,128,95,45,75,12,41,203,141,81,183,6,139,67,168,162,186,94,237,57,119,158,193,40,288,223,212,98,282,189,266,289,73,161,55,209,145,163,32,215,79,88,25,23,275,43,9,97,188,124,110,276,46,137,114,115,174,232,216,153,61,197,299,142,286,140,155,68,229,86,159,89,70,17,194,1,131,180,213,34,210,285,30,126,196,198,259,80,167,65,10,179,31,249,129,28,267,91,157,72,235,207,219,263,101,287,281,123,0,51,204,35,99,121,2,279,185,107,39,242,15,4,255,26,18,48,74,120,251,150,122,272,214,292,90,278,226,262,16,71,291,202,166,269,5,274,221,244,199,160,245,133,152,118,298,220,87,78,103,42,14,117,58,59,54,132,283,20,184,111,233]","arrowleft","0","17","40","300","[""0080_N0300_K0040_CLIQUE"",""0040_N0300_K0040_NOCLIQUE""]","",""
"","","","","","audio-keyboard-response","136","652822","0.0-65.0-0.0-1.0","","null","audio_feedback/shuffles/shuffle01.mp3","null","","","0","17","40","300","[""0080_N0300_K0040_CLIQUE"",""0040_N0300_K0040_NOCLIQUE""]","",""
"","","","","","canvas-keyboard-response","137","654282","0.0-65.1-0.1-0.1","","1349",""," ","[61,14,182,2,242,128,296,40,30,259,178,275,157,36,35,238,127,204,190,24,73,285,208,288,263,201,87,147,23,96,218,200,4,159,18,136,245,25,243,100,117,284,152,260,122,257,103,198,192,239,230,206,80,196,77,241,68,174,99,250,154,129,124,268,1,144,69,20,235,26,213,120,115,82,97,184,224,55,223,118,57,58,48,294,71,139,172,266,89,160,282,52,91,143,254,146,101,50,265,280,293,19,94,272,149,135,13,131,34,121,158,232,215,179,31,166,126,62,145,240,63,217,49,64,270,141,81,276,231,140,277,183,47,220,116,54,283,12,74,33,28,132,8,193,59,27,246,225,290,44,109,227,249,202,110,226,10,153,111,253,216,22,134,203,162,210,29,155,214,237,45,11,267,78,291,46,256,17,85,95,165,164,39,219,255,112,130,248,180,137,108,76,161,258,187,199,209,123,42,195,292,75,72,138,151,163,114,7,189,66,271,281,56,205,51,212,113,289,222,168,38,171,169,264,228,70,88,142,173,252,148,86,133,170,211,197,9,65,107,5,298,236,299,15,79,176,286,269,234,125,207,41,150,191,221,3,106,60,278,43,0,185,279,295,251,175,37,6,233,181,53,287,119,261,262,247,167,194,188,16,32,156,104,84,273,67,102,98,244,297,274,105,21,83,177,93,92,90,229,186]","arrowleft","0","17","40","300","[""0080_N0300_K0040_CLIQUE"",""0040_N0300_K0040_NOCLIQUE""]","",""
"","","","","","audio-keyboard-response","138","654862","0.0-65.1-0.1-1.1","","null","audio_feedback/shuffles/shuffle01.mp3","null","","","0","17","40","300","[""0080_N0300_K0040_CLIQUE"",""0040_N0300_K0040_NOCLIQUE""]","",""
"","","","","","canvas-keyboard-response","139","657537","0.0-65.2-0.2-0.2","","2561",""," ","[0,5,246,240,48,142,198,149,159,65,82,49,284,39,69,80,62,45,72,154,230,235,200,170,249,244,11,99,138,150,224,268,28,232,208,270,118,3,202,223,20,167,201,73,110,231,180,243,29,89,146,192,103,10,165,140,272,253,161,19,197,42,289,179,25,107,31,123,59,136,84,164,177,210,290,278,190,79,213,239,287,78,102,237,120,166,101,35,259,77,225,68,137,255,229,139,261,262,67,254,183,218,92,234,15,269,247,34,277,276,90,133,94,37,147,106,148,209,282,83,70,174,71,55,130,153,227,9,283,216,168,66,115,191,176,96,295,157,228,258,1,87,206,238,58,163,175,134,60,81,8,27,212,104,173,265,112,111,38,162,182,113,285,23,74,281,186,61,293,4,226,245,116,279,114,275,248,125,205,236,13,129,76,17,158,95,273,188,75,18,185,88,24,128,54,22,294,145,105,204,178,126,135,256,252,193,221,141,196,172,263,132,97,169,184,297,242,241,30,222,144,117,280,131,217,86,260,14,63,85,56,215,195,264,156,52,93,44,288,211,2,299,151,189,291,220,26,181,40,50,214,207,194,122,257,32,98,296,250,266,187,100,33,46,271,155,53,160,203,12,21,16,91,199,119,127,51,41,298,251,274,219,171,152,6,124,286,7,109,292,64,57,143,47,121,233,43,108,267,36]","arrowleft","0","17","40","300","[""0080_N0300_K0040_CLIQUE"",""0040_N0300_K0040_NOCLIQUE""]","",""
"","","","","","audio-keyboard-response","140","658122","0.0-65.2-0.2-1.2","","null","audio_feedback/shuffles/shuffle01.mp3","null","","","0","17","40","300","[""0080_N0300_K0040_CLIQUE"",""0040_N0300_K0040_NOCLIQUE""]","",""
"","","","","","canvas-keyboard-response","141","659420","0.0-65.3-0.3-0.3","","1188","","arrowleft","[57,97,115,31,77,64,157,267,82,38,210,145,19,98,48,224,299,148,128,22,207,204,4,107,87,24,161,105,173,177,125,67,231,257,89,239,69,61,15,111,294,199,202,255,200,209,83,80,102,28,81,66,187,23,119,168,112,39,79,212,183,232,35,101,141,45,27,292,99,249,279,280,233,169,110,218,46,84,253,104,297,293,146,269,109,151,149,124,215,59,227,26,120,126,5,266,30,241,158,9,165,121,7,250,167,163,53,18,13,170,285,188,85,240,290,63,78,295,225,160,113,298,258,281,288,43,114,11,55,93,91,217,245,229,205,216,244,29,226,263,44,130,166,193,127,238,88,86,185,242,136,174,194,3,51,20,131,265,122,10,251,1,190,54,144,139,135,37,33,73,291,96,282,246,271,0,180,52,25,176,2,262,175,289,236,182,41,189,214,58,14,275,296,179,272,103,50,117,211,150,171,274,220,133,260,186,248,49,228,71,221,106,16,6,17,273,118,132,143,219,243,21,12,223,40,153,36,138,68,235,56,74,155,108,278,65,159,8,203,162,247,234,254,206,184,142,129,287,178,195,94,137,123,256,270,72,261,268,276,156,147,191,181,100,47,284,152,192,60,198,208,252,222,62,95,283,164,286,277,70,230,172,76,140,42,134,154,213,32,75,201,197,196,264,259,92,237,34,90,116]","arrowleft","0","17","40","300","[""0080_N0300_K0040_CLIQUE"",""0040_N0300_K0040_NOCLIQUE""]","","true"
"","","","","","audio-keyboard-response","142","659840","0.0-65.3-0.3-1.3","","null","audio_feedback/right/coin01.mp3","null","","","0","17","40","300","[""0080_N0300_K0040_CLIQUE"",""0040_N0300_K0040_NOCLIQUE""]","",""
"","","","","","canvas-keyboard-response","143","660792","0.0-66.0-0.0-0.0","","846",""," ","[298,204,92,108,81,224,208,272,220,122,197,145,75,60,124,53,295,282,162,232,280,86,106,174,32,99,251,194,247,15,134,40,166,33,161,214,138,165,6,36,63,141,277,173,170,250,97,206,289,48,213,291,102,262,179,172,212,149,171,77,201,90,104,152,185,47,0,45,76,150,184,288,114,137,270,50,17,260,292,294,66,231,115,143,127,153,119,84,176,59,101,216,25,11,85,237,89,257,62,189,130,24,128,278,4,69,110,95,255,140,100,267,217,146,228,159,42,3,293,190,187,107,8,35,80,269,51,265,200,296,68,156,193,125,168,113,112,249,111,234,129,46,56,44,121,259,236,65,195,248,209,96,58,268,273,246,245,82,271,12,183,37,136,207,258,118,2,192,91,72,155,203,131,158,252,276,64,74,123,253,227,79,10,226,154,21,239,34,55,177,61,88,144,151,256,230,5,87,133,266,126,263,198,275,70,120,98,1,290,167,169,235,39,157,147,83,180,244,26,218,279,31,286,142,29,103,20,254,27,225,38,297,41,164,93,9,30,109,78,287,215,22,67,196,54,264,243,14,274,186,182,28,57,139,299,148,135,18,242,223,222,240,49,284,117,205,283,181,233,188,116,211,199,73,238,210,175,132,219,19,163,13,52,191,105,229,178,43,160,23,221,241,281,7,261,16,94,202,285,71]","arrowleft","0","18","35","300","[""0073_N0300_K0035_CLIQUE"",""0065_N0300_K0035_NOCLIQUE""]","",""
"","","","","","audio-keyboard-response","144","661362","0.0-66.0-0.0-1.0","","null","audio_feedback/shuffles/shuffle01.mp3","null","","","0","18","35","300","[""0073_N0300_K0035_CLIQUE"",""0065_N0300_K0035_NOCLIQUE""]","",""
"","","","","","canvas-keyboard-response","145","662424","0.0-66.1-0.1-0.1","","950",""," ","[183,156,209,82,219,90,153,101,208,37,196,217,95,9,174,248,195,5,286,167,149,282,299,20,184,139,129,117,224,33,152,189,89,293,53,103,203,6,118,54,133,113,176,120,23,177,171,278,125,220,205,31,267,233,143,79,221,255,3,148,30,92,190,164,240,253,264,226,11,62,199,83,181,272,216,99,228,29,71,52,246,86,93,67,297,182,279,213,258,65,202,17,247,275,38,22,123,25,106,104,91,252,271,269,1,35,170,87,244,206,81,105,277,238,57,121,88,186,96,166,44,284,32,45,66,268,98,69,193,162,291,180,142,80,288,112,296,270,136,249,290,144,2,289,280,250,27,114,94,145,212,126,173,232,21,77,256,72,56,36,18,127,259,100,151,4,50,172,137,187,242,159,116,122,135,234,15,178,97,43,19,161,236,110,131,58,115,68,218,47,260,146,63,295,141,132,211,160,281,214,46,261,245,169,179,0,188,154,61,138,84,59,237,28,157,274,235,241,42,163,119,225,165,10,192,201,266,198,75,185,292,194,229,73,78,13,257,109,64,8,200,191,197,285,175,298,243,14,124,230,74,102,227,223,26,287,128,251,294,239,40,204,48,263,16,51,283,70,39,7,34,215,24,55,140,108,76,150,49,41,265,60,254,107,147,158,111,168,262,207,273,276,130,210,85,134,231,155,12,222]","arrowleft","0","18","35","300","[""0073_N0300_K0035_CLIQUE"",""0065_N0300_K0035_NOCLIQUE""]","",""
"","","","","","audio-keyboard-response","146","663002","0.0-66.1-0.1-1.1","","null","audio_feedback/shuffles/shuffle01.mp3","null","","","0","18","35","300","[""0073_N0300_K0035_CLIQUE"",""0065_N0300_K0035_NOCLIQUE""]","",""
"","","","","","canvas-keyboard-response","147","664935","0.0-66.2-0.2-0.2","","1828",""," ","[286,177,78,85,200,18,230,52,284,53,278,269,145,46,62,49,176,191,143,237,271,196,116,108,174,171,159,109,267,154,118,128,192,182,101,184,2,202,24,36,126,51,74,251,113,188,149,57,161,50,218,104,37,6,48,64,259,189,252,287,156,194,152,96,66,12,282,105,94,233,290,67,276,17,292,30,39,40,124,103,80,127,214,197,123,158,220,170,163,166,140,238,167,240,0,193,277,242,222,289,243,61,221,72,198,131,219,7,136,99,68,268,231,206,296,32,293,283,208,121,157,151,256,21,179,79,273,4,281,261,97,14,120,93,1,165,89,265,8,76,71,95,44,132,29,87,260,150,25,88,299,164,59,5,70,91,181,294,27,144,106,253,148,229,92,125,216,34,245,285,102,122,22,162,43,187,117,58,295,257,250,195,275,155,60,175,209,137,180,111,26,83,213,138,11,244,203,297,130,173,54,228,190,248,254,224,280,13,16,235,153,56,211,33,160,47,212,168,270,45,110,112,223,147,20,262,172,226,139,234,41,129,178,115,100,119,232,134,249,38,279,90,9,98,266,82,77,247,263,107,141,42,114,236,23,84,246,15,210,255,183,274,135,169,185,35,272,225,204,69,81,65,63,205,10,291,201,241,55,19,28,31,215,227,86,142,298,186,258,288,264,133,207,199,146,75,73,239,217,3]","arrowleft","0","18","35","300","[""0073_N0300_K0035_CLIQUE"",""0065_N0300_K0035_NOCLIQUE""]","",""
"","","","","","audio-keyboard-response","148","665522","0.0-66.2-0.2-1.2","","null","audio_feedback/shuffles/shuffle01.mp3","null","","","0","18","35","300","[""0073_N0300_K0035_CLIQUE"",""0065_N0300_K0035_NOCLIQUE""]","",""
"","","","","","canvas-keyboard-response","149","667003","0.0-66.3-0.3-0.3","","1387","","arrowleft","[1,63,150,259,235,87,176,202,215,290,100,233,190,32,227,125,47,151,62,279,149,175,71,18,289,246,36,38,145,82,179,249,147,162,230,76,232,53,199,285,208,297,112,229,210,198,128,28,107,286,30,122,68,31,46,287,25,67,158,131,113,93,274,15,213,99,16,258,22,170,77,64,165,206,45,78,241,288,167,240,132,57,218,283,105,6,42,166,253,143,221,34,130,268,39,89,136,141,153,5,269,196,8,37,85,192,86,138,195,224,248,135,193,266,110,66,61,255,262,41,7,161,173,180,11,295,174,20,58,73,97,282,220,212,252,160,102,27,231,264,10,154,94,152,184,164,91,103,186,292,33,121,96,54,203,142,172,146,183,3,52,4,12,134,116,239,50,281,251,209,72,129,123,291,21,23,217,144,106,207,247,267,163,117,155,187,182,74,104,296,293,299,109,270,243,171,115,238,111,24,188,197,126,211,244,2,19,260,225,55,201,257,17,276,108,185,48,26,40,159,219,278,168,90,250,228,261,214,60,98,245,79,81,133,80,280,200,191,157,169,178,272,177,69,226,118,256,194,205,13,181,70,83,65,49,29,95,223,277,234,0,9,51,275,254,156,43,137,236,148,204,84,88,120,222,44,237,298,140,139,273,242,216,114,284,119,75,56,265,101,35,124,127,189,271,59,294,14,263,92]","arrowleft","0","18","35","300","[""0073_N0300_K0035_CLIQUE"",""0065_N0300_K0035_NOCLIQUE""]","","true"
"","","","","","audio-keyboard-response","150","667422","0.0-66.3-0.3-1.3","","null","audio_feedback/right/coin01.mp3","null","","","0","18","35","300","[""0073_N0300_K0035_CLIQUE"",""0065_N0300_K0035_NOCLIQUE""]","",""
"","","","","","canvas-keyboard-response","151","669457","0.0-67.0-0.0-0.0","","1932","","arrowleft","[140,291,289,134,255,74,264,5,118,236,252,114,113,130,149,67,173,293,129,53,55,127,244,170,98,124,220,125,222,34,86,232,141,197,88,271,285,39,177,179,48,131,32,62,226,190,23,79,85,151,99,160,128,15,181,133,102,57,230,8,241,156,167,224,144,146,188,40,174,184,1,192,245,112,200,50,12,97,148,225,242,246,21,17,299,60,35,205,75,93,257,14,165,147,9,283,272,22,26,28,136,158,261,265,157,286,178,89,234,73,176,171,11,153,279,66,47,240,180,297,91,295,267,292,25,10,4,193,90,33,101,82,169,214,18,233,71,126,52,121,208,61,106,31,273,207,202,7,206,266,92,168,191,238,262,68,282,270,275,20,13,287,154,213,199,162,223,105,81,237,44,122,41,69,204,76,183,248,110,263,117,64,231,77,269,187,96,2,290,108,229,211,159,259,58,276,284,172,268,164,201,185,150,249,83,138,80,103,120,182,250,218,254,194,142,132,30,42,36,281,38,54,87,298,217,63,95,258,203,24,78,288,247,198,209,27,296,45,3,135,56,161,51,6,49,195,189,104,260,253,216,111,228,175,163,84,227,278,196,59,94,70,143,115,46,109,107,29,219,215,37,212,280,274,116,145,16,100,152,19,155,166,72,243,239,251,139,221,123,43,65,277,186,256,210,235,137,0,294,119]","arrowleft","0","19","35","300","[""0058_N0300_K0035_CLIQUE"",""0085_N0300_K0035_NOCLIQUE""]","","true"
"","","","","","audio-keyboard-response","152","669881","0.0-67.0-0.0-1.0","","null","audio_feedback/right/coin01.mp3","null","","","0","19","35","300","[""0058_N0300_K0035_CLIQUE"",""0085_N0300_K0035_NOCLIQUE""]","",""
"","","","","","canvas-keyboard-response","153","671172","0.0-68.0-0.0-0.0","","1194",""," ","[46,268,78,32,284,231,243,252,94,234,123,180,128,55,198,45,118,64,139,263,207,219,15,278,264,8,275,147,209,250,159,163,169,183,35,106,179,81,245,103,65,57,239,287,37,54,151,58,24,83,271,48,171,148,60,146,191,162,224,152,80,228,18,190,75,154,31,130,116,115,285,88,149,204,42,290,79,200,229,280,276,95,265,260,86,135,232,125,289,150,90,283,272,258,63,269,91,22,158,23,87,176,182,19,72,293,38,253,52,288,237,132,254,143,210,140,71,161,2,203,189,195,178,131,142,3,61,246,100,26,202,107,74,44,238,294,14,136,5,77,40,188,70,21,255,259,33,122,124,185,27,16,4,297,47,119,242,97,173,127,281,296,73,68,212,99,56,221,1,184,273,145,113,277,84,110,98,220,261,102,144,247,208,164,156,111,36,241,69,175,286,120,109,295,166,92,160,233,217,126,170,43,96,66,76,29,266,206,11,299,12,155,59,215,10,256,153,279,30,137,282,133,292,291,262,199,114,82,168,39,121,249,25,216,117,34,194,138,104,13,7,108,157,112,222,214,193,17,6,251,20,49,50,186,274,267,236,201,248,9,257,197,226,134,105,62,174,187,51,129,165,298,196,177,240,85,181,223,172,67,53,93,244,225,41,205,211,235,141,167,89,0,227,230,270,213,101,192,28,218]","arrowleft","0","20","30","300","[""0070_N0300_K0030_CLIQUE"",""0099_N0300_K0030_NOCLIQUE""]","",""
"","","","","","audio-keyboard-response","154","671742","0.0-68.0-0.0-1.0","","null","audio_feedback/shuffles/shuffle01.mp3","null","","","0","20","30","300","[""0070_N0300_K0030_CLIQUE"",""0099_N0300_K0030_NOCLIQUE""]","",""
"","","","","","canvas-keyboard-response","155","672918","0.0-68.1-0.1-0.1","","1065",""," ","[281,165,58,136,38,104,202,85,152,54,240,236,207,130,109,83,270,221,66,153,5,89,298,24,105,65,1,267,9,10,229,203,15,4,77,181,75,294,61,266,189,51,31,200,144,243,174,88,269,112,18,284,147,210,87,93,299,287,138,293,139,297,260,211,150,213,196,110,264,113,81,170,255,171,57,128,220,13,251,168,84,86,76,119,14,233,101,118,67,179,154,123,25,194,216,295,80,82,259,64,280,121,273,72,29,277,132,127,106,186,268,282,120,68,146,244,151,249,292,226,198,125,159,172,195,187,247,55,212,167,63,248,8,222,176,271,288,94,197,40,237,245,184,91,274,39,242,285,97,32,114,241,95,56,12,232,69,26,7,206,230,115,246,62,111,257,48,59,296,96,289,191,49,256,92,182,149,265,278,177,34,33,157,140,169,23,141,156,199,272,45,3,52,90,2,21,214,225,190,74,204,261,0,253,20,107,35,258,235,137,188,46,180,36,102,126,70,116,143,53,73,158,183,239,60,162,71,219,275,41,11,238,164,148,124,262,201,178,234,173,99,224,131,291,133,47,98,161,27,228,263,227,252,286,276,117,134,16,122,223,78,231,44,50,185,290,129,193,135,208,19,103,6,160,283,209,250,217,175,79,192,163,17,30,145,42,205,22,215,279,100,218,155,142,37,166,43,28,254,108]","arrowleft","0","20","30","300","[""0070_N0300_K0030_CLIQUE"",""0099_N0300_K0030_NOCLIQUE""]","",""
"","","","","","audio-keyboard-response","156","673502","0.0-68.1-0.1-1.1","","null","audio_feedback/shuffles/shuffle01.mp3","null","","","0","20","30","300","[""0070_N0300_K0030_CLIQUE"",""0099_N0300_K0030_NOCLIQUE""]","",""
"","","","","","canvas-keyboard-response","157","674941","0.0-68.2-0.2-0.2","","1338","","arrowleft","[34,176,127,281,46,222,86,208,197,5,48,162,230,244,124,130,211,26,274,102,216,30,196,278,168,73,54,72,115,15,251,71,219,131,41,93,279,99,292,95,75,233,96,241,144,166,78,1,20,224,183,239,6,27,267,263,214,129,29,110,286,195,187,246,248,173,150,296,217,218,136,84,200,186,206,38,148,68,51,106,240,299,140,52,275,142,28,94,62,98,156,181,259,147,151,125,14,35,81,285,114,3,234,63,152,260,132,22,7,120,198,229,32,11,174,53,44,232,266,40,18,172,277,231,39,146,276,105,257,65,112,122,207,212,91,298,10,43,109,42,111,252,164,202,226,50,139,235,135,70,154,58,256,182,237,249,47,19,31,13,77,204,169,297,134,113,4,64,16,271,194,60,104,258,69,21,291,262,108,255,184,284,17,0,254,123,57,138,141,118,227,90,221,242,272,128,59,87,247,189,24,188,79,213,273,209,264,103,215,67,268,250,155,133,76,180,191,89,193,170,100,210,119,293,171,12,66,80,283,223,56,97,45,137,179,160,33,205,167,265,49,85,107,145,287,143,161,36,261,290,178,253,121,149,55,126,92,61,295,238,220,236,163,280,83,82,245,165,175,74,88,23,116,269,294,159,117,153,9,158,2,25,289,190,288,203,101,185,243,228,201,157,282,177,199,225,8,270,37,192]","arrowleft","0","20","30","300","[""0070_N0300_K0030_CLIQUE"",""0099_N0300_K0030_NOCLIQUE""]","","true"
"","","","","","audio-keyboard-response","158","675362","0.0-68.2-0.2-1.2","","null","audio_feedback/right/coin01.mp3","null","","","0","20","30","300","[""0070_N0300_K0030_CLIQUE"",""0099_N0300_K0030_NOCLIQUE""]","",""
"","","","","","canvas-keyboard-response","159","676182","0.0-69.0-0.0-0.0","","727",""," ","[269,155,130,111,148,88,225,212,287,131,191,186,146,296,196,199,10,226,275,240,235,292,126,39,113,244,281,206,166,253,198,248,75,228,121,232,159,134,169,78,290,215,94,66,210,79,103,56,13,112,52,245,41,50,200,23,154,84,34,187,127,174,168,123,251,20,271,172,293,176,36,7,2,238,106,96,71,205,267,221,92,157,60,105,192,129,61,6,4,124,57,276,188,93,223,11,58,207,250,197,85,286,222,65,254,256,45,175,208,230,249,73,68,51,160,76,104,141,209,120,102,0,203,150,63,252,189,72,162,98,261,83,194,62,74,67,262,17,266,156,18,274,31,19,153,1,139,101,242,202,21,183,246,145,195,40,178,282,136,99,294,89,204,44,28,164,49,119,184,284,30,283,26,143,273,55,291,280,220,80,211,128,213,289,190,243,239,86,285,224,35,8,264,22,54,180,179,270,231,263,259,218,91,219,132,70,233,27,81,185,247,108,82,147,122,14,201,236,109,3,268,142,38,29,144,151,95,117,42,37,297,69,288,24,5,265,272,53,138,214,295,149,64,229,77,161,299,257,116,173,237,298,90,115,43,110,16,9,217,193,59,114,182,170,163,32,33,135,278,97,107,167,258,46,15,118,216,152,87,260,125,158,241,171,181,100,279,277,255,140,234,133,47,48,177,25,137,165,227,12]","arrowleft","0","21","30","300","[""0077_N0300_K0030_CLIQUE"",""0043_N0300_K0030_NOCLIQUE""]","",""
"","","","","","audio-keyboard-response","160","676761","0.0-69.0-0.0-1.0","","null","audio_feedback/shuffles/shuffle01.mp3","null","","","0","21","30","300","[""0077_N0300_K0030_CLIQUE"",""0043_N0300_K0030_NOCLIQUE""]","",""
"","","","","","canvas-keyboard-response","161","678310","0.0-69.1-0.1-0.1","","1439","","arrowleft","[193,105,189,259,245,12,27,244,1,213,129,19,233,145,205,223,239,288,138,37,45,250,187,63,283,151,278,144,39,120,164,142,117,83,194,107,292,131,121,101,96,290,94,166,265,261,9,16,87,126,65,276,167,268,296,52,56,170,111,133,285,40,273,2,86,10,8,113,33,124,173,255,196,143,146,202,162,20,182,76,161,263,204,115,179,139,219,49,294,149,230,274,282,295,188,60,214,253,160,17,286,97,192,231,0,135,55,232,42,224,201,238,272,28,50,150,88,106,195,68,53,270,128,248,125,153,206,227,297,221,90,26,275,73,147,99,84,127,32,174,180,58,159,79,222,197,247,4,183,122,31,67,57,203,287,254,103,267,284,14,148,70,95,114,140,6,172,38,61,152,51,44,155,11,7,110,217,257,158,100,25,271,299,175,134,186,226,18,256,66,220,34,225,228,169,93,21,119,277,176,24,289,191,298,136,190,163,258,35,30,240,62,280,36,123,241,118,181,279,200,291,235,46,43,112,47,109,165,208,171,92,80,266,29,98,78,154,178,207,69,229,74,132,236,184,71,211,210,23,246,260,54,5,215,13,249,15,177,264,64,209,218,156,242,130,85,237,48,281,141,116,252,75,199,157,89,251,108,168,212,59,185,293,243,269,104,216,77,82,262,91,137,102,22,72,234,3,41,81,198]","arrowleft","0","21","30","300","[""0077_N0300_K0030_CLIQUE"",""0043_N0300_K0030_NOCLIQUE""]","","true"
"","","","","","audio-keyboard-response","162","678723","0.0-69.1-0.1-1.1","","null","audio_feedback/right/coin01.mp3","null","","","0","21","30","300","[""0077_N0300_K0030_CLIQUE"",""0043_N0300_K0030_NOCLIQUE""]","",""
