"success","timeout","failed_images","failed_audio","failed_video","trial_type","trial_index","time_elapsed","internal_node_id","view_history","rt","stimulus","response","nodes_order","correct_response","graphs_couple","accuracy","block_index","presentation_index","clique_size","graph_size","graphs_names"
"true","false","[]","[]","[]","preload","0","25","0.0-0.0","","","","","","","","","","","","",""
"","","","","","pavlovia","1","357","0.0-1.0","","","","","","","","","","","","",""
"","","","","","instructions","2","47162","0.0-2.0","[{""page_index"":0,""viewing_time"":27032},{""page_index"":1,""viewing_time"":19769}]","46802","","","","","","","","","","",""
"true","false","[]","[]","[]","preload","3","47276","0.0-3.0","","","","","","","","","","","","",""
"","","","","","instructions","4","172217","0.0-4.0","[{""page_index"":0,""viewing_time"":2082},{""page_index"":1,""viewing_time"":1986},{""page_index"":2,""viewing_time"":1357},{""page_index"":3,""viewing_time"":1727},{""page_index"":4,""viewing_time"":3372},{""page_index"":5,""viewing_time"":4137},{""page_index"":6,""viewing_time"":1368},{""page_index"":7,""viewing_time"":775},{""page_index"":8,""viewing_time"":842},{""page_index"":9,""viewing_time"":829},{""page_index"":10,""viewing_time"":1558},{""page_index"":11,""viewing_time"":1003},{""page_index"":12,""viewing_time"":1526},{""page_index"":13,""viewing_time"":1440},{""page_index"":14,""viewing_time"":881},{""page_index"":15,""viewing_time"":1011},{""page_index"":16,""viewing_time"":1132},{""page_index"":17,""viewing_time"":621},{""page_index"":18,""viewing_time"":780},{""page_index"":19,""viewing_time"":2138},{""page_index"":20,""viewing_time"":696},{""page_index"":21,""viewing_time"":878},{""page_index"":22,""viewing_time"":1733},{""page_index"":23,""viewing_time"":1565},{""page_index"":24,""viewing_time"":588},{""page_index"":25,""viewing_time"":3429},{""page_index"":26,""viewing_time"":6710},{""page_index"":27,""viewing_time"":5310},{""page_index"":28,""viewing_time"":1461},{""page_index"":29,""viewing_time"":1722},{""page_index"":30,""viewing_time"":728},{""page_index"":31,""viewing_time"":947},{""page_index"":32,""viewing_time"":5323},{""page_index"":33,""viewing_time"":3458},{""page_index"":34,""viewing_time"":6172},{""page_index"":35,""viewing_time"":3988},{""page_index"":36,""viewing_time"":2001},{""page_index"":37,""viewing_time"":1410},{""page_index"":38,""viewing_time"":2627},{""page_index"":39,""viewing_time"":3490},{""page_index"":40,""viewing_time"":1226},{""page_index"":41,""viewing_time"":4537},{""page_index"":42,""viewing_time"":2936},{""page_index"":43,""viewing_time"":7933},{""page_index"":44,""viewing_time"":3333},{""page_index"":45,""viewing_time"":6452},{""page_index"":46,""viewing_time"":2808},{""page_index"":47,""viewing_time"":1812},{""page_index"":48,""viewing_time"":1756},{""page_index"":49,""viewing_time"":1231},{""page_index"":50,""viewing_time"":1326},{""page_index"":51,""viewing_time"":4792}]","124940","","","","","","","","","","",""
"","","","","","instructions","5","178704","0.0-5.0","[{""page_index"":0,""viewing_time"":6486}]","6487","","","","","","","","","","",""
"true","false","[]","[]","[]","preload","6","178914","0.0-6.0","","","","","","","","","","","","",""
"","","","","","image-keyboard-response","7","185336","0.0-7.0","","6429","tutorial/task_familiarization_images/part 1/01_N160_K90_cliqueRight_question1.PNG"," ","","","","","","","","",""
"","","","","","image-keyboard-response","8","187463","0.0-8.0","","2125","tutorial/task_familiarization_images/part 1/02_N160_K90_cliqueRight_question2.PNG"," ","","","","","","","","",""
"","","","","","image-keyboard-response","9","197224","0.0-9.0","","9759","tutorial/task_familiarization_images/part 1/03_N160_K90_cliqueRight_question3.PNG","arrowright","","","","","","","","",""
"","","","","","image-keyboard-response","10","198989","0.0-10.0","","1762","tutorial/task_familiarization_images/part 1/04_N160_K90_cliqueRight_solution.PNG"," ","","","","","","","","",""
"","","","","","image-keyboard-response","11","203182","0.0-11.0","","4190","tutorial/task_familiarization_images/part 1/05_N160_K65_cliqueRight_question1.PNG"," ","","","","","","","","",""
"","","","","","image-keyboard-response","12","205373","0.0-12.0","","2188","tutorial/task_familiarization_images/part 1/06_N160_K65_cliqueRight_question2.PNG"," ","","","","","","","","",""
"","","","","","image-keyboard-response","13","206768","0.0-13.0","","1393","tutorial/task_familiarization_images/part 1/07_N160_K65_cliqueRight_question3.PNG","arrowright","","","","","","","","",""
"","","","","","image-keyboard-response","14","208371","0.0-14.0","","1601","tutorial/task_familiarization_images/part 1/08_N160_K65_cliqueRight_solution.PNG"," ","","","","","","","","",""
"","","","","","image-keyboard-response","15","209997","0.0-15.0","","1623","tutorial/task_familiarization_images/part 1/09_N160_K50_cliqueLeft_question1.PNG"," ","","","","","","","","",""
"","","","","","image-keyboard-response","16","213039","0.0-16.0","","3040","tutorial/task_familiarization_images/part 1/10_N160_K50_cliqueLeft_question2.PNG"," ","","","","","","","","",""
"","","","","","image-keyboard-response","17","214360","0.0-17.0","","1320","tutorial/task_familiarization_images/part 1/11_N160_K50_cliqueLeft_question3.PNG","arrowleft","","","","","","","","",""
"","","","","","image-keyboard-response","18","216022","0.0-18.0","","1660","tutorial/task_familiarization_images/part 1/12_N160_K50_cliqueLeft_solution.PNG"," ","","","","","","","","",""
"","","","","","image-keyboard-response","19","218703","0.0-19.0","","2679","tutorial/task_familiarization_images/part 1/13_N160_K80_cliqueLeft_question1.PNG"," ","","","","","","","","",""
"","","","","","image-keyboard-response","20","219841","0.0-20.0","","1137","tutorial/task_familiarization_images/part 1/14_N160_K80_cliqueLeft_question2.PNG"," ","","","","","","","","",""
"","","","","","image-keyboard-response","21","221340","0.0-21.0","","1497","tutorial/task_familiarization_images/part 1/15_N160_K80_cliqueLeft_question3.PNG","arrowleft","","","","","","","","",""
"","","","","","image-keyboard-response","22","222420","0.0-22.0","","1078","tutorial/task_familiarization_images/part 1/16_N160_K80_cliqueLeft_solution.PNG"," ","","","","","","","","",""
"","","","","","image-keyboard-response","23","226398","0.0-23.0","","3976","tutorial/task_familiarization_images/part 1/17_N160_K40_cliqueRight_question1.PNG"," ","","","","","","","","",""
"","","","","","image-keyboard-response","24","228042","0.0-24.0","","1642","tutorial/task_familiarization_images/part 1/18_N160_K40_cliqueRight_question2.PNG"," ","","","","","","","","",""
"","","","","","image-keyboard-response","25","229840","0.0-25.0","","1797","tutorial/task_familiarization_images/part 1/19_N160_K40_cliqueRight_question3.PNG","arrowright","","","","","","","","",""
"","","","","","image-keyboard-response","26","232099","0.0-26.0","","2257","tutorial/task_familiarization_images/part 1/20_N160_K40_cliqueRight_solution.PNG"," ","","","","","","","","",""
"","","","","","image-keyboard-response","27","234661","0.0-27.0","","2560","tutorial/task_familiarization_images/part 1/21_N160_K70_cliqueLeft_question1.PNG"," ","","","","","","","","",""
"","","","","","image-keyboard-response","28","236103","0.0-28.0","","1440","tutorial/task_familiarization_images/part 1/22_N160_K70_cliqueLeft_question2.PNG"," ","","","","","","","","",""
"","","","","","image-keyboard-response","29","236960","0.0-29.0","","855","tutorial/task_familiarization_images/part 1/23_N160_K70_cliqueLeft_question3.PNG","arrowleft","","","","","","","","",""
"","","","","","image-keyboard-response","30","237779","0.0-30.0","","817","tutorial/task_familiarization_images/part 1/24_N160_K70_cliqueLeft_solution.PNG"," ","","","","","","","","",""
"true","false","[]","[]","[]","preload","31","238004","0.0-31.0","","","","","","","","","","","","",""
"","","","","","image-keyboard-response","32","245749","0.0-32.0","","7735","tutorial/task_familiarization_images/part 2/01_160_80_cliqueLeft_withFeedback_1.PNG"," ","","","","","","","","",""
"","","","","","image-keyboard-response","33","252044","0.0-33.0","","6293","tutorial/task_familiarization_images/part 2/02_160_80_cliqueLeft_withFeedback_1.PNG"," ","","","","","","","","",""
"","","","","","image-keyboard-response","34","253531","0.0-34.0","","1485","tutorial/task_familiarization_images/part 2/03_160_80_cliqueLeft_withFeedback_3.PNG","arrowleft","","","","","","","","",""
"","","","","","image-keyboard-response","35","256117","0.0-35.0","","2585","tutorial/task_familiarization_images/part 2/04_160_80_cliqueLeft_withFeedback_correct.PNG"," ","","","","","","","","",""
"","","","","","image-keyboard-response","36","260462","0.0-36.0","","4344","tutorial/task_familiarization_images/part 2/05_160_55_cliqueRight_withFeedback_1.PNG"," ","","","","","","","","",""
"","","","","","image-keyboard-response","37","264286","0.0-37.0","","3822","tutorial/task_familiarization_images/part 2/06_160_55_cliqueRight_withFeedback_2.PNG"," ","","","","","","","","",""
"","","","","","image-keyboard-response","38","266523","0.0-38.0","","2235","tutorial/task_familiarization_images/part 2/07_160_55_cliqueRight_withFeedback_3.PNG","arrowright","","","","","","","","",""
"","","","","","image-keyboard-response","39","271321","0.0-39.0","","4796","tutorial/task_familiarization_images/part 2/08_160_55_cliqueRight_withFeedback_correct.PNG"," ","","","","","","","","",""
"","","","","","image-keyboard-response","40","274083","0.0-40.0","","2760","tutorial/task_familiarization_images/part 2/09_160_70_cliqueLeft_withFeedback_1.PNG"," ","","","","","","","","",""
"","","","","","image-keyboard-response","41","275831","0.0-41.0","","1747","tutorial/task_familiarization_images/part 2/10_160_70_cliqueLeft_withFeedback_2.PNG"," ","","","","","","","","",""
"","","","","","image-keyboard-response","42","278502","0.0-42.0","","2670","tutorial/task_familiarization_images/part 2/11_160_70_cliqueLeft_withFeedback_3.PNG","arrowleft","","","","","","","","",""
"","","","","","image-keyboard-response","43","281553","0.0-43.0","","3049","tutorial/task_familiarization_images/part 2/12_160_70_cliqueLeft_withFeedback_correct.PNG"," ","","","","","","","","",""
"","","","","","survey-html-form","44","294776","0.0-44.0","","13220","","{""gender"":""male"",""age"":""27""}","","","","","","","","",""
"","","","","","instructions","45","300197","0.0-45.0","[{""page_index"":0,""viewing_time"":5420}]","5420","","","","","","","","","","",""
"true","","","","","fullscreen","46","305208","0.0-47.0","","","","","","","","","","","","",""
"","","","","","canvas-keyboard-response","47","312787","0.0-48.0-0.0-0.0","","7515","","arrowright","[83,108,56,133,89,257,243,275,225,132,92,155,175,115,213,285,189,297,296,223,197,219,239,44,294,179,177,235,131,190,204,156,17,174,265,118,141,186,128,228,105,151,242,35,99,281,170,199,165,28,217,142,67,116,7,85,104,260,29,21,176,193,48,31,58,144,256,76,49,123,51,236,81,241,106,277,2,109,148,68,284,248,66,166,138,71,102,43,214,250,271,127,183,253,266,137,110,216,73,157,61,95,39,287,149,134,32,222,37,184,143,251,264,295,150,299,26,254,53,292,282,246,182,0,181,145,60,75,90,212,41,54,173,34,69,278,187,46,72,289,103,279,276,112,205,167,33,25,38,185,259,12,163,130,135,191,15,226,57,140,208,113,98,30,258,77,172,107,50,153,96,290,126,207,124,272,147,42,10,169,298,255,125,244,178,283,94,117,247,86,158,121,261,196,11,136,62,40,164,237,6,231,80,111,286,24,200,122,14,27,3,211,97,230,64,262,19,194,4,91,23,291,101,152,234,162,198,93,20,220,65,168,188,22,171,195,74,52,203,114,218,139,268,269,273,201,206,232,78,215,270,9,45,1,82,293,8,119,79,70,245,221,120,129,263,280,224,59,13,84,210,252,36,209,88,100,47,229,192,274,154,227,161,159,5,55,233,160,240,16,288,18,249,238,180,202,146,87,267,63]","arrowright","","true","0","0","90","300","[""0060_N0300_K0090_NOCLIQUE"",""0098_N0300_K0090_CLIQUE""]"
"","","","","","audio-keyboard-response","48","313739","0.0-48.0-0.0-1.0","","null","audio_feedback/right/coin01.mp3","null","","","","","0","0","90","300","[""0060_N0300_K0090_NOCLIQUE"",""0098_N0300_K0090_CLIQUE""]"
"","","","","","canvas-keyboard-response","49","322180","0.0-49.0-0.0-0.0","","8388","","arrowright","[172,256,155,12,294,91,94,238,49,176,162,66,240,166,167,72,139,112,268,136,15,290,178,158,157,10,251,181,257,283,30,137,45,182,53,204,276,195,57,186,1,278,24,286,228,89,239,192,146,113,48,28,201,263,101,200,68,87,245,122,98,226,32,27,34,156,279,197,193,237,31,221,47,168,255,151,73,261,161,196,100,22,5,269,123,152,130,4,273,93,189,236,277,220,71,153,132,144,86,177,69,67,14,42,205,60,111,272,254,40,96,127,35,44,292,76,119,271,249,184,164,18,26,241,140,163,37,235,13,115,295,36,191,222,120,65,43,138,190,9,46,234,143,227,75,274,54,211,187,212,126,97,50,175,208,229,52,159,262,179,173,55,264,109,2,21,213,150,88,265,232,281,230,185,285,291,225,169,250,210,206,280,288,194,224,7,11,142,78,231,107,170,99,131,20,56,243,253,252,61,289,202,258,110,183,299,297,171,124,188,260,77,117,215,244,16,33,17,102,198,218,134,23,149,293,267,209,104,145,51,141,270,118,59,108,296,105,62,259,284,95,287,223,203,247,90,39,242,128,248,0,19,121,116,148,41,298,82,207,135,85,81,246,125,70,58,79,80,64,114,74,106,174,63,103,282,92,84,83,3,219,6,8,133,38,154,129,275,165,214,233,266,216,180,217,25,29,147,160,199]","arrowright","","true","0","1","90","300","[""0095_N0300_K0090_NOCLIQUE"",""0005_N0300_K0090_CLIQUE""]"
"","","","","","audio-keyboard-response","50","322799","0.0-49.0-0.0-1.0","","null","audio_feedback/right/coin01.mp3","null","","","","","0","1","90","300","[""0095_N0300_K0090_NOCLIQUE"",""0005_N0300_K0090_CLIQUE""]"
"","","","","","canvas-keyboard-response","51","324358","0.0-50.0-0.0-0.0","","1500","","arrowright","[172,156,33,88,164,105,81,135,141,296,192,239,211,204,111,52,115,45,271,89,26,285,268,223,254,136,120,291,266,74,281,225,4,144,19,262,250,16,128,143,294,177,155,160,117,29,116,64,206,71,284,227,12,258,72,54,41,102,91,288,179,90,158,0,67,216,60,191,109,169,87,140,151,30,59,295,157,84,76,230,228,299,14,176,152,162,21,47,218,260,132,1,184,273,287,94,248,166,274,142,174,112,215,235,23,134,146,49,247,245,196,292,2,175,202,229,243,6,69,104,214,80,27,183,180,108,197,127,139,39,195,293,298,133,185,113,286,79,283,85,165,13,212,253,46,38,119,107,213,277,149,34,62,208,43,153,51,100,203,159,187,263,209,75,110,126,217,40,82,207,186,121,20,168,272,224,199,129,198,194,31,66,278,125,98,58,17,241,150,275,114,70,103,78,222,148,270,231,73,95,65,237,56,210,96,44,147,55,201,280,232,63,269,138,279,8,101,97,205,28,122,276,221,11,189,83,181,53,265,130,282,86,24,137,242,236,131,252,7,50,257,9,264,219,5,170,167,57,188,261,22,233,35,123,173,93,255,246,106,42,200,290,256,182,193,25,297,226,240,18,171,68,251,234,178,244,10,77,190,61,154,238,267,92,163,124,99,249,289,48,3,220,15,36,37,145,118,161,32,259]","arrowright","","true","0","2","80","300","[""0051_N0300_K0080_NOCLIQUE"",""0038_N0300_K0080_CLIQUE""]"
"","","","","","audio-keyboard-response","52","324978","0.0-50.0-0.0-1.0","","null","audio_feedback/right/coin01.mp3","null","","","","","0","2","80","300","[""0051_N0300_K0080_NOCLIQUE"",""0038_N0300_K0080_CLIQUE""]"
"","","","","","canvas-keyboard-response","53","327173","0.0-51.0-0.0-0.0","","2143",""," ","[67,140,97,5,196,49,119,101,137,40,145,286,238,219,32,294,190,159,289,85,168,280,136,78,144,65,181,189,17,148,88,53,296,107,122,105,45,221,104,39,235,178,257,126,93,94,214,171,204,115,35,141,120,272,153,288,25,188,273,111,266,118,173,176,57,220,124,135,102,271,156,170,79,183,200,223,75,24,28,14,92,113,112,47,61,86,146,162,255,228,151,241,128,129,285,59,83,165,19,51,213,258,198,100,262,44,229,98,29,158,3,206,133,150,244,249,117,84,16,187,197,34,276,201,186,72,298,42,43,184,259,207,297,269,281,155,182,261,279,260,109,95,6,290,160,70,52,263,157,191,54,50,36,240,30,179,130,125,284,174,227,7,264,0,230,12,131,87,110,233,212,134,21,143,161,277,33,216,76,10,199,18,41,138,234,11,287,245,283,89,66,167,231,64,4,169,195,152,210,23,163,139,58,149,275,73,202,90,121,26,225,217,74,106,123,292,265,55,103,108,63,166,177,203,193,62,224,218,31,226,215,194,116,256,291,48,282,172,8,154,247,82,175,185,38,270,222,295,239,27,205,232,237,208,13,211,20,1,252,2,236,254,253,164,127,68,56,243,267,37,248,71,15,9,268,251,192,22,91,99,147,80,293,246,81,274,142,242,69,180,132,278,77,114,209,250,299,46,96,60]","arrowright","","","0","3","80","300","[""0035_N0300_K0080_NOCLIQUE"",""0063_N0300_K0080_CLIQUE""]"
"","","","","","audio-keyboard-response","54","327959","0.0-51.0-0.0-1.0","","null","audio_feedback/shuffles/shuffle01.mp3","null","","","","","0","3","80","300","[""0035_N0300_K0080_NOCLIQUE"",""0063_N0300_K0080_CLIQUE""]"
"","","","","","canvas-keyboard-response","55","329924","0.0-51.1-0.1-0.1","","1917","","arrowright","[131,285,141,190,240,113,260,69,259,85,48,280,72,30,122,19,218,9,42,132,157,137,116,99,178,71,129,243,4,194,105,15,78,183,97,0,292,112,111,29,209,159,135,246,235,3,80,45,217,81,199,103,290,95,225,74,64,231,25,273,13,127,264,76,56,161,96,31,270,258,63,68,115,156,37,229,281,203,179,39,144,8,163,184,65,234,219,34,213,77,168,177,283,192,289,167,120,247,195,193,46,28,191,98,130,277,239,55,186,214,202,230,271,222,294,128,52,245,221,2,151,119,262,298,153,284,238,228,22,18,174,185,253,140,200,121,143,54,57,242,146,250,279,36,269,236,125,211,182,204,267,104,59,118,90,7,83,138,282,106,62,162,20,60,196,299,241,66,43,70,110,79,254,232,107,257,11,237,256,14,164,108,158,297,274,150,212,172,33,160,16,263,88,181,251,73,171,208,6,154,44,32,220,288,180,244,278,102,295,5,67,89,205,169,101,47,136,249,206,40,261,233,291,165,296,215,124,149,223,50,27,266,10,188,207,152,117,166,21,91,226,252,293,100,189,268,187,84,176,12,145,1,198,58,17,123,109,87,86,92,170,134,93,286,248,216,275,51,41,175,210,114,142,197,201,75,173,287,82,24,224,35,61,133,255,265,94,276,53,126,38,49,139,23,272,227,148,26,147,155]","arrowright","","true","0","3","80","300","[""0035_N0300_K0080_NOCLIQUE"",""0063_N0300_K0080_CLIQUE""]"
"","","","","","audio-keyboard-response","56","330539","0.0-51.1-0.1-1.1","","null","audio_feedback/right/coin01.mp3","null","","","","","0","3","80","300","[""0035_N0300_K0080_NOCLIQUE"",""0063_N0300_K0080_CLIQUE""]"
"","","","","","canvas-keyboard-response","57","331873","0.0-52.0-0.0-0.0","","1274",""," ","[27,75,261,233,292,272,227,277,86,100,185,167,129,228,21,239,280,45,195,12,190,198,201,207,274,2,157,4,52,38,9,183,122,246,263,171,215,251,108,238,200,10,76,106,110,0,134,156,160,243,133,71,255,109,101,205,196,102,128,248,90,25,41,44,180,146,99,150,19,79,33,278,211,143,91,136,182,284,89,260,151,24,88,179,119,285,177,162,291,234,153,77,226,130,178,104,235,173,295,15,244,37,118,231,85,40,80,13,105,66,111,22,137,147,26,60,237,17,154,98,165,16,250,249,168,135,5,61,286,73,117,96,174,275,54,103,58,288,176,222,299,296,125,72,240,252,262,14,170,149,28,266,55,65,107,225,56,139,273,145,116,298,188,115,169,113,270,43,289,8,1,209,265,68,189,194,78,283,3,212,126,294,159,83,161,258,120,95,84,241,297,49,127,121,46,242,32,290,34,175,138,70,229,269,293,30,31,254,53,97,23,199,140,172,282,29,221,214,164,256,279,257,6,62,223,224,287,67,124,247,184,192,51,163,186,87,18,232,267,210,230,64,93,63,253,112,276,11,92,158,141,47,259,132,181,144,7,208,39,206,50,42,59,82,220,187,204,36,81,94,191,236,166,264,142,216,35,69,20,218,152,271,57,281,219,131,268,123,48,213,217,193,114,202,148,245,197,74,203,155]","arrowleft","","","0","4","70","300","[""0023_N0300_K0070_CLIQUE"",""0015_N0300_K0070_NOCLIQUE""]"
"","","","","","audio-keyboard-response","58","332638","0.0-52.0-0.0-1.0","","null","audio_feedback/shuffles/shuffle01.mp3","null","","","","","0","4","70","300","[""0023_N0300_K0070_CLIQUE"",""0015_N0300_K0070_NOCLIQUE""]"
"","","","","","canvas-keyboard-response","59","335405","0.0-52.1-0.1-0.1","","2713",""," ","[85,229,9,222,177,151,119,39,124,15,38,198,180,184,45,102,183,277,170,299,137,263,217,275,205,105,96,95,16,230,49,75,242,125,236,63,167,157,118,270,47,268,5,13,82,40,176,84,6,3,142,158,166,246,23,53,134,203,159,70,147,56,10,2,168,152,29,111,213,160,209,194,163,4,55,32,146,256,108,175,68,265,182,91,235,150,25,139,211,117,80,215,58,259,135,201,266,285,289,21,247,269,78,115,287,131,192,298,251,234,292,276,262,186,174,243,155,237,223,31,149,193,106,114,253,14,189,122,264,136,67,127,54,81,66,24,126,79,172,51,145,283,36,133,278,12,282,104,121,132,267,218,59,120,22,188,295,179,239,284,220,233,199,97,87,71,288,90,156,248,64,297,221,173,110,17,178,225,190,48,238,99,33,101,62,250,61,244,74,202,130,219,272,296,210,169,30,281,195,26,41,98,73,107,35,207,123,290,206,261,94,77,280,224,196,162,245,143,208,20,273,7,226,286,60,200,191,44,154,93,185,50,212,252,254,83,293,171,165,11,232,52,228,240,28,249,164,197,258,92,18,76,294,255,116,69,46,141,86,138,161,57,274,231,216,19,72,181,241,88,113,100,291,89,271,37,260,129,27,0,227,140,204,1,109,214,65,43,128,112,8,42,257,153,34,148,103,144,187,279]","arrowleft","","","0","4","70","300","[""0023_N0300_K0070_CLIQUE"",""0015_N0300_K0070_NOCLIQUE""]"
"","","","","","audio-keyboard-response","60","336179","0.0-52.1-0.1-1.1","","null","audio_feedback/shuffles/shuffle01.mp3","null","","","","","0","4","70","300","[""0023_N0300_K0070_CLIQUE"",""0015_N0300_K0070_NOCLIQUE""]"
"","","","","","canvas-keyboard-response","61","339599","0.0-52.2-0.2-0.2","","3367",""," ","[231,99,7,233,152,290,256,294,122,74,172,285,244,62,21,216,239,251,205,91,253,40,60,171,178,63,250,58,222,298,15,87,147,57,103,39,248,212,288,186,228,93,296,193,28,173,184,44,257,211,114,9,170,137,227,106,110,146,191,245,75,226,85,188,258,2,287,255,236,3,54,55,148,8,121,196,280,246,143,166,43,185,277,242,214,207,201,118,183,224,92,284,254,252,289,5,155,31,66,35,190,156,68,139,279,271,96,26,111,133,151,69,81,168,94,120,164,86,130,200,90,162,181,230,262,203,64,100,107,70,38,192,141,297,295,116,210,282,123,274,199,72,115,4,265,108,78,249,23,149,124,51,238,134,232,292,83,80,270,98,136,218,102,163,260,113,53,177,13,101,208,36,50,109,67,189,269,14,179,299,48,235,264,180,52,33,79,126,223,215,160,138,71,263,89,213,144,221,159,95,77,34,19,45,291,112,145,17,259,140,204,293,158,195,129,165,220,247,286,104,229,176,175,132,135,209,42,20,167,194,73,272,29,76,197,154,153,59,206,11,241,12,97,202,0,41,49,25,217,84,198,266,105,22,161,125,88,117,261,243,128,268,267,275,119,219,273,174,16,46,10,278,56,65,6,47,30,131,240,37,142,27,281,61,234,127,150,1,182,169,82,276,283,24,32,237,187,157,18,225]","arrowleft","","","0","4","70","300","[""0023_N0300_K0070_CLIQUE"",""0015_N0300_K0070_NOCLIQUE""]"
"","","","","","audio-keyboard-response","62","340379","0.0-52.2-0.2-1.2","","null","audio_feedback/shuffles/shuffle01.mp3","null","","","","","0","4","70","300","[""0023_N0300_K0070_CLIQUE"",""0015_N0300_K0070_NOCLIQUE""]"
"","","","","","canvas-keyboard-response","63","345533","0.0-52.3-0.3-0.3","","5103",""," ","[73,60,296,285,53,120,150,147,175,65,125,186,85,84,210,12,190,4,1,144,52,30,160,194,261,72,19,214,153,238,71,165,131,17,265,139,82,253,39,281,176,11,241,185,198,286,18,295,3,108,167,2,254,145,29,197,207,32,184,169,74,289,78,157,177,130,250,228,242,41,243,44,225,132,259,91,208,56,203,235,55,57,46,45,5,239,121,189,171,164,116,227,100,99,134,112,292,222,163,58,226,50,67,192,102,8,158,161,138,170,146,107,43,61,127,213,106,115,128,34,15,113,187,178,114,77,149,6,248,162,148,271,299,62,205,24,233,155,264,28,257,88,202,54,166,126,133,221,70,260,288,63,298,263,293,199,27,9,10,291,23,105,140,217,219,111,284,276,135,136,86,110,156,104,209,267,122,92,68,89,258,183,220,174,290,172,66,22,255,204,262,211,240,196,232,270,256,249,20,79,96,21,182,33,69,223,251,16,212,141,48,277,40,274,200,38,87,180,215,188,246,98,244,118,218,151,14,191,129,268,94,181,159,236,294,275,273,26,154,37,283,193,279,103,206,47,266,230,7,229,173,237,201,272,234,245,143,224,81,117,64,42,35,76,278,231,101,36,282,75,93,59,31,297,137,168,109,49,123,124,247,80,269,119,0,195,97,216,252,83,25,152,287,179,90,142,280,13,95,51]","arrowleft","","","0","4","70","300","[""0023_N0300_K0070_CLIQUE"",""0015_N0300_K0070_NOCLIQUE""]"
"","","","","","audio-keyboard-response","64","346298","0.0-52.3-0.3-1.3","","null","audio_feedback/shuffles/shuffle01.mp3","null","","","","","0","4","70","300","[""0023_N0300_K0070_CLIQUE"",""0015_N0300_K0070_NOCLIQUE""]"
"","","","","","canvas-keyboard-response","65","350394","0.0-52.4-0.4-0.4","","4048","","arrowright","[46,107,209,219,286,119,265,29,222,283,112,154,240,263,276,59,228,187,84,254,175,66,165,191,124,169,284,296,162,115,111,101,161,78,123,151,216,120,65,128,15,250,108,138,149,140,63,171,173,292,267,7,68,52,56,2,79,8,51,130,73,33,153,77,100,41,62,122,125,299,277,163,200,186,20,110,181,204,118,230,233,22,39,226,31,93,69,170,295,76,208,203,167,235,137,236,109,210,192,49,144,183,242,43,155,114,274,23,291,90,264,269,32,60,89,75,55,218,297,224,176,221,207,11,95,72,215,288,116,131,255,44,262,195,134,212,148,206,99,26,185,231,241,214,159,12,198,177,34,248,13,86,83,103,87,50,106,88,37,259,289,232,174,280,247,127,96,193,74,225,256,271,17,223,133,146,279,28,275,251,285,234,113,27,1,141,57,261,160,158,157,71,47,202,48,4,9,257,94,64,273,252,81,237,205,196,266,190,126,211,178,25,18,0,220,194,97,156,290,179,21,30,3,168,10,129,53,172,142,268,58,184,164,188,143,249,147,102,38,117,121,136,54,199,24,80,82,92,67,19,139,150,260,135,16,270,298,98,278,166,246,132,61,229,85,217,189,281,201,272,104,244,145,105,70,253,293,42,243,238,182,14,213,197,40,5,245,239,227,258,287,6,36,35,152,180,294,45,282,91]","arrowleft","","false","0","4","70","300","[""0023_N0300_K0070_CLIQUE"",""0015_N0300_K0070_NOCLIQUE""]"
"","","","","","audio-keyboard-response","66","351198","0.0-52.4-0.4-1.4","","null","audio_feedback/wrong/error01.mp3","null","","","","","0","4","70","300","[""0023_N0300_K0070_CLIQUE"",""0015_N0300_K0070_NOCLIQUE""]"
"","","","","","canvas-keyboard-response","67","355580","0.0-53.0-0.0-0.0","","4336",""," ","[232,84,251,280,196,51,143,222,145,139,163,42,106,156,172,0,161,229,175,257,237,68,137,28,61,260,188,189,200,133,120,20,43,52,12,54,190,115,65,293,9,89,11,278,108,8,44,283,125,5,75,153,83,185,73,39,116,104,33,95,128,290,147,117,259,198,210,66,82,291,87,35,240,150,4,70,96,266,123,72,180,67,79,272,285,243,49,64,238,59,264,269,151,16,23,271,230,178,78,192,295,107,149,110,256,275,165,282,234,69,10,261,105,247,173,60,142,226,159,103,25,119,92,265,252,249,24,45,91,58,6,298,141,34,267,279,168,176,111,2,98,118,262,225,245,15,7,40,131,215,203,135,77,191,193,112,130,253,86,273,129,37,90,195,62,221,270,154,184,202,88,233,100,207,299,194,250,211,186,97,268,213,162,181,132,71,281,26,164,228,81,32,297,242,31,50,179,204,294,140,114,183,287,36,254,56,158,94,292,47,27,144,288,85,274,102,167,218,48,99,187,13,53,136,197,171,113,277,138,80,3,276,126,55,255,216,29,152,22,57,286,258,241,148,236,199,174,217,21,93,177,121,76,205,246,166,284,209,146,244,122,63,74,109,220,182,170,17,169,223,224,208,155,124,235,231,46,206,212,127,18,101,1,296,219,201,160,248,289,19,214,227,14,263,157,30,38,41,134,239]","arrowright","","","0","5","70","300","[""0022_N0300_K0070_NOCLIQUE"",""0032_N0300_K0070_CLIQUE""]"
"","","","","","audio-keyboard-response","68","356357","0.0-53.0-0.0-1.0","","null","audio_feedback/shuffles/shuffle01.mp3","null","","","","","0","5","70","300","[""0022_N0300_K0070_NOCLIQUE"",""0032_N0300_K0070_CLIQUE""]"
"","","","","","canvas-keyboard-response","69","358587","0.0-53.1-0.1-0.1","","2179",""," ","[272,18,95,122,148,106,71,195,68,67,92,94,168,66,136,189,98,120,152,270,274,128,257,266,91,283,1,119,79,207,107,86,229,61,162,258,5,277,85,60,291,248,197,186,146,90,132,243,155,216,187,58,41,217,174,299,230,293,238,199,268,87,194,55,297,175,16,203,180,225,200,50,130,264,150,290,9,151,176,212,236,208,14,177,183,4,46,263,83,133,215,205,52,173,179,64,157,182,234,192,35,159,286,206,191,2,141,165,51,54,147,149,273,226,235,204,30,161,185,269,101,213,49,127,267,126,276,142,37,20,89,44,298,102,265,166,220,252,163,103,25,47,211,158,104,65,15,188,144,53,45,38,124,219,249,253,167,139,237,288,169,24,17,42,255,22,114,240,110,145,28,74,280,80,241,184,201,12,292,123,113,84,193,231,116,222,246,70,279,117,153,21,245,82,295,39,0,209,10,261,221,129,284,232,26,23,11,34,59,137,262,29,228,247,13,260,134,170,140,69,242,224,27,96,75,210,289,196,109,77,33,190,112,115,43,256,131,244,100,239,111,76,19,233,36,8,251,214,156,72,40,7,282,143,3,88,171,278,254,31,63,250,97,178,99,6,160,294,285,172,154,271,275,78,227,198,81,57,164,135,118,202,223,181,125,56,138,281,259,287,108,48,296,105,93,62,121,218,73,32]","arrowright","","","0","5","70","300","[""0022_N0300_K0070_NOCLIQUE"",""0032_N0300_K0070_CLIQUE""]"
"","","","","","audio-keyboard-response","70","359359","0.0-53.1-0.1-1.1","","null","audio_feedback/shuffles/shuffle01.mp3","null","","","","","0","5","70","300","[""0022_N0300_K0070_NOCLIQUE"",""0032_N0300_K0070_CLIQUE""]"
"","","","","","canvas-keyboard-response","71","363835","0.0-53.2-0.2-0.2","","4423","","arrowright","[140,232,62,27,124,288,213,246,34,150,13,20,255,116,76,52,115,263,125,14,253,87,180,129,290,168,224,109,198,53,50,81,192,201,32,111,286,42,165,88,170,2,73,209,238,31,30,221,156,206,108,23,264,182,126,169,179,271,137,249,174,132,251,26,110,77,130,105,19,90,39,44,166,269,21,66,175,285,93,67,184,212,86,191,227,33,283,103,181,254,68,248,292,100,241,142,141,143,279,9,231,268,28,55,193,222,148,25,107,281,154,22,71,267,118,114,70,41,37,85,46,299,262,216,61,164,135,45,29,15,270,208,94,4,298,155,102,120,152,177,297,210,211,295,252,199,158,233,190,56,294,96,220,280,89,3,178,287,145,134,84,273,153,122,104,187,133,128,10,48,7,278,82,47,225,119,49,35,160,200,72,214,217,38,101,149,185,277,276,188,183,167,75,161,274,250,195,289,207,151,69,36,95,112,91,291,229,245,83,144,0,256,235,259,240,204,258,159,16,136,228,197,257,54,65,139,106,282,202,157,5,123,43,189,236,98,12,59,58,272,113,92,243,163,244,63,237,230,284,147,8,60,219,205,131,117,226,218,247,79,196,239,171,51,121,6,57,172,186,146,275,18,242,173,1,260,80,64,203,78,296,293,215,24,138,99,40,97,176,74,194,223,265,17,127,261,162,234,266,11]","arrowright","","true","0","5","70","300","[""0022_N0300_K0070_NOCLIQUE"",""0032_N0300_K0070_CLIQUE""]"
"","","","","","audio-keyboard-response","72","364459","0.0-53.2-0.2-1.2","","null","audio_feedback/right/coin01.mp3","null","","","","","0","5","70","300","[""0022_N0300_K0070_NOCLIQUE"",""0032_N0300_K0070_CLIQUE""]"
"","","","","","canvas-keyboard-response","73","368312","0.0-54.0-0.0-0.0","","3800",""," ","[266,176,267,57,39,161,152,245,199,98,136,223,192,198,230,122,100,71,184,179,183,33,118,297,222,74,127,34,18,293,252,96,15,60,167,2,7,53,126,217,299,59,265,259,137,166,164,258,221,292,216,123,54,234,201,236,51,88,154,283,279,119,241,104,284,9,249,165,93,134,55,151,20,5,31,182,66,101,231,256,116,286,75,150,171,129,214,14,69,99,254,195,172,250,227,62,213,97,196,275,140,26,52,0,291,111,264,108,269,73,295,125,285,120,90,181,36,163,89,41,246,170,175,206,233,238,273,72,115,224,95,146,45,203,261,102,144,12,42,79,209,65,8,226,270,28,159,1,290,76,27,40,190,131,158,106,211,37,218,138,247,177,64,268,155,202,10,128,6,117,147,47,237,130,193,24,188,173,48,208,277,49,243,255,91,168,281,43,251,86,110,274,30,109,271,242,21,67,298,262,200,296,248,77,219,142,289,87,82,149,124,23,189,19,212,204,46,103,287,38,78,58,50,220,191,11,207,139,61,113,169,174,229,4,272,107,148,17,143,112,81,205,35,225,228,276,121,85,153,257,68,178,235,3,44,162,135,244,160,92,157,83,114,25,145,16,280,22,132,197,232,278,215,253,94,239,185,56,294,240,32,141,133,186,29,260,13,70,180,194,156,105,84,288,80,282,63,187,210,263]","arrowright","","","0","6","65","300","[""0055_N0300_K0065_NOCLIQUE"",""0032_N0300_K0065_CLIQUE""]"
"","","","","","audio-keyboard-response","74","369079","0.0-54.0-0.0-1.0","","null","audio_feedback/shuffles/shuffle01.mp3","null","","","","","0","6","65","300","[""0055_N0300_K0065_NOCLIQUE"",""0032_N0300_K0065_CLIQUE""]"
"","","","","","canvas-keyboard-response","75","374519","0.0-54.1-0.1-0.1","","5388",""," ","[124,279,44,50,278,71,241,43,229,126,150,196,171,201,295,2,132,6,200,108,12,99,187,72,51,270,84,265,185,144,234,59,264,257,25,21,57,271,188,80,176,54,3,166,32,259,268,53,211,217,123,246,219,235,180,40,31,89,186,233,149,4,272,192,288,194,22,10,36,183,212,66,274,67,164,139,134,210,182,87,282,258,161,112,7,28,291,285,88,60,191,86,244,118,82,226,79,131,151,287,106,142,78,230,204,220,81,221,240,27,125,281,100,127,11,133,283,227,145,189,152,70,34,26,198,297,111,98,46,178,275,203,68,5,91,214,140,136,115,190,23,105,58,20,130,14,209,48,56,102,65,292,262,248,290,128,119,148,294,120,253,280,218,147,289,16,96,169,95,13,159,47,137,114,179,296,103,277,129,224,155,207,17,77,172,298,276,237,121,163,225,116,122,19,104,69,76,255,157,232,193,38,299,208,167,215,94,74,170,156,175,37,284,30,252,239,55,45,228,260,110,236,97,41,39,93,202,213,286,216,205,238,245,42,222,138,250,9,63,160,263,73,256,174,29,143,223,206,107,273,24,52,181,62,261,197,146,135,18,254,267,113,49,195,109,231,249,85,0,33,266,64,154,242,117,168,35,251,158,153,177,90,165,92,243,15,83,293,247,75,199,184,162,141,61,173,101,269,8,1]","arrowright","","","0","6","65","300","[""0055_N0300_K0065_NOCLIQUE"",""0032_N0300_K0065_CLIQUE""]"
"","","","","","audio-keyboard-response","76","375299","0.0-54.1-0.1-1.1","","null","audio_feedback/shuffles/shuffle01.mp3","null","","","","","0","6","65","300","[""0055_N0300_K0065_NOCLIQUE"",""0032_N0300_K0065_CLIQUE""]"
"","","","","","canvas-keyboard-response","77","377503","0.0-54.2-0.2-0.2","","2154",""," ","[6,255,84,74,233,7,81,212,153,252,139,83,241,186,80,76,125,51,62,299,267,118,184,277,43,20,134,40,75,14,181,69,128,113,216,38,182,109,71,262,59,224,21,32,159,221,275,156,229,68,291,86,244,260,16,35,104,185,11,67,13,276,9,294,55,214,172,247,126,188,52,167,95,61,298,60,121,136,25,2,274,202,100,281,135,175,147,137,79,151,31,29,103,204,295,293,163,110,178,53,108,44,210,168,297,101,278,220,18,249,105,116,219,263,145,158,228,238,63,251,152,287,97,28,50,30,39,193,218,271,200,240,198,73,288,282,54,37,106,46,129,66,225,174,124,246,223,8,279,259,296,203,47,1,176,72,42,292,115,215,232,236,114,169,17,180,265,146,190,273,266,258,41,256,195,133,141,268,148,189,98,33,235,207,92,231,197,49,250,165,170,164,89,239,248,36,209,10,117,269,27,112,64,150,57,26,226,253,111,217,206,187,243,154,58,22,70,19,107,211,48,289,132,91,173,12,138,161,290,196,183,130,94,284,131,144,23,179,201,122,140,88,283,78,257,230,102,213,264,171,90,96,205,177,166,245,93,157,286,99,160,280,227,191,5,0,270,65,285,85,123,34,261,127,162,242,45,192,15,194,237,3,77,222,24,119,4,272,199,149,120,143,155,56,208,254,234,142,82,87]","arrowright","","","0","6","65","300","[""0055_N0300_K0065_NOCLIQUE"",""0032_N0300_K0065_CLIQUE""]"
"","","","","","audio-keyboard-response","78","378280","0.0-54.2-0.2-1.2","","null","audio_feedback/shuffles/shuffle01.mp3","null","","","","","0","6","65","300","[""0055_N0300_K0065_NOCLIQUE"",""0032_N0300_K0065_CLIQUE""]"
"","","","","","canvas-keyboard-response","79","381189","0.0-54.3-0.3-0.3","","2859",""," ","[38,273,263,285,75,51,66,198,190,174,18,9,205,116,162,87,177,59,34,3,251,168,7,45,128,189,156,225,278,260,192,83,13,287,296,42,221,288,30,281,77,226,79,262,137,120,26,91,224,138,33,147,253,298,210,276,257,12,243,70,173,67,41,240,249,201,155,187,197,265,292,230,194,232,282,169,24,223,227,108,29,220,157,258,119,216,222,22,81,57,50,255,191,112,99,136,61,171,182,5,109,123,186,27,118,135,163,140,4,53,219,132,103,293,46,40,141,36,204,126,188,270,20,17,146,52,21,76,165,48,158,98,71,252,184,90,6,209,228,199,196,267,25,139,289,279,115,80,261,167,264,19,259,234,93,107,242,44,130,74,89,64,86,235,142,94,286,104,69,122,214,277,256,244,247,37,23,170,172,145,183,32,82,200,185,68,43,206,181,8,113,117,47,274,180,248,161,237,65,212,114,218,154,58,125,121,176,284,14,290,211,133,179,100,208,105,295,166,272,1,127,54,153,124,275,72,254,175,151,159,101,106,16,60,207,195,2,202,271,203,236,294,10,229,35,63,56,148,233,283,49,150,269,143,39,0,217,73,268,193,241,164,280,88,96,85,11,129,55,266,291,15,160,84,102,152,31,297,92,178,239,246,250,78,238,144,245,97,95,215,134,111,231,299,62,28,110,149,213,131]","arrowright","","","0","6","65","300","[""0055_N0300_K0065_NOCLIQUE"",""0032_N0300_K0065_CLIQUE""]"
"","","","","","audio-keyboard-response","80","381959","0.0-54.3-0.3-1.3","","null","audio_feedback/shuffles/shuffle01.mp3","null","","","","","0","6","65","300","[""0055_N0300_K0065_NOCLIQUE"",""0032_N0300_K0065_CLIQUE""]"
"","","","","","canvas-keyboard-response","81","385557","0.0-54.4-0.4-0.4","","3547","","arrowright","[51,1,133,90,156,267,184,265,141,232,75,76,212,95,104,225,65,275,295,222,43,58,175,191,68,247,238,206,23,69,199,254,97,223,100,129,92,9,164,143,242,292,147,183,185,159,103,194,64,276,67,42,8,236,228,174,146,177,221,32,124,153,121,263,36,34,134,268,186,49,231,66,179,261,273,63,257,11,119,45,162,102,176,109,15,219,192,82,299,118,240,202,142,106,168,209,149,163,107,50,122,210,22,195,72,54,246,130,190,197,213,253,264,84,170,113,279,272,46,123,60,180,2,148,150,173,44,215,30,62,203,171,24,157,256,283,296,52,86,7,282,55,188,297,26,181,96,108,70,259,161,13,16,80,286,230,114,277,294,151,285,249,81,5,187,289,250,71,284,274,255,38,132,216,278,53,48,227,116,91,101,229,25,33,248,78,241,83,61,85,110,154,182,208,77,31,40,287,234,4,224,158,189,214,291,105,120,269,160,131,12,211,128,205,56,155,271,74,165,127,298,152,10,59,89,293,237,196,19,28,6,204,262,251,17,217,126,218,73,167,200,14,280,266,57,94,125,220,172,137,87,79,193,0,112,20,138,140,226,166,281,245,115,3,244,252,27,201,243,270,39,198,99,35,93,41,290,144,37,145,207,233,260,235,288,88,47,29,111,136,139,178,98,117,169,258,18,21,239,135]","arrowright","","true","0","6","65","300","[""0055_N0300_K0065_NOCLIQUE"",""0032_N0300_K0065_CLIQUE""]"
"","","","","","audio-keyboard-response","82","386179","0.0-54.4-0.4-1.4","","null","audio_feedback/right/coin01.mp3","null","","","","","0","6","65","300","[""0055_N0300_K0065_NOCLIQUE"",""0032_N0300_K0065_CLIQUE""]"
"","","","","","canvas-keyboard-response","83","387100","0.0-55.0-0.0-0.0","","867",""," ","[237,266,129,217,144,4,177,79,166,114,160,8,13,131,68,258,223,215,281,45,243,16,24,289,31,143,0,52,200,216,109,295,197,204,221,189,218,78,70,248,212,88,276,287,239,54,22,161,291,146,155,151,164,236,98,59,179,30,60,157,82,76,198,282,102,229,278,140,257,244,262,26,225,233,272,273,104,178,74,111,254,284,115,168,271,86,94,167,142,147,264,156,61,90,203,62,173,196,25,15,283,235,242,208,10,246,117,256,211,227,286,101,126,219,14,194,118,269,214,277,67,106,224,56,231,172,139,107,159,55,38,176,27,210,93,43,17,44,100,50,182,138,57,72,241,133,49,47,185,23,85,180,33,290,127,298,249,71,5,171,9,121,64,163,192,158,29,188,11,207,84,77,261,288,12,141,205,162,183,122,20,134,137,265,105,206,299,18,69,95,202,260,187,21,247,184,174,120,41,245,150,39,240,193,97,148,154,116,267,112,132,169,113,297,170,128,6,89,153,279,230,2,136,234,228,275,213,296,253,35,66,103,238,83,91,220,37,28,181,280,165,108,232,119,96,268,222,270,3,293,199,73,292,53,7,46,80,294,19,201,124,51,259,34,87,190,130,274,58,175,81,285,250,75,125,145,191,48,63,92,226,209,65,135,195,186,251,263,42,152,255,252,123,36,110,1,149,40,99,32]","arrowright","","","0","7","65","300","[""0077_N0300_K0065_NOCLIQUE"",""0047_N0300_K0065_CLIQUE""]"
"","","","","","audio-keyboard-response","84","387879","0.0-55.0-0.0-1.0","","null","audio_feedback/shuffles/shuffle01.mp3","null","","","","","0","7","65","300","[""0077_N0300_K0065_NOCLIQUE"",""0047_N0300_K0065_CLIQUE""]"
"","","","","","canvas-keyboard-response","85","390125","0.0-55.1-0.1-0.1","","2193",""," ","[58,62,39,12,31,233,44,27,268,283,195,262,7,47,161,202,75,203,80,252,251,18,247,60,133,266,177,297,16,163,74,274,99,265,103,230,248,148,276,128,26,278,67,66,222,132,13,119,183,96,290,272,153,271,293,216,89,223,116,239,56,82,3,255,299,298,176,186,258,151,33,229,101,162,42,123,228,21,287,68,226,152,110,59,160,53,243,236,179,81,24,114,144,295,32,34,263,279,254,124,70,194,296,135,150,221,9,209,118,86,61,184,136,72,84,28,277,212,256,167,127,245,69,46,121,217,219,173,196,122,215,237,193,156,52,198,51,294,146,92,164,199,108,238,214,90,30,139,36,159,88,129,192,235,76,97,242,253,157,98,288,142,19,106,190,208,259,64,2,264,105,22,285,280,15,224,41,241,91,275,120,174,286,77,188,40,172,178,20,112,218,55,182,200,140,137,244,43,130,138,171,141,168,14,113,289,210,102,94,134,35,240,191,273,282,211,205,231,180,201,250,206,220,54,207,111,117,87,109,17,143,37,126,257,187,79,165,45,38,227,1,284,269,169,8,95,281,232,104,5,125,23,29,83,85,260,100,261,107,11,131,158,71,115,48,197,50,204,0,49,185,270,4,93,170,267,292,189,10,249,6,166,175,234,147,246,78,213,155,154,225,57,25,149,63,73,145,181,65,291]","arrowright","","","0","7","65","300","[""0077_N0300_K0065_NOCLIQUE"",""0047_N0300_K0065_CLIQUE""]"
"","","","","","audio-keyboard-response","86","390899","0.0-55.1-0.1-1.1","","null","audio_feedback/shuffles/shuffle01.mp3","null","","","","","0","7","65","300","[""0077_N0300_K0065_NOCLIQUE"",""0047_N0300_K0065_CLIQUE""]"
"","","","","","canvas-keyboard-response","87","394586","0.0-55.2-0.2-0.2","","3635",""," ","[244,187,280,227,105,60,62,198,98,17,122,111,24,78,207,150,299,292,108,71,248,203,155,25,138,271,86,119,124,151,142,135,45,195,154,157,161,213,239,249,159,202,64,291,57,165,67,257,289,252,166,191,287,234,136,123,212,204,245,109,273,189,262,275,144,256,28,297,141,103,102,185,76,197,180,222,42,196,266,247,18,237,282,5,104,39,173,235,269,277,7,10,43,241,160,90,58,230,224,265,115,33,226,70,130,188,148,37,30,79,201,284,149,162,258,88,193,6,260,54,1,77,296,205,80,4,240,184,145,23,194,218,192,121,268,267,34,59,41,22,0,48,106,65,21,55,208,120,233,199,40,68,2,250,231,167,242,129,274,44,215,116,175,14,177,137,139,174,12,38,11,172,113,46,100,20,229,81,293,61,95,69,181,255,156,263,110,190,253,9,125,225,53,85,264,176,186,179,91,270,36,178,99,283,15,31,49,87,295,281,290,32,29,118,8,134,16,101,163,97,47,84,13,228,73,294,56,200,131,52,169,232,164,278,251,63,114,216,128,210,243,146,51,246,82,27,220,35,94,147,223,298,259,288,158,19,66,261,92,170,285,133,211,93,112,107,236,217,83,50,132,221,74,168,117,183,127,279,26,140,214,276,3,219,143,89,96,171,238,126,286,254,153,72,182,152,272,209,75,206]","arrowright","","","0","7","65","300","[""0077_N0300_K0065_NOCLIQUE"",""0047_N0300_K0065_CLIQUE""]"
"","","","","","audio-keyboard-response","88","395359","0.0-55.2-0.2-1.2","","null","audio_feedback/shuffles/shuffle01.mp3","null","","","","","0","7","65","300","[""0077_N0300_K0065_NOCLIQUE"",""0047_N0300_K0065_CLIQUE""]"
"","","","","","canvas-keyboard-response","89","399229","0.0-55.3-0.3-0.3","","3818",""," ","[61,77,190,164,106,39,149,255,109,118,114,111,13,286,274,170,130,270,142,95,240,153,43,159,290,214,155,233,24,229,72,110,148,244,14,51,236,188,66,115,11,136,222,88,145,129,193,239,112,90,35,266,253,182,73,243,123,198,220,135,64,75,167,299,3,251,125,289,257,177,117,38,26,121,34,264,163,94,295,29,1,165,231,287,60,242,285,259,97,154,206,247,89,84,132,278,42,128,17,249,191,192,40,294,133,281,283,293,9,144,63,252,273,45,74,93,212,67,113,271,179,248,168,137,143,120,78,178,211,219,53,82,201,263,70,186,138,68,134,52,210,199,30,157,69,258,122,27,83,180,50,79,46,209,37,224,230,297,87,254,203,101,175,147,47,292,99,28,228,102,7,96,8,262,185,32,267,65,291,23,0,71,103,261,98,22,85,184,279,207,146,275,62,108,33,36,234,189,19,158,127,194,76,256,215,81,92,80,269,156,276,104,55,12,225,223,58,217,25,250,204,232,2,213,288,200,31,218,141,171,284,172,162,48,16,187,15,21,169,86,4,126,216,151,260,10,139,241,44,296,41,280,59,140,183,272,197,176,116,131,124,161,105,100,202,205,174,235,91,119,196,265,57,221,160,6,238,208,150,181,5,173,56,277,152,268,195,54,49,166,298,245,237,226,107,227,20,282,246,18]","arrowright","","","0","7","65","300","[""0077_N0300_K0065_NOCLIQUE"",""0047_N0300_K0065_CLIQUE""]"
"","","","","","audio-keyboard-response","90","399999","0.0-55.3-0.3-1.3","","null","audio_feedback/shuffles/shuffle01.mp3","null","","","","","0","7","65","300","[""0077_N0300_K0065_NOCLIQUE"",""0047_N0300_K0065_CLIQUE""]"
"","","","","","canvas-keyboard-response","91","404408","0.0-55.4-0.4-0.4","","4357",""," ","[127,290,29,252,63,55,39,81,50,208,148,71,198,119,281,99,94,181,2,219,21,82,203,169,96,194,24,153,217,190,150,296,262,228,176,48,53,144,34,159,31,28,140,121,147,157,8,129,240,52,179,146,116,275,35,246,68,141,204,160,93,131,101,226,87,1,259,136,197,260,139,16,128,89,51,107,287,261,18,237,166,210,278,215,151,37,177,5,12,3,180,213,206,265,0,214,283,182,175,120,79,299,60,135,4,91,76,73,17,294,298,258,183,145,47,138,77,167,271,142,130,6,209,38,174,193,106,192,117,72,100,227,284,103,249,64,108,288,86,285,245,137,218,75,286,90,185,65,212,7,61,256,200,289,33,232,207,205,114,70,267,23,84,199,88,295,133,250,162,238,11,253,292,220,231,273,143,201,83,269,277,244,19,40,46,111,276,25,189,171,282,172,161,163,14,22,74,257,27,216,78,56,211,280,242,272,104,134,255,20,173,113,123,224,187,62,221,41,168,32,69,57,251,30,178,36,229,248,26,45,66,225,222,80,195,164,95,67,233,196,264,92,186,191,263,58,43,124,184,155,42,132,125,10,118,98,247,110,165,279,268,126,112,170,115,188,254,266,243,59,149,49,270,85,97,235,236,156,105,154,230,241,223,152,234,9,13,109,202,274,239,122,15,54,44,297,293,291,102,158]","arrowright","","","0","7","65","300","[""0077_N0300_K0065_NOCLIQUE"",""0047_N0300_K0065_CLIQUE""]"
"","","","","","audio-keyboard-response","92","405179","0.0-55.4-0.4-1.4","","null","audio_feedback/shuffles/shuffle01.mp3","null","","","","","0","7","65","300","[""0077_N0300_K0065_NOCLIQUE"",""0047_N0300_K0065_CLIQUE""]"
"","","","","","canvas-keyboard-response","93","406987","0.0-55.5-0.5-0.5","","1761","","arrowright","[19,252,151,12,120,41,288,272,125,108,74,243,98,48,83,26,287,27,86,188,144,245,88,224,257,6,214,56,30,182,95,212,281,51,237,198,285,228,90,1,35,183,62,136,278,267,100,14,235,89,107,258,225,280,150,244,115,139,127,274,283,111,269,168,264,81,193,102,123,247,293,164,106,69,126,47,253,63,227,268,170,141,292,72,71,122,45,273,155,262,87,166,103,216,130,3,259,13,113,213,194,284,232,156,251,2,169,66,112,22,10,211,154,67,209,17,255,299,238,246,146,167,70,171,76,4,9,233,271,145,101,217,82,11,58,59,38,91,40,116,147,138,50,249,37,159,185,42,173,55,187,53,142,134,265,137,132,77,33,177,105,54,163,43,204,143,184,202,297,96,80,149,242,8,186,277,290,221,176,174,79,44,261,92,240,39,286,236,196,46,158,205,16,129,203,282,270,153,275,298,241,18,296,266,206,128,161,256,190,133,32,230,28,36,73,109,279,131,140,121,222,114,124,64,254,57,295,289,179,135,197,21,172,162,223,110,25,189,199,7,117,178,250,291,65,99,165,52,119,175,201,260,231,23,85,61,78,93,24,210,104,276,294,20,181,15,152,219,207,157,195,248,208,97,192,49,31,84,215,29,34,94,0,180,218,118,239,75,191,234,229,5,200,60,148,263,160,220,68,226]","arrowright","","true","0","7","65","300","[""0077_N0300_K0065_NOCLIQUE"",""0047_N0300_K0065_CLIQUE""]"
"","","","","","audio-keyboard-response","94","407620","0.0-55.5-0.5-1.5","","null","audio_feedback/right/coin01.mp3","null","","","","","0","7","65","300","[""0077_N0300_K0065_NOCLIQUE"",""0047_N0300_K0065_CLIQUE""]"
"","","","","","canvas-keyboard-response","95","410616","0.0-56.0-0.0-0.0","","2944",""," ","[142,75,103,64,194,133,104,137,19,92,284,128,121,132,85,139,97,109,12,153,120,196,214,247,272,207,118,6,123,57,205,209,255,296,212,266,187,98,238,279,70,164,236,175,59,60,297,256,162,105,30,28,165,289,226,276,202,129,89,298,149,122,246,220,35,36,259,140,197,56,229,110,295,79,242,80,170,232,243,2,283,61,83,171,147,223,8,87,199,27,16,168,40,251,184,204,158,174,152,101,73,218,136,127,257,111,210,46,58,90,141,81,96,78,50,182,4,68,277,24,107,126,82,116,190,195,17,130,26,230,206,9,224,151,37,288,45,290,221,183,33,267,113,157,173,169,3,146,167,86,285,227,239,180,217,71,291,287,280,200,293,189,0,25,176,260,253,114,47,138,278,14,20,51,215,185,225,134,43,34,249,241,244,99,11,263,163,292,67,237,188,179,178,148,261,219,29,38,84,76,198,258,13,74,154,23,145,66,32,262,150,39,62,5,299,115,44,240,250,49,172,270,15,1,177,269,282,102,143,42,192,112,208,94,77,203,211,248,100,155,235,294,95,31,106,72,191,201,93,274,181,22,65,160,222,264,233,161,52,63,55,18,21,159,124,69,231,131,228,271,268,7,53,88,286,254,91,54,245,252,275,216,117,48,193,186,166,156,234,10,119,108,41,265,213,135,281,144,125,273]","arrowright","","","0","8","60","300","[""0067_N0300_K0060_NOCLIQUE"",""0077_N0300_K0060_CLIQUE""]"
"","","","","","audio-keyboard-response","96","411399","0.0-56.0-0.0-1.0","","null","audio_feedback/shuffles/shuffle01.mp3","null","","","","","0","8","60","300","[""0067_N0300_K0060_NOCLIQUE"",""0077_N0300_K0060_CLIQUE""]"
"","","","","","canvas-keyboard-response","97","412148","0.0-56.1-0.1-0.1","","699","","arrowright","[106,124,160,149,179,184,91,278,217,240,108,254,46,141,121,131,271,53,298,188,92,83,261,77,186,100,161,30,137,226,239,103,43,109,38,274,178,158,296,267,287,155,29,134,175,263,128,10,56,119,26,223,176,218,20,236,229,153,45,180,35,270,34,101,67,18,242,14,145,84,174,280,104,273,294,297,69,82,157,152,120,289,87,209,21,116,227,80,283,200,272,166,258,75,222,248,268,19,81,135,266,187,275,201,284,220,63,173,41,192,95,70,225,246,213,265,286,111,204,159,150,1,215,167,115,113,98,59,228,207,142,295,48,197,15,140,89,22,292,183,49,208,249,224,33,94,269,127,168,205,247,47,68,9,110,64,132,136,57,216,50,232,79,11,16,133,181,54,74,291,164,8,123,7,58,102,114,162,78,170,221,96,279,23,37,99,17,52,148,24,93,0,117,31,177,262,260,112,138,139,163,129,61,125,257,122,39,143,5,85,264,97,276,244,234,191,107,13,241,144,12,6,251,42,90,172,86,151,293,40,252,253,36,4,189,194,156,182,73,51,282,196,245,214,44,243,203,55,171,285,193,72,212,288,65,60,210,185,231,105,195,3,281,277,250,230,76,28,299,32,206,211,146,202,147,165,259,238,198,235,169,199,290,233,190,62,66,88,130,118,27,219,25,71,255,256,154,126,2,237]","arrowright","","true","0","8","60","300","[""0067_N0300_K0060_NOCLIQUE"",""0077_N0300_K0060_CLIQUE""]"
"","","","","","audio-keyboard-response","98","412759","0.0-56.1-0.1-1.1","","null","audio_feedback/right/coin01.mp3","null","","","","","0","8","60","300","[""0067_N0300_K0060_NOCLIQUE"",""0077_N0300_K0060_CLIQUE""]"
"","","","","","canvas-keyboard-response","99","414709","0.0-57.0-0.0-0.0","","1902",""," ","[22,251,150,213,58,148,105,86,205,0,151,3,2,5,10,201,173,249,20,222,144,183,103,273,256,264,125,259,217,211,185,153,220,45,158,81,80,122,39,59,156,112,270,4,61,285,169,69,52,88,233,137,63,72,209,227,230,290,282,6,197,120,297,292,44,149,30,268,50,1,26,242,195,245,53,16,46,91,261,214,231,33,276,263,184,176,62,218,291,78,71,299,113,36,219,274,157,14,260,99,253,265,64,108,41,34,74,118,121,194,254,141,225,212,266,65,76,202,165,284,248,163,92,47,221,181,269,17,70,93,18,40,127,191,287,31,198,267,66,182,199,271,226,162,207,262,106,210,77,57,8,60,133,98,132,23,19,84,241,232,236,7,168,111,136,11,190,170,123,13,124,38,110,67,188,208,48,229,95,55,244,85,28,279,87,129,75,224,25,286,216,27,143,255,35,275,146,29,51,117,79,139,131,12,293,280,257,9,130,189,288,160,104,142,145,96,252,277,90,42,240,164,192,186,215,115,179,154,138,298,250,239,68,238,21,234,196,73,172,140,32,295,177,272,15,178,119,180,296,43,187,102,101,166,100,235,175,200,155,237,203,97,37,83,289,109,116,171,56,152,49,128,243,294,193,246,204,147,114,258,278,94,247,161,159,174,82,281,134,135,107,223,167,283,206,228,54,89,24,126]","arrowright","","","0","9","60","300","[""0084_N0300_K0060_NOCLIQUE"",""0038_N0300_K0060_CLIQUE""]"
"","","","","","audio-keyboard-response","100","415479","0.0-57.0-0.0-1.0","","null","audio_feedback/shuffles/shuffle01.mp3","null","","","","","0","9","60","300","[""0084_N0300_K0060_NOCLIQUE"",""0038_N0300_K0060_CLIQUE""]"
"","","","","","canvas-keyboard-response","101","416342","0.0-57.1-0.1-0.1","","809","","arrowright","[92,226,79,164,267,230,113,125,272,64,142,82,3,175,57,146,185,254,211,67,19,123,195,97,165,47,112,150,253,214,178,213,39,283,119,255,227,291,163,232,260,27,46,76,296,54,94,208,179,289,25,149,245,26,100,294,186,224,52,148,133,273,102,177,8,256,5,51,101,198,80,220,14,96,263,105,299,124,295,190,206,265,259,182,22,216,237,85,187,286,66,200,171,48,292,239,106,155,160,45,276,69,58,10,287,158,261,229,41,184,201,236,62,202,288,109,152,31,235,262,88,207,153,251,298,191,30,60,196,42,241,209,297,70,89,4,132,189,129,104,140,242,156,193,174,32,167,249,275,162,246,145,18,36,228,264,222,21,59,144,199,75,278,127,223,1,103,279,154,71,40,231,117,219,217,126,34,183,210,282,114,61,204,74,257,274,284,116,16,107,166,28,98,120,6,169,83,281,73,128,176,240,139,110,250,24,87,143,194,53,244,43,50,135,271,170,49,77,118,136,72,221,2,93,65,141,35,266,218,172,280,115,277,205,173,168,181,63,147,33,290,84,122,269,225,157,285,248,151,0,121,37,138,99,203,29,268,212,23,159,130,108,238,7,258,243,131,95,137,161,12,192,293,17,55,13,81,91,68,111,90,11,270,38,188,56,86,233,15,252,180,197,234,215,247,44,78,20,9,134]","arrowright","","true","0","9","60","300","[""0084_N0300_K0060_NOCLIQUE"",""0038_N0300_K0060_CLIQUE""]"
"","","","","","audio-keyboard-response","102","416960","0.0-57.1-0.1-1.1","","null","audio_feedback/right/coin01.mp3","null","","","","","0","9","60","300","[""0084_N0300_K0060_NOCLIQUE"",""0038_N0300_K0060_CLIQUE""]"
"","","","","","canvas-keyboard-response","103","417534","0.0-58.0-0.0-0.0","","524",""," ","[68,243,211,9,167,95,6,143,295,32,81,186,201,3,96,292,194,41,62,289,55,148,52,53,112,253,296,104,212,119,86,231,153,146,261,266,272,283,24,10,122,162,299,229,135,125,182,131,123,205,106,260,195,228,74,80,31,276,111,103,14,89,210,222,2,108,190,64,157,155,99,140,137,156,284,75,109,224,271,196,129,185,118,207,136,258,288,79,274,270,275,204,70,43,193,63,174,61,208,252,44,22,242,58,168,0,158,77,69,187,173,238,117,11,251,181,50,13,115,175,144,20,93,84,124,29,23,141,98,244,297,220,126,59,189,110,287,277,164,102,256,177,237,215,282,267,94,12,262,91,263,293,35,65,132,101,120,7,240,213,166,39,257,72,269,171,265,42,150,291,191,49,217,246,294,216,218,159,206,26,235,78,1,40,76,16,188,268,100,21,51,54,133,286,56,198,18,71,241,170,236,90,264,5,37,180,85,223,47,285,247,107,105,233,27,200,169,92,28,202,145,199,151,239,221,225,19,280,184,165,273,8,57,192,48,97,298,279,139,219,183,121,248,45,17,82,161,214,60,278,130,113,290,172,127,34,88,152,128,25,197,83,142,73,134,149,178,176,67,259,15,179,203,226,46,209,116,38,36,254,154,227,250,232,4,230,234,138,87,30,281,33,255,147,163,245,66,160,249,114]","arrowleft","","","0","10","55","300","[""0009_N0300_K0055_CLIQUE"",""0086_N0300_K0055_NOCLIQUE""]"
"","","","","","audio-keyboard-response","104","418299","0.0-58.0-0.0-1.0","","null","audio_feedback/shuffles/shuffle01.mp3","null","","","","","0","10","55","300","[""0009_N0300_K0055_CLIQUE"",""0086_N0300_K0055_NOCLIQUE""]"
"","","","","","canvas-keyboard-response","105","421053","0.0-58.1-0.1-0.1","","2706",""," ","[229,85,278,214,232,38,122,13,89,223,162,121,24,231,264,52,246,21,133,43,196,188,266,185,130,206,25,255,88,31,66,22,250,172,263,210,4,218,219,213,157,115,125,220,280,156,140,224,204,187,260,195,202,30,100,209,27,242,9,198,201,227,90,149,39,46,128,274,99,16,225,109,131,244,45,126,23,233,240,290,103,104,254,84,78,177,137,101,91,178,136,2,68,75,55,57,164,191,15,236,208,199,113,258,41,143,289,271,56,36,12,165,139,73,261,181,203,190,70,174,243,95,58,123,111,6,132,59,110,1,259,270,239,129,17,32,298,92,277,186,253,291,275,106,169,295,64,18,50,148,93,228,184,183,234,151,138,257,207,150,48,180,114,247,146,283,160,153,81,189,154,152,7,69,212,279,245,94,238,135,44,67,107,117,265,33,86,63,294,11,297,286,28,14,205,98,256,124,72,200,145,161,159,248,105,168,40,272,87,268,285,144,292,62,284,71,252,163,49,0,293,288,60,120,276,281,112,282,34,118,108,237,211,102,216,197,170,53,147,10,175,79,35,222,76,194,80,267,61,5,217,193,3,299,26,51,171,167,173,182,83,273,241,8,179,287,77,230,158,37,116,269,166,235,141,82,29,134,226,47,142,192,251,19,96,221,215,176,249,119,262,155,97,296,65,20,54,74,127,42]","arrowleft","","","0","10","55","300","[""0009_N0300_K0055_CLIQUE"",""0086_N0300_K0055_NOCLIQUE""]"
"","","","","","audio-keyboard-response","106","421818","0.0-58.1-0.1-1.1","","null","audio_feedback/shuffles/shuffle01.mp3","null","","","","","0","10","55","300","[""0009_N0300_K0055_CLIQUE"",""0086_N0300_K0055_NOCLIQUE""]"
"","","","","","canvas-keyboard-response","107","423967","0.0-58.2-0.2-0.2","","2097",""," ","[238,192,191,4,75,167,252,67,18,128,157,236,30,113,40,274,17,22,114,85,281,152,57,28,129,224,108,260,99,276,132,5,12,249,32,266,80,179,298,131,287,185,42,294,59,222,38,218,91,2,71,267,116,106,56,29,55,293,119,183,138,164,6,258,161,153,256,296,155,226,290,277,46,96,122,117,208,51,78,197,215,240,50,160,291,53,64,235,170,289,49,74,282,73,184,193,172,283,3,136,135,279,13,284,39,62,120,262,216,1,66,261,147,265,280,118,125,100,223,43,86,98,103,84,61,92,206,150,278,16,9,214,24,87,244,90,207,200,204,178,295,242,140,158,163,186,7,187,35,190,210,26,124,112,239,232,65,285,10,211,182,248,69,58,189,181,196,217,14,81,174,143,27,253,162,144,247,166,171,255,270,54,41,11,165,156,21,111,180,173,273,134,230,139,45,221,104,286,194,76,201,126,269,94,60,83,47,250,0,142,148,37,137,241,159,97,70,254,141,198,177,188,151,268,89,19,231,121,102,127,169,299,77,234,257,8,212,15,272,209,213,275,52,110,101,154,264,93,203,288,123,220,25,263,146,292,195,31,79,202,20,246,237,228,271,176,149,95,63,205,105,48,251,34,297,233,219,225,145,168,133,109,68,107,36,175,227,243,130,82,88,259,245,199,44,72,229,23,115,33]","arrowleft","","","0","10","55","300","[""0009_N0300_K0055_CLIQUE"",""0086_N0300_K0055_NOCLIQUE""]"
"","","","","","audio-keyboard-response","108","424739","0.0-58.2-0.2-1.2","","null","audio_feedback/shuffles/shuffle01.mp3","null","","","","","0","10","55","300","[""0009_N0300_K0055_CLIQUE"",""0086_N0300_K0055_NOCLIQUE""]"
"","","","","","canvas-keyboard-response","109","425430","0.0-58.3-0.3-0.3","","637","","arrowright","[249,281,203,287,274,143,169,232,269,54,135,88,166,288,182,279,154,194,229,67,273,202,60,59,78,285,170,100,12,296,188,227,120,237,242,141,136,41,235,123,206,200,193,24,114,241,158,132,184,176,17,102,216,298,257,290,69,168,294,48,221,140,261,5,62,22,207,233,204,89,47,291,110,124,106,92,192,236,39,95,266,23,146,127,118,145,155,255,289,55,214,52,152,244,209,44,156,163,151,9,21,157,225,15,171,105,16,30,97,130,215,128,28,7,258,74,61,37,34,6,98,125,26,222,80,238,142,84,99,213,57,49,276,38,56,293,212,73,265,46,147,262,160,81,19,162,90,64,230,139,252,40,201,13,211,32,122,234,173,205,103,167,134,144,63,108,250,133,190,299,282,208,45,96,223,115,109,218,0,79,270,239,35,177,240,254,58,191,161,87,11,66,65,195,165,292,210,248,217,219,51,94,271,185,226,85,277,295,247,18,43,268,187,278,112,246,159,284,198,286,25,150,264,119,93,297,179,180,148,283,253,104,77,189,138,10,113,172,70,4,245,224,220,50,126,149,1,280,256,251,181,91,101,267,53,42,228,14,175,243,197,196,27,121,36,260,275,8,31,86,76,131,29,174,3,75,199,33,2,111,272,231,137,71,186,164,82,153,68,72,20,83,117,107,129,259,183,263,178,116]","arrowleft","","false","0","10","55","300","[""0009_N0300_K0055_CLIQUE"",""0086_N0300_K0055_NOCLIQUE""]"
"","","","","","audio-keyboard-response","110","426239","0.0-58.3-0.3-1.3","","null","audio_feedback/wrong/error01.mp3","null","","","","","0","10","55","300","[""0009_N0300_K0055_CLIQUE"",""0086_N0300_K0055_NOCLIQUE""]"
"","","","","","canvas-keyboard-response","111","427954","0.0-59.0-0.0-0.0","","1669",""," ","[3,274,243,17,129,93,81,268,36,235,0,44,87,31,221,120,262,99,293,37,34,261,226,65,122,32,111,102,212,247,183,131,213,29,12,216,25,192,151,219,206,62,161,257,168,223,13,124,76,145,272,117,231,48,258,266,201,64,149,52,263,140,133,211,204,127,265,54,24,185,138,224,227,83,82,74,30,156,176,200,116,5,100,291,277,86,121,27,109,284,172,88,46,107,73,283,193,214,267,9,297,26,106,289,42,244,292,40,279,128,71,89,280,146,232,178,105,271,174,215,19,108,218,296,125,45,246,84,239,207,43,39,115,58,8,80,202,187,251,1,132,101,248,61,181,225,195,153,55,164,50,35,112,33,69,114,110,197,170,66,154,238,245,141,234,294,237,288,70,270,299,143,196,152,182,165,189,298,75,205,137,233,94,220,259,41,119,199,186,249,166,139,250,150,126,228,16,175,169,229,18,21,282,173,236,63,60,123,287,240,91,118,275,72,160,286,148,285,253,190,113,269,59,6,15,159,222,98,136,194,68,78,180,130,171,104,188,90,147,179,208,49,158,103,167,252,210,97,95,177,20,10,198,281,157,142,135,295,276,96,255,67,51,79,56,144,23,4,47,217,134,230,22,203,57,191,11,163,242,162,92,256,28,2,7,290,85,254,77,155,264,273,53,209,184,38,14,260,241,278]","arrowright","","","0","11","55","300","[""0044_N0300_K0055_NOCLIQUE"",""0093_N0300_K0055_CLIQUE""]"
"","","","","","audio-keyboard-response","112","428719","0.0-59.0-0.0-1.0","","null","audio_feedback/shuffles/shuffle01.mp3","null","","","","","0","11","55","300","[""0044_N0300_K0055_NOCLIQUE"",""0093_N0300_K0055_CLIQUE""]"
"","","","","","canvas-keyboard-response","113","431035","0.0-59.1-0.1-0.1","","2266",""," ","[52,267,190,140,128,39,144,285,44,59,123,149,139,279,177,242,277,288,152,270,161,243,287,193,83,88,153,69,194,34,178,38,171,268,71,70,77,248,174,192,62,198,32,90,183,229,231,227,129,296,255,211,108,214,218,245,281,168,147,6,223,103,201,141,169,246,97,232,261,133,186,109,217,266,122,257,234,28,290,113,167,110,12,106,46,293,125,180,50,175,247,72,105,244,80,78,203,170,27,35,18,96,74,98,26,166,73,236,91,212,199,294,298,179,151,5,143,67,185,53,210,19,155,79,286,40,55,209,275,264,76,4,136,45,297,235,29,215,163,164,165,114,219,119,221,22,17,2,220,184,280,252,49,207,10,148,23,16,222,213,58,256,95,189,51,274,37,130,228,195,68,57,239,173,197,299,289,13,11,156,273,206,121,200,283,254,172,21,75,14,36,145,272,134,63,160,15,154,118,54,230,260,238,284,187,84,208,258,120,100,216,86,202,278,94,146,60,24,99,33,43,104,250,159,117,132,142,263,7,1,241,224,85,226,102,137,9,135,276,25,138,64,8,233,292,282,101,204,20,176,124,240,253,61,116,112,66,262,196,158,150,47,3,259,41,31,107,89,111,93,188,181,127,65,87,82,291,81,295,42,48,30,205,131,162,269,157,237,265,92,126,191,115,251,182,225,0,249,56,271]","arrowright","","","0","11","55","300","[""0044_N0300_K0055_NOCLIQUE"",""0093_N0300_K0055_CLIQUE""]"
"","","","","","audio-keyboard-response","114","431819","0.0-59.1-0.1-1.1","","null","audio_feedback/shuffles/shuffle01.mp3","null","","","","","0","11","55","300","[""0044_N0300_K0055_NOCLIQUE"",""0093_N0300_K0055_CLIQUE""]"
"","","","","","canvas-keyboard-response","115","436257","0.0-59.2-0.2-0.2","","4392",""," ","[54,59,24,262,259,52,12,203,141,28,189,257,135,27,207,279,19,61,23,65,288,181,21,53,266,60,95,80,193,100,264,116,157,236,286,37,123,287,233,198,131,240,17,64,128,241,159,248,4,127,87,115,238,148,273,139,117,29,206,66,254,261,205,255,208,105,251,47,194,204,161,39,104,183,106,32,48,34,0,138,152,108,256,40,49,1,295,296,200,149,14,124,239,111,197,9,77,291,91,72,68,22,134,299,227,282,174,290,130,172,126,122,177,118,170,150,144,44,86,146,163,229,196,218,294,216,16,103,74,120,26,167,243,31,42,132,209,260,184,246,75,211,6,268,45,275,178,249,199,5,133,188,145,213,281,226,293,50,81,265,278,245,90,56,70,151,143,155,93,43,187,96,147,82,190,136,185,3,38,274,33,88,41,102,270,20,235,112,192,271,171,62,232,125,231,30,73,7,297,18,242,269,237,223,247,250,79,195,51,71,244,191,119,2,25,292,109,228,284,168,89,180,166,176,201,58,224,219,230,221,8,121,76,154,186,169,272,285,98,214,94,222,107,160,142,182,101,267,36,158,289,67,298,258,83,69,13,283,164,137,252,215,35,15,85,129,63,165,263,280,234,217,179,97,110,84,253,78,140,277,99,57,276,210,92,153,46,173,113,220,156,212,225,114,162,55,10,202,11,175]","arrowright","","","0","11","55","300","[""0044_N0300_K0055_NOCLIQUE"",""0093_N0300_K0055_CLIQUE""]"
"","","","","","audio-keyboard-response","116","437034","0.0-59.2-0.2-1.2","","null","audio_feedback/shuffles/shuffle01.mp3","null","","","","","0","11","55","300","[""0044_N0300_K0055_NOCLIQUE"",""0093_N0300_K0055_CLIQUE""]"
"","","","","","canvas-keyboard-response","117","438088","0.0-59.3-0.3-0.3","","1002","","arrowright","[0,253,204,236,182,37,151,172,99,58,91,213,3,106,29,13,152,242,293,80,133,149,46,174,218,226,62,239,200,43,101,290,109,198,11,299,124,75,180,267,144,201,283,145,4,150,245,196,28,92,287,23,154,228,162,47,186,143,275,112,125,221,51,10,69,95,89,36,237,206,177,159,134,190,251,55,173,18,44,73,187,255,42,39,25,33,197,74,209,65,107,181,294,49,103,256,246,288,261,208,184,276,252,266,20,262,189,175,241,183,129,243,131,227,280,9,77,223,83,146,191,137,141,132,254,298,160,14,2,295,105,279,52,263,108,285,88,268,139,166,222,284,264,273,86,128,286,158,195,230,282,122,138,32,250,259,140,15,194,169,87,168,6,60,248,1,278,291,30,114,53,185,50,270,234,210,116,117,94,70,119,12,292,167,260,8,199,277,93,102,265,216,76,269,59,231,220,235,240,163,148,176,193,64,82,155,66,225,35,27,22,142,31,165,147,90,41,179,26,135,258,111,100,45,54,244,56,205,19,71,136,126,164,118,48,120,34,297,72,5,24,238,296,281,40,202,289,229,79,232,274,207,110,271,17,214,63,161,272,224,57,68,38,192,130,219,16,212,123,96,85,97,98,249,217,157,61,67,84,178,188,121,215,78,211,81,170,104,113,247,257,171,203,7,127,115,233,156,21,153]","arrowright","","true","0","11","55","300","[""0044_N0300_K0055_NOCLIQUE"",""0093_N0300_K0055_CLIQUE""]"
"","","","","","audio-keyboard-response","118","438714","0.0-59.3-0.3-1.3","","null","audio_feedback/right/coin01.mp3","null","","","","","0","11","55","300","[""0044_N0300_K0055_NOCLIQUE"",""0093_N0300_K0055_CLIQUE""]"
"","","","","","canvas-keyboard-response","119","440633","0.0-60.0-0.0-0.0","","1865",""," ","[144,207,39,162,179,141,194,95,23,108,104,263,121,192,134,155,276,36,266,20,160,123,130,242,190,270,299,10,15,274,237,19,183,208,75,147,205,135,137,25,293,195,58,193,0,73,59,291,70,213,102,106,27,261,51,100,204,145,202,169,248,84,244,197,175,86,262,80,77,93,180,231,285,216,138,14,281,113,16,177,52,163,118,146,105,143,136,273,186,2,87,292,199,191,71,91,62,43,45,88,234,280,97,83,196,17,119,167,219,40,225,288,247,252,107,166,253,226,267,260,265,1,277,127,294,257,241,157,254,28,140,81,150,42,120,290,31,5,218,78,4,67,171,249,258,206,82,7,243,98,223,96,287,76,224,238,295,232,156,13,47,149,79,271,117,49,264,170,239,9,182,283,229,63,94,56,297,35,90,32,22,29,200,33,275,209,230,212,53,256,279,109,38,65,6,222,233,173,110,286,128,115,227,176,99,168,289,30,55,282,220,89,221,210,251,112,74,236,122,116,235,68,124,11,69,46,214,125,259,152,61,37,187,154,228,148,278,85,72,12,114,129,269,64,139,268,203,131,165,272,198,184,66,3,284,126,246,60,255,44,161,103,92,159,158,298,26,48,50,245,151,153,18,188,133,250,217,201,178,211,54,296,57,189,174,142,101,215,172,164,34,21,185,41,240,181,8,24,111,132]","arrowright","","","0","12","50","300","[""0027_N0300_K0050_NOCLIQUE"",""0020_N0300_K0050_CLIQUE""]"
"","","","","","audio-keyboard-response","120","441413","0.0-60.0-0.0-1.0","","null","audio_feedback/shuffles/shuffle01.mp3","null","","","","","0","12","50","300","[""0027_N0300_K0050_NOCLIQUE"",""0020_N0300_K0050_CLIQUE""]"
"","","","","","canvas-keyboard-response","121","442063","0.0-60.1-0.1-0.1","","599","","arrowright","[197,23,277,80,133,126,131,239,58,82,100,214,14,222,198,143,113,164,294,61,151,148,293,189,154,247,116,250,112,150,184,94,119,235,152,4,213,34,278,105,244,130,17,265,135,218,249,236,68,188,289,92,136,144,54,295,274,9,253,10,190,18,205,195,134,298,263,29,179,163,145,165,36,35,6,95,270,15,85,296,5,266,159,93,57,44,170,286,110,156,182,66,173,291,217,27,245,109,149,232,45,259,211,255,43,3,230,292,89,70,129,251,146,177,212,123,287,169,77,281,141,37,20,120,69,246,84,47,258,7,103,107,24,22,2,101,138,282,56,127,124,268,193,65,285,39,248,140,275,137,202,219,168,155,115,228,160,108,256,280,299,174,243,42,147,12,242,60,276,31,227,183,271,199,19,231,161,71,175,50,75,192,191,78,181,158,26,206,21,64,226,234,203,167,157,63,40,16,104,172,208,264,194,118,225,128,272,186,284,49,96,76,117,180,220,62,185,13,41,32,215,102,132,67,260,28,98,111,262,233,125,269,73,209,88,91,52,201,46,79,33,142,90,240,229,30,176,86,171,51,207,72,74,237,200,254,59,238,162,290,204,241,166,153,279,0,261,288,273,224,55,114,121,99,8,252,223,178,97,283,139,53,1,81,38,196,25,11,267,216,257,48,83,106,87,122,297,221,210,187]","arrowright","","true","0","12","50","300","[""0027_N0300_K0050_NOCLIQUE"",""0020_N0300_K0050_CLIQUE""]"
"","","","","","audio-keyboard-response","122","442674","0.0-60.1-0.1-1.1","","null","audio_feedback/right/coin01.mp3","null","","","","","0","12","50","300","[""0027_N0300_K0050_NOCLIQUE"",""0020_N0300_K0050_CLIQUE""]"
"","","","","","canvas-keyboard-response","123","443279","0.0-61.0-0.0-0.0","","551",""," ","[15,160,39,223,290,299,110,75,114,272,182,152,121,283,107,225,54,204,294,157,20,38,177,106,10,241,243,58,47,94,181,96,273,282,143,202,266,162,269,19,207,128,262,267,170,212,180,228,200,23,77,116,11,145,125,284,239,129,69,24,150,233,103,286,91,138,108,288,268,279,179,296,135,151,229,34,297,222,220,246,97,285,73,216,80,70,18,36,271,50,257,176,167,88,42,232,126,83,254,81,27,175,224,120,133,92,134,98,265,171,158,277,149,82,295,245,275,147,217,211,90,4,155,1,124,84,26,183,131,259,219,203,104,185,194,210,201,76,78,250,287,189,12,244,188,89,137,0,237,209,186,86,146,197,253,48,66,252,156,74,2,191,161,57,8,6,293,142,205,55,105,45,72,32,193,37,71,28,7,256,248,93,13,298,221,235,190,79,52,113,231,17,276,68,164,270,218,87,140,258,64,56,31,278,214,281,62,122,65,234,169,53,144,60,208,99,130,247,115,153,14,264,33,30,255,168,85,29,118,263,35,44,238,46,9,215,109,178,159,227,25,100,199,40,196,165,63,21,184,148,117,139,141,67,173,123,112,230,289,236,41,22,136,127,251,119,43,5,111,226,195,291,166,3,274,49,132,260,198,261,163,280,174,192,213,95,240,102,16,206,61,187,59,51,242,249,154,292,172,101]","arrowright","","","0","13","50","300","[""0024_N0300_K0050_NOCLIQUE"",""0016_N0300_K0050_CLIQUE""]"
"","","","","","audio-keyboard-response","124","444054","0.0-61.0-0.0-1.0","","null","audio_feedback/shuffles/shuffle01.mp3","null","","","","","0","13","50","300","[""0024_N0300_K0050_NOCLIQUE"",""0016_N0300_K0050_CLIQUE""]"
"","","","","","canvas-keyboard-response","125","445769","0.0-61.1-0.1-0.1","","1665","","arrowright","[210,235,186,267,188,169,171,189,8,42,111,26,195,5,150,134,262,234,101,18,281,27,80,73,22,216,204,247,173,213,125,199,255,203,52,116,176,269,56,156,97,50,93,277,248,48,78,70,205,37,287,207,66,221,286,81,41,197,64,71,230,139,29,144,276,132,246,59,31,250,215,223,21,152,296,263,143,94,185,104,30,260,170,273,196,39,82,10,86,284,159,91,292,20,40,67,270,220,208,102,233,147,271,182,110,183,167,180,114,168,244,119,74,239,24,92,69,178,217,259,6,228,11,108,191,0,161,268,190,252,126,33,133,135,76,117,87,266,224,289,200,120,164,218,179,181,157,35,65,4,283,57,251,121,146,249,85,75,211,149,236,118,95,192,13,83,227,187,109,47,264,14,54,174,245,38,131,293,19,60,15,51,28,130,231,232,68,238,127,89,291,237,25,96,16,55,158,9,225,62,295,99,297,107,229,90,43,32,122,222,166,290,84,113,272,160,214,257,275,254,206,23,279,36,151,3,98,136,46,177,285,142,193,129,219,128,209,106,202,288,12,148,124,212,175,155,294,61,49,112,265,299,256,105,1,258,184,172,53,58,154,261,79,226,17,100,240,77,138,242,2,280,282,198,163,88,201,162,194,253,72,34,137,140,278,63,145,141,45,153,115,243,7,298,165,274,241,123,44,103]","arrowright","","true","0","13","50","300","[""0024_N0300_K0050_NOCLIQUE"",""0016_N0300_K0050_CLIQUE""]"
"","","","","","audio-keyboard-response","126","446394","0.0-61.1-0.1-1.1","","null","audio_feedback/right/coin01.mp3","null","","","","","0","13","50","300","[""0024_N0300_K0050_NOCLIQUE"",""0016_N0300_K0050_CLIQUE""]"
"","","","","","canvas-keyboard-response","127","447061","0.0-62.0-0.0-0.0","","615",""," ","[216,24,197,150,185,81,177,244,222,49,93,233,7,57,274,256,220,191,292,143,80,92,110,85,192,271,295,109,204,272,257,240,245,186,235,227,40,29,58,169,202,281,128,284,13,75,135,232,229,226,22,156,253,171,28,74,46,129,27,269,48,142,228,23,246,252,30,16,213,43,104,279,103,254,130,113,217,255,20,289,260,264,65,193,139,154,26,167,138,77,56,19,18,44,248,242,249,224,290,168,114,147,239,73,98,31,225,111,291,84,287,178,182,137,221,95,209,176,144,6,115,50,124,131,187,8,194,285,241,151,69,126,51,145,122,211,164,72,283,10,106,83,101,59,120,140,117,297,61,163,223,158,270,0,206,205,36,107,261,96,17,207,288,4,62,263,97,230,94,11,78,184,25,33,215,134,119,165,155,148,149,127,91,47,63,1,278,100,212,123,105,52,180,87,132,259,238,88,141,201,89,282,9,190,5,12,208,161,251,79,2,286,268,258,203,170,160,159,42,125,267,38,296,189,173,34,179,118,188,237,299,183,162,133,76,219,181,275,71,121,14,66,293,172,53,21,273,45,247,231,236,243,35,276,60,82,54,200,174,234,90,175,280,157,64,32,68,152,250,99,146,153,277,70,166,210,218,136,196,55,198,39,294,37,116,199,266,15,195,41,108,262,298,67,102,112,265,3,214,86]","arrowright","","","0","14","45","300","[""0061_N0300_K0045_NOCLIQUE"",""0074_N0300_K0045_CLIQUE""]"
"","","","","","audio-keyboard-response","128","447834","0.0-62.0-0.0-1.0","","null","audio_feedback/shuffles/shuffle01.mp3","null","","","","","0","14","45","300","[""0061_N0300_K0045_NOCLIQUE"",""0074_N0300_K0045_CLIQUE""]"
"","","","","","canvas-keyboard-response","129","449651","0.0-62.1-0.1-0.1","","1767",""," ","[49,224,168,81,187,165,239,208,4,115,14,158,192,137,15,164,221,135,265,287,184,236,11,33,292,9,98,245,116,54,126,178,283,291,191,172,259,269,136,20,131,117,264,5,106,185,96,268,279,129,240,88,276,39,220,219,7,174,222,162,105,90,122,55,32,231,163,133,93,296,51,107,186,290,71,37,271,203,197,21,281,156,60,189,22,29,160,153,238,99,57,210,109,233,159,139,101,294,150,128,249,108,170,140,152,288,45,63,85,298,75,234,89,179,161,120,237,262,13,204,100,209,119,198,138,121,217,260,123,66,110,213,102,263,232,47,175,286,202,188,31,42,30,46,297,127,206,97,282,180,25,59,18,41,142,130,218,250,65,72,48,154,214,293,40,169,58,3,151,183,223,19,199,273,230,79,266,258,181,76,247,82,2,0,278,73,246,87,44,270,8,285,242,132,26,277,95,118,235,145,114,52,64,255,243,229,134,70,103,211,200,146,144,195,80,104,10,149,6,68,124,201,148,157,256,23,182,155,62,113,38,274,227,69,205,173,16,53,248,56,194,253,28,36,77,111,67,228,275,254,295,177,166,261,216,91,74,244,112,12,92,34,171,272,226,141,125,252,196,257,190,43,86,167,299,50,176,280,241,61,212,35,193,27,284,207,94,84,225,143,251,147,1,78,83,289,24,17,267,215]","arrowright","","","0","14","45","300","[""0061_N0300_K0045_NOCLIQUE"",""0074_N0300_K0045_CLIQUE""]"
"","","","","","audio-keyboard-response","130","450434","0.0-62.1-0.1-1.1","","null","audio_feedback/shuffles/shuffle01.mp3","null","","","","","0","14","45","300","[""0061_N0300_K0045_NOCLIQUE"",""0074_N0300_K0045_CLIQUE""]"
"","","","","","canvas-keyboard-response","131","451878","0.0-62.2-0.2-0.2","","1380",""," ","[92,188,292,262,155,23,161,66,181,101,146,79,242,41,51,276,93,169,63,187,285,121,191,165,82,132,27,45,177,222,36,128,99,133,275,215,26,98,35,54,113,249,299,17,284,151,56,178,184,252,114,257,237,205,120,64,277,139,226,118,81,167,1,190,28,270,157,152,76,221,53,125,234,144,130,247,175,19,77,229,104,248,195,173,86,246,291,116,203,197,228,73,100,142,180,153,182,238,143,286,202,290,278,216,65,96,244,87,127,207,268,46,58,255,264,40,10,287,253,107,91,279,172,214,160,183,259,138,149,70,266,283,62,219,254,274,245,60,140,272,179,42,136,192,88,233,3,260,147,9,145,154,171,200,162,94,186,273,267,135,158,0,227,105,224,97,210,109,129,69,13,108,263,166,239,31,176,29,293,50,217,212,59,74,243,102,174,206,34,164,7,2,189,18,44,131,122,38,240,209,123,49,103,67,39,297,201,83,298,16,296,112,115,159,20,241,48,72,32,124,12,168,71,289,137,223,280,4,281,22,231,213,61,134,15,218,194,232,265,57,119,21,80,251,236,198,14,111,230,6,90,25,68,204,199,196,30,235,8,288,89,163,170,52,117,55,269,211,95,256,110,43,150,24,271,225,78,148,220,208,37,250,295,141,258,85,193,75,47,84,261,5,185,282,156,11,106,126,294,33]","arrowright","","","0","14","45","300","[""0061_N0300_K0045_NOCLIQUE"",""0074_N0300_K0045_CLIQUE""]"
"","","","","","audio-keyboard-response","132","452654","0.0-62.2-0.2-1.2","","null","audio_feedback/shuffles/shuffle01.mp3","null","","","","","0","14","45","300","[""0061_N0300_K0045_NOCLIQUE"",""0074_N0300_K0045_CLIQUE""]"
"","","","","","canvas-keyboard-response","133","453166","0.0-62.3-0.3-0.3","","462","","arrowright","[251,281,104,4,217,263,234,16,116,198,161,228,165,258,164,264,109,278,282,33,287,88,218,131,59,254,213,280,152,256,174,160,144,199,101,215,87,153,298,157,155,261,72,39,6,284,25,37,200,52,223,292,290,74,24,1,257,102,63,55,3,86,62,60,142,53,236,120,112,66,114,296,73,79,146,30,145,23,91,122,61,103,181,50,149,270,216,184,89,235,11,193,134,180,255,169,42,156,97,56,117,202,159,170,110,163,231,35,268,94,21,83,8,197,294,295,227,177,206,245,9,210,27,249,272,246,111,138,54,241,81,225,10,221,67,187,136,233,64,286,240,18,85,95,232,93,172,105,185,273,80,90,43,262,162,106,128,171,283,214,277,191,179,226,154,293,58,46,291,14,32,135,248,285,147,150,51,195,26,5,275,119,229,220,48,224,100,78,123,252,148,189,175,47,108,238,212,239,70,297,115,34,76,99,201,243,118,49,158,230,143,130,265,22,82,19,0,288,77,96,31,141,71,274,69,132,267,121,203,40,279,98,250,36,204,289,190,127,209,44,237,75,247,167,151,196,205,188,13,168,182,244,17,139,113,253,29,15,219,173,41,183,269,140,68,260,266,57,259,124,20,129,12,107,176,28,38,276,178,125,192,208,84,7,2,194,126,222,271,92,65,45,186,242,166,299,137,133,207,211]","arrowright","","true","0","14","45","300","[""0061_N0300_K0045_NOCLIQUE"",""0074_N0300_K0045_CLIQUE""]"
"","","","","","audio-keyboard-response","134","453774","0.0-62.3-0.3-1.3","","null","audio_feedback/right/coin01.mp3","null","","","","","0","14","45","300","[""0061_N0300_K0045_NOCLIQUE"",""0074_N0300_K0045_CLIQUE""]"
"","","","","","canvas-keyboard-response","135","454440","0.0-63.0-0.0-0.0","","615",""," ","[238,105,109,256,192,41,285,121,210,144,272,199,21,230,258,198,242,33,119,71,102,178,25,224,1,227,87,280,287,162,286,185,257,115,6,153,57,211,143,48,278,169,254,249,89,176,234,92,190,62,213,255,157,292,128,76,56,90,168,47,31,237,253,77,73,251,244,243,29,15,14,187,260,22,8,214,111,279,188,138,218,98,291,252,7,36,273,46,265,100,232,54,189,103,219,101,49,284,2,59,10,42,172,269,248,155,298,34,52,9,84,246,123,184,28,151,35,4,166,203,165,229,191,131,180,130,216,290,245,233,114,148,11,125,112,85,113,122,139,239,196,271,67,215,78,107,202,159,65,40,267,163,120,294,179,223,193,161,72,195,80,297,262,201,158,200,44,136,106,228,81,129,75,194,20,110,170,268,146,16,132,183,134,220,235,45,147,118,275,173,70,27,222,225,264,164,295,83,141,69,270,18,140,150,154,117,108,66,261,68,289,95,207,247,142,241,64,171,0,288,133,30,88,197,53,126,97,60,208,175,240,58,99,116,293,167,38,266,149,50,177,181,5,17,93,13,104,127,231,156,250,23,43,281,182,204,94,91,39,296,299,19,55,263,282,206,24,96,79,205,12,137,226,74,174,32,259,160,236,277,274,221,63,212,152,135,283,276,186,3,26,209,124,217,61,51,86,82,37,145]","arrowleft","","","0","15","45","300","[""0040_N0300_K0045_CLIQUE"",""0025_N0300_K0045_NOCLIQUE""]"
"","","","","","audio-keyboard-response","136","455214","0.0-63.0-0.0-1.0","","null","audio_feedback/shuffles/shuffle01.mp3","null","","","","","0","15","45","300","[""0040_N0300_K0045_CLIQUE"",""0025_N0300_K0045_NOCLIQUE""]"
"","","","","","canvas-keyboard-response","137","456079","0.0-63.1-0.1-0.1","","811",""," ","[10,1,132,137,118,128,273,247,256,103,99,123,175,161,165,231,106,26,142,226,143,246,203,243,202,156,139,69,179,204,211,151,216,181,81,235,53,230,238,101,62,77,196,3,29,44,15,188,84,64,213,98,91,117,100,225,80,60,74,292,272,55,17,0,206,167,264,89,259,136,268,178,295,33,176,90,251,253,95,155,46,229,267,263,32,154,131,174,14,115,148,144,262,22,39,260,149,274,122,258,197,205,195,112,187,16,227,52,58,79,82,153,150,232,281,2,199,158,237,200,192,169,289,71,164,194,30,63,5,108,185,41,13,215,298,172,210,252,42,28,9,129,37,23,207,31,18,54,76,177,254,56,111,145,183,265,180,236,65,152,276,222,296,88,120,21,141,75,291,61,20,239,191,86,261,288,107,66,249,45,275,287,83,184,19,40,126,94,124,182,193,43,87,97,6,4,133,240,218,130,223,48,241,198,47,67,27,92,135,217,220,221,189,78,105,278,269,170,25,160,166,8,173,104,7,224,285,49,245,228,102,127,68,242,146,284,96,214,35,171,282,116,201,255,244,266,38,290,121,293,162,186,110,208,24,85,279,234,283,59,168,248,109,147,219,286,212,34,11,250,119,72,114,280,270,125,299,138,190,36,113,134,50,140,157,271,233,73,163,297,159,57,12,70,51,294,277,209,93,257]","arrowleft","","","0","15","45","300","[""0040_N0300_K0045_CLIQUE"",""0025_N0300_K0045_NOCLIQUE""]"
"","","","","","audio-keyboard-response","138","456854","0.0-63.1-0.1-1.1","","null","audio_feedback/shuffles/shuffle01.mp3","null","","","","","0","15","45","300","[""0040_N0300_K0045_CLIQUE"",""0025_N0300_K0045_NOCLIQUE""]"
"","","","","","canvas-keyboard-response","139","459288","0.0-63.2-0.2-0.2","","2383",""," ","[298,80,78,162,4,274,81,234,282,151,269,167,247,1,289,261,200,186,129,182,58,142,296,139,50,41,86,123,12,213,183,3,187,284,283,249,115,48,202,199,18,141,148,154,13,276,110,32,59,96,128,221,166,146,257,130,28,233,111,35,236,245,104,201,7,180,116,85,57,191,217,262,157,64,20,9,220,291,47,188,270,295,101,172,216,122,66,239,22,15,67,256,23,196,16,203,198,150,44,126,190,227,299,33,222,92,240,97,232,263,185,293,37,36,292,31,29,205,286,243,19,74,112,194,204,260,87,229,238,105,246,171,63,82,285,264,231,27,287,109,113,164,76,99,73,218,212,253,124,211,275,140,160,114,40,174,255,197,54,158,42,294,223,152,46,219,290,206,265,117,181,26,278,118,279,39,147,272,107,266,125,273,250,226,69,179,24,10,224,237,75,169,177,254,60,61,159,90,0,210,195,17,192,65,21,228,11,34,77,268,91,127,145,137,121,135,89,14,259,144,184,120,175,70,178,297,6,55,106,134,38,271,100,244,248,153,251,143,193,79,149,214,207,267,252,51,156,288,88,94,83,173,108,280,230,84,68,241,56,165,72,132,52,95,2,131,155,49,281,208,45,98,136,209,53,163,168,43,119,25,102,258,225,161,176,170,93,242,71,277,215,133,8,138,103,5,189,235,30,62]","arrowleft","","","0","15","45","300","[""0040_N0300_K0045_CLIQUE"",""0025_N0300_K0045_NOCLIQUE""]"
"","","","","","audio-keyboard-response","140","460054","0.0-63.2-0.2-1.2","","null","audio_feedback/shuffles/shuffle01.mp3","null","","","","","0","15","45","300","[""0040_N0300_K0045_CLIQUE"",""0025_N0300_K0045_NOCLIQUE""]"
"","","","","","canvas-keyboard-response","141","461715","0.0-63.3-0.3-0.3","","1606","","arrowleft","[150,109,171,243,76,87,287,248,235,261,290,279,289,144,38,226,209,180,284,16,93,133,157,213,65,238,15,80,122,159,121,120,45,101,69,43,172,222,214,59,292,64,299,247,130,164,5,19,295,126,104,105,224,236,266,208,145,293,184,265,24,116,277,182,8,158,160,108,242,50,36,270,227,39,30,195,123,212,95,55,296,124,199,3,17,264,156,146,52,257,132,31,78,294,99,89,191,11,20,7,94,278,27,200,114,274,223,2,41,228,107,103,190,232,66,271,9,260,225,134,60,168,75,131,57,90,178,139,179,62,233,129,18,234,51,187,13,250,245,35,37,202,49,291,288,175,149,142,254,81,174,201,0,152,143,70,272,151,220,268,102,14,203,253,169,137,115,161,286,136,197,128,218,258,255,119,166,68,162,113,192,269,72,211,173,256,47,1,163,46,217,40,198,111,276,97,79,141,297,74,263,298,188,237,56,285,251,10,210,42,280,216,176,189,221,281,83,186,196,53,138,88,273,177,219,215,165,33,32,118,125,100,29,181,77,82,140,185,44,249,246,67,170,167,204,259,147,48,244,231,155,92,117,154,252,229,86,193,26,6,239,63,205,54,135,267,112,85,110,153,34,61,22,21,240,207,241,262,28,84,148,194,98,71,206,106,230,58,91,73,127,12,23,283,282,25,4,96,183,275]","arrowleft","","true","0","15","45","300","[""0040_N0300_K0045_CLIQUE"",""0025_N0300_K0045_NOCLIQUE""]"
"","","","","","audio-keyboard-response","142","462334","0.0-63.3-0.3-1.3","","null","audio_feedback/right/coin01.mp3","null","","","","","0","15","45","300","[""0040_N0300_K0045_CLIQUE"",""0025_N0300_K0045_NOCLIQUE""]"
"","","","","","canvas-keyboard-response","143","463699","0.0-64.0-0.0-0.0","","1312",""," ","[146,157,43,199,130,158,283,236,184,245,252,248,72,284,150,8,44,4,90,224,17,101,208,80,144,59,269,155,176,103,85,188,63,163,279,36,24,262,225,152,133,114,136,287,162,267,66,237,260,56,87,65,71,94,53,275,140,125,37,68,19,93,197,193,211,289,198,115,220,83,192,166,205,40,222,288,221,200,139,282,122,172,95,206,243,187,191,171,160,238,86,42,294,271,127,161,202,62,195,190,255,298,299,75,25,110,291,15,29,174,50,46,213,156,226,149,154,119,169,79,256,277,196,18,135,180,141,28,173,131,47,105,126,165,3,142,102,185,31,151,138,273,297,98,32,111,203,67,109,118,175,82,0,89,265,214,16,209,73,295,207,106,107,117,91,217,259,228,276,57,20,254,194,97,215,235,212,293,22,148,268,121,204,249,159,58,92,264,39,74,61,100,231,286,253,30,170,219,129,88,5,77,76,244,69,35,51,33,78,84,10,177,81,64,12,274,183,55,179,143,116,113,240,280,261,178,23,104,13,120,272,112,292,266,296,216,34,250,147,54,241,164,96,239,52,233,167,145,257,181,6,38,258,290,60,27,21,11,70,242,232,168,108,9,281,134,186,223,189,2,132,263,234,7,153,123,41,218,247,26,210,128,201,227,49,124,48,270,246,251,99,278,285,1,182,230,229,14,137,45]","arrowleft","","","0","16","40","300","[""0074_N0300_K0040_CLIQUE"",""0083_N0300_K0040_NOCLIQUE""]"
"","","","","","audio-keyboard-response","144","464474","0.0-64.0-0.0-1.0","","null","audio_feedback/shuffles/shuffle01.mp3","null","","","","","0","16","40","300","[""0074_N0300_K0040_CLIQUE"",""0083_N0300_K0040_NOCLIQUE""]"
"","","","","","canvas-keyboard-response","145","466389","0.0-64.1-0.1-0.1","","1864",""," ","[228,252,16,135,196,230,101,80,98,77,298,191,187,265,172,142,35,22,261,179,207,31,14,157,212,60,222,131,4,267,268,21,65,143,232,132,201,94,174,155,158,159,216,299,36,26,250,141,149,147,120,76,246,39,215,237,78,249,255,64,223,150,233,70,17,102,48,202,178,92,54,133,96,71,280,103,285,63,238,156,29,6,160,23,287,247,43,41,114,40,297,50,125,49,56,115,111,67,188,205,221,200,58,100,134,19,18,286,81,44,193,124,51,126,116,284,197,145,278,204,168,189,123,104,217,241,128,146,42,99,240,25,0,244,107,2,254,90,175,236,276,194,109,165,8,164,5,203,127,242,206,32,185,253,266,11,234,122,154,162,282,169,52,279,225,208,190,170,245,3,294,271,166,75,173,82,113,283,97,224,55,243,259,292,231,62,117,210,256,119,112,251,87,53,137,275,37,262,13,28,209,1,15,213,34,270,163,7,171,273,183,72,83,184,61,139,288,264,167,91,69,108,226,198,235,290,106,89,121,20,88,118,218,263,186,66,151,153,296,195,214,110,192,38,93,86,260,33,199,144,269,289,84,12,239,105,176,45,295,74,180,57,79,220,85,140,27,161,59,274,136,272,293,248,152,138,227,258,148,219,95,73,130,68,177,229,257,30,181,211,277,291,182,10,9,281,129,24,47,46]","arrowleft","","","0","16","40","300","[""0074_N0300_K0040_CLIQUE"",""0083_N0300_K0040_NOCLIQUE""]"
"","","","","","audio-keyboard-response","146","467175","0.0-64.1-0.1-1.1","","null","audio_feedback/shuffles/shuffle01.mp3","null","","","","","0","16","40","300","[""0074_N0300_K0040_CLIQUE"",""0083_N0300_K0040_NOCLIQUE""]"
"","","","","","canvas-keyboard-response","147","469534","0.0-64.2-0.2-0.2","","2306",""," ","[239,235,12,129,206,180,63,80,14,77,86,191,149,46,223,21,267,227,278,185,101,230,163,222,30,279,246,96,219,273,162,295,212,28,81,147,242,254,261,215,10,251,281,57,76,183,68,165,85,197,284,7,32,201,27,150,99,255,37,286,117,184,36,142,35,205,173,128,208,8,192,157,282,204,109,269,124,102,175,225,203,2,56,248,220,34,214,193,72,200,9,229,168,39,100,290,143,17,26,45,186,174,94,84,3,44,221,249,260,182,179,259,234,292,181,29,195,176,25,167,243,52,51,126,268,113,73,258,233,112,115,145,274,13,291,146,250,31,38,1,123,164,19,240,22,285,158,293,47,276,89,119,67,58,253,64,108,4,289,187,16,148,91,272,228,199,104,82,151,177,236,116,218,5,209,41,264,20,160,245,207,265,61,231,65,23,277,125,114,127,55,189,88,283,131,71,196,136,202,121,54,130,294,298,43,224,49,132,79,188,97,171,24,95,48,217,140,190,252,18,244,297,156,42,62,11,198,139,141,137,247,122,87,287,262,232,50,238,69,60,296,105,161,237,110,256,53,271,194,75,70,155,288,172,118,226,6,266,103,78,257,213,159,144,299,152,33,90,83,263,169,210,178,40,107,270,138,74,166,111,275,135,134,98,93,153,241,216,280,0,59,92,211,106,15,66,133,170,154,120]","arrowleft","","","0","16","40","300","[""0074_N0300_K0040_CLIQUE"",""0083_N0300_K0040_NOCLIQUE""]"
"","","","","","audio-keyboard-response","148","470313","0.0-64.2-0.2-1.2","","null","audio_feedback/shuffles/shuffle01.mp3","null","","","","","0","16","40","300","[""0074_N0300_K0040_CLIQUE"",""0083_N0300_K0040_NOCLIQUE""]"
"","","","","","canvas-keyboard-response","149","472528","0.0-64.3-0.3-0.3","","2167",""," ","[37,288,205,26,222,225,95,65,158,194,265,193,22,181,175,73,252,102,187,74,212,67,117,157,292,90,11,48,19,243,291,253,294,287,43,216,267,249,171,221,109,242,120,283,8,28,121,196,278,233,279,124,237,173,263,185,131,97,70,64,101,112,232,149,296,17,164,80,277,191,268,180,114,123,34,201,55,218,162,88,215,2,282,269,256,240,258,231,78,224,293,31,195,188,266,92,274,99,153,184,84,254,3,285,295,130,38,228,275,107,260,98,270,140,45,113,176,148,4,203,299,49,40,46,44,186,87,220,152,108,147,60,118,81,20,104,29,119,141,139,155,286,144,151,163,289,137,161,250,281,93,115,63,172,142,51,182,271,72,75,132,280,82,10,77,210,15,94,83,245,234,23,136,177,230,59,27,122,200,213,71,217,229,198,207,154,91,111,214,6,156,85,241,244,133,32,248,116,297,138,12,18,178,9,257,110,165,276,79,167,135,58,30,209,192,47,61,5,189,105,13,25,69,208,56,166,238,183,24,57,52,36,239,246,86,150,100,96,204,89,284,146,129,143,127,169,199,7,206,290,159,134,68,247,236,170,125,14,235,219,76,298,179,227,126,53,1,0,42,174,190,50,255,16,66,160,62,262,35,273,272,145,264,226,168,261,103,54,128,39,211,259,33,41,251,202,197,223,106,21]","arrowleft","","","0","16","40","300","[""0074_N0300_K0040_CLIQUE"",""0083_N0300_K0040_NOCLIQUE""]"
"","","","","","audio-keyboard-response","150","473294","0.0-64.3-0.3-1.3","","null","audio_feedback/shuffles/shuffle01.mp3","null","","","","","0","16","40","300","[""0074_N0300_K0040_CLIQUE"",""0083_N0300_K0040_NOCLIQUE""]"
"","","","","","canvas-keyboard-response","151","478117","0.0-64.4-0.4-0.4","","4771",""," ","[71,160,241,233,226,133,273,79,177,224,97,169,175,93,276,164,243,191,245,278,153,166,139,266,20,101,87,159,146,176,112,179,39,136,209,65,131,70,1,94,32,7,86,167,183,240,109,49,201,174,61,4,125,122,45,47,293,236,128,218,15,271,281,215,82,28,134,12,66,63,286,29,158,161,181,30,13,253,206,41,185,257,116,23,126,74,83,99,265,208,38,264,5,221,43,114,51,8,44,149,141,196,228,107,268,50,35,162,121,190,17,272,223,0,110,80,269,100,180,195,178,56,88,172,198,76,165,290,73,204,52,108,19,27,95,163,205,113,252,214,69,54,111,154,18,137,297,220,294,156,202,232,246,117,239,248,234,182,25,193,250,170,295,238,46,259,277,288,48,96,37,207,225,9,212,285,267,184,21,186,229,143,258,151,287,200,211,291,42,92,262,230,261,244,145,36,16,279,55,59,33,296,274,81,118,157,197,298,119,227,189,222,105,127,34,216,115,68,231,91,263,203,213,84,155,75,150,103,11,256,104,22,60,72,237,24,251,129,120,249,280,260,188,77,53,235,270,289,6,14,26,138,194,144,275,10,40,130,242,152,132,31,89,199,106,64,255,147,254,67,102,168,123,135,142,283,57,247,219,282,124,78,3,85,58,62,284,148,217,292,98,171,2,187,140,90,192,210,173,299]","arrowleft","","","0","16","40","300","[""0074_N0300_K0040_CLIQUE"",""0083_N0300_K0040_NOCLIQUE""]"
"","","","","","audio-keyboard-response","152","478894","0.0-64.4-0.4-1.4","","null","audio_feedback/shuffles/shuffle01.mp3","null","","","","","0","16","40","300","[""0074_N0300_K0040_CLIQUE"",""0083_N0300_K0040_NOCLIQUE""]"
"","","","","","canvas-keyboard-response","153","480547","0.0-64.5-0.5-0.5","","1602",""," ","[165,131,187,141,48,2,20,95,281,208,117,53,172,123,88,206,109,39,26,207,102,104,229,221,236,191,299,129,68,225,156,121,70,90,36,276,76,82,124,295,42,159,254,83,4,279,174,169,130,31,137,115,210,33,139,211,92,37,184,163,256,188,261,267,147,27,6,288,223,125,21,161,35,189,183,197,28,101,118,75,5,91,69,215,150,283,50,286,277,81,175,170,106,9,266,87,128,239,133,241,17,285,176,193,52,108,217,274,247,265,80,185,45,222,270,132,205,194,224,8,238,145,127,292,23,181,62,252,58,126,190,24,273,119,250,19,218,66,257,38,182,269,54,284,63,97,293,98,296,89,93,264,291,245,49,158,16,103,111,51,120,59,199,136,30,263,240,3,113,226,71,297,202,244,10,96,138,46,94,242,61,86,67,186,213,149,154,231,153,262,298,0,15,1,214,105,14,201,246,258,272,157,289,85,260,259,7,72,110,248,162,180,55,216,41,100,107,112,178,198,166,43,164,25,209,230,280,173,18,249,251,135,228,144,143,60,282,237,78,34,99,195,271,243,255,64,155,47,73,294,177,134,232,40,235,140,287,114,212,290,77,65,13,192,219,253,29,56,196,200,234,151,160,84,203,79,220,168,152,268,74,57,32,142,146,116,11,122,204,227,233,148,278,171,44,179,167,12,22,275]","arrowleft","","","0","16","40","300","[""0074_N0300_K0040_CLIQUE"",""0083_N0300_K0040_NOCLIQUE""]"
"","","","","","audio-keyboard-response","154","481314","0.0-64.5-0.5-1.5","","null","audio_feedback/shuffles/shuffle01.mp3","null","","","","","0","16","40","300","[""0074_N0300_K0040_CLIQUE"",""0083_N0300_K0040_NOCLIQUE""]"
"","","","","","canvas-keyboard-response","155","483526","0.0-64.6-0.6-0.6","","2161","","arrowright","[106,26,4,11,99,258,136,260,204,23,266,102,0,151,217,36,182,157,84,51,127,238,180,141,146,194,179,87,97,124,92,188,273,68,205,31,65,197,178,175,185,88,37,41,247,174,211,123,30,137,295,237,94,55,290,9,22,296,236,173,93,213,70,177,218,155,73,253,56,144,275,271,75,186,147,267,215,122,59,17,14,86,135,195,274,79,207,72,202,171,280,60,74,193,7,38,212,284,6,242,256,154,69,169,272,114,95,96,61,8,248,63,35,190,148,214,235,293,105,234,120,200,131,250,80,199,262,108,244,150,2,245,223,62,167,28,126,15,233,286,134,13,270,297,118,201,40,257,103,229,249,3,47,32,129,165,159,125,226,230,251,46,168,261,225,34,281,140,255,183,156,149,152,12,240,181,104,45,1,50,115,285,82,117,259,5,198,66,196,160,18,187,24,172,288,39,133,77,291,53,111,138,206,71,81,239,142,252,110,57,113,21,162,25,228,143,161,232,90,100,294,264,107,48,191,76,43,44,263,153,209,241,10,192,27,130,119,16,299,216,33,276,29,189,231,224,170,289,49,64,89,85,67,221,166,283,254,203,78,139,42,91,282,176,278,52,292,121,112,269,101,227,116,145,19,243,277,58,208,222,98,298,265,163,158,109,128,220,54,184,83,210,279,132,20,164,268,246,219,287]","arrowleft","","false","0","16","40","300","[""0074_N0300_K0040_CLIQUE"",""0083_N0300_K0040_NOCLIQUE""]"
"","","","","","audio-keyboard-response","156","484333","0.0-64.6-0.6-1.6","","null","audio_feedback/wrong/error01.mp3","null","","","","","0","16","40","300","[""0074_N0300_K0040_CLIQUE"",""0083_N0300_K0040_NOCLIQUE""]"
"","","","","","canvas-keyboard-response","157","485590","0.0-65.0-0.0-0.0","","1208",""," ","[175,276,95,119,126,173,114,237,295,19,63,50,255,241,29,256,262,57,43,223,271,80,104,3,217,145,204,64,117,92,36,224,34,58,265,108,219,59,293,27,140,91,215,149,183,244,242,52,170,32,74,132,14,82,245,76,179,200,73,137,254,195,125,279,185,25,127,207,250,16,55,162,9,49,94,28,112,96,147,31,39,228,181,189,51,86,197,17,141,281,267,227,45,160,193,289,187,68,269,41,287,284,166,142,48,136,89,178,2,10,156,88,264,291,46,202,258,107,33,249,123,283,191,128,85,83,120,130,247,216,124,286,168,87,146,230,103,100,37,155,47,167,8,62,0,97,212,148,272,121,261,109,210,152,110,70,4,105,159,208,186,294,225,42,139,69,196,292,116,44,13,84,280,174,218,201,54,177,15,240,118,79,253,199,285,169,220,275,134,282,106,56,205,298,99,135,251,222,7,248,65,190,246,180,266,115,226,206,252,270,221,66,231,77,122,213,93,165,18,188,81,211,143,184,235,133,257,263,90,203,101,288,277,233,20,172,30,75,72,274,236,113,22,138,192,144,239,238,296,102,214,98,61,71,12,67,290,161,150,209,260,40,194,259,243,176,273,11,6,278,198,53,157,158,78,182,5,129,163,23,35,153,111,297,60,154,24,268,151,299,232,26,171,131,164,234,229,38,21,1]","arrowright","","","0","17","40","300","[""0034_N0300_K0040_NOCLIQUE"",""0051_N0300_K0040_CLIQUE""]"
"","","","","","audio-keyboard-response","158","486354","0.0-65.0-0.0-1.0","","null","audio_feedback/shuffles/shuffle01.mp3","null","","","","","0","17","40","300","[""0034_N0300_K0040_NOCLIQUE"",""0051_N0300_K0040_CLIQUE""]"
"","","","","","canvas-keyboard-response","159","488470","0.0-65.1-0.1-0.1","","2062",""," ","[153,182,62,169,36,160,151,6,69,261,57,211,64,155,60,229,298,46,255,144,205,1,258,45,262,233,125,176,285,50,164,131,82,222,51,207,55,268,134,202,294,173,44,56,65,8,67,9,244,167,103,76,142,299,101,177,140,149,124,111,215,269,48,26,132,19,281,90,80,107,210,17,165,63,183,81,34,5,291,110,139,171,279,20,109,223,216,22,280,106,84,238,145,47,220,93,276,263,7,79,292,59,4,227,14,96,259,189,161,13,91,191,38,224,86,77,230,136,115,174,170,188,143,32,226,197,221,290,282,196,257,21,289,158,194,283,288,52,231,247,260,175,23,102,272,295,35,248,87,30,204,37,0,178,203,209,123,201,138,114,200,11,39,18,88,78,193,54,277,181,135,16,119,122,192,206,118,198,85,94,254,72,245,251,225,43,89,117,253,61,150,53,273,31,159,293,137,228,113,121,133,195,154,212,71,187,234,275,147,208,33,219,28,104,235,112,157,27,239,184,100,108,128,141,249,83,190,12,297,25,152,217,172,240,49,42,98,75,58,148,278,40,130,163,250,180,3,287,199,286,236,24,186,214,179,242,264,29,256,213,218,15,127,99,166,95,126,267,237,296,252,105,97,66,246,74,185,243,162,232,92,41,116,129,120,265,241,270,271,168,68,156,274,70,73,10,2,146,266,284]","arrowright","","","0","17","40","300","[""0034_N0300_K0040_NOCLIQUE"",""0051_N0300_K0040_CLIQUE""]"
"","","","","","audio-keyboard-response","160","489254","0.0-65.1-0.1-1.1","","null","audio_feedback/shuffles/shuffle01.mp3","null","","","","","0","17","40","300","[""0034_N0300_K0040_NOCLIQUE"",""0051_N0300_K0040_CLIQUE""]"
"","","","","","canvas-keyboard-response","161","491934","0.0-65.2-0.2-0.2","","2628",""," ","[1,175,30,190,97,275,121,5,84,153,100,132,112,217,120,266,240,126,151,105,55,94,32,292,49,39,251,106,176,259,201,156,198,256,280,290,185,154,48,18,101,10,130,255,209,295,177,2,27,90,195,77,239,262,283,122,50,271,229,15,25,63,225,252,4,26,41,142,98,264,78,299,67,141,260,297,152,125,95,248,87,57,288,296,261,194,22,128,161,19,131,21,202,235,46,62,89,127,205,146,134,164,145,224,223,144,31,96,263,93,159,227,34,184,118,228,189,37,253,220,163,69,247,74,170,0,186,254,58,157,111,276,92,11,193,36,113,232,274,168,65,289,278,14,99,119,47,60,212,237,200,123,270,171,61,85,33,179,29,66,129,79,242,284,24,272,150,281,35,246,188,203,7,59,166,28,285,249,233,8,162,54,216,3,110,12,231,43,257,73,45,204,52,187,102,17,213,23,139,258,165,226,218,241,148,269,76,207,173,192,80,155,182,40,88,16,214,282,115,268,250,243,51,265,124,103,286,245,104,172,68,140,279,108,13,91,210,273,117,149,75,230,196,109,199,143,83,221,20,72,158,114,234,277,147,81,38,71,137,208,206,135,86,222,44,107,6,167,178,116,293,42,197,211,133,138,56,291,169,70,236,244,181,174,294,180,82,160,298,9,53,238,191,287,183,136,267,219,215,64]","arrowright","","","0","17","40","300","[""0034_N0300_K0040_NOCLIQUE"",""0051_N0300_K0040_CLIQUE""]"
"","","","","","audio-keyboard-response","162","492714","0.0-65.2-0.2-1.2","","null","audio_feedback/shuffles/shuffle01.mp3","null","","","","","0","17","40","300","[""0034_N0300_K0040_NOCLIQUE"",""0051_N0300_K0040_CLIQUE""]"
"","","","","","canvas-keyboard-response","163","495191","0.0-65.3-0.3-0.3","","2426","","arrowright","[237,68,251,30,79,230,191,81,163,210,147,25,283,12,138,271,157,286,97,241,292,54,47,69,49,73,231,285,164,244,117,256,192,267,87,71,253,101,259,107,40,152,299,17,137,172,34,249,48,22,290,274,109,177,60,166,268,43,198,208,215,262,116,151,37,200,53,10,100,122,264,156,167,160,149,113,197,111,203,221,46,193,236,130,90,31,202,280,94,120,284,27,234,141,181,150,213,35,165,5,15,174,239,297,170,114,143,298,80,278,261,1,2,180,24,173,162,169,209,118,220,21,289,295,281,296,243,6,70,144,86,204,55,140,104,223,265,42,229,83,62,36,279,127,206,65,61,119,106,84,183,110,13,67,134,212,228,29,270,258,182,18,32,176,145,129,269,128,99,89,293,52,23,33,158,28,252,266,211,254,44,139,124,57,201,93,225,187,245,255,238,95,78,85,56,126,171,240,108,8,103,112,133,257,102,155,196,273,14,186,287,179,154,91,136,146,195,153,64,226,38,248,263,132,224,168,121,142,222,291,275,88,288,75,39,247,115,194,16,272,277,184,7,98,218,11,123,188,242,41,76,205,20,131,216,233,161,9,178,74,51,77,66,26,105,148,219,45,214,217,189,199,227,0,3,63,135,92,250,235,190,4,96,282,59,159,58,207,232,19,185,72,260,50,246,125,175,276,294,82]","arrowright","","true","0","17","40","300","[""0034_N0300_K0040_NOCLIQUE"",""0051_N0300_K0040_CLIQUE""]"
