"success","timeout","failed_images","failed_audio","failed_video","trial_type","trial_index","time_elapsed","internal_node_id","view_history","rt","stimulus","response","nodes_order","correct_response","graphs_couple","accuracy","block_index","presentation_index","clique_size","graph_size","graphs_names"
"true","false","[]","[]","[]","preload","0","443","0.0-0.0","","","","","","","","","","","","",""
"","","","","","pavlovia","1","1512","0.0-1.0","","","","","","","","","","","","",""
"","","","","","instructions","2","63124","0.0-2.0","[{""page_index"":0,""viewing_time"":7087},{""page_index"":1,""viewing_time"":54523}]","61610","","","","","","","","","","",""
"true","false","[]","[]","[]","preload","3","96516","0.0-3.0","","","","","","","","","","","","",""
"","","","","","instructions","4","326971","0.0-4.0","[{""page_index"":0,""viewing_time"":3939},{""page_index"":1,""viewing_time"":5926},{""page_index"":2,""viewing_time"":4785},{""page_index"":3,""viewing_time"":19614},{""page_index"":4,""viewing_time"":7381},{""page_index"":3,""viewing_time"":862},{""page_index"":4,""viewing_time"":938},{""page_index"":3,""viewing_time"":4824},{""page_index"":4,""viewing_time"":959},{""page_index"":5,""viewing_time"":3602},{""page_index"":6,""viewing_time"":2240},{""page_index"":7,""viewing_time"":3413},{""page_index"":8,""viewing_time"":3578},{""page_index"":9,""viewing_time"":3014},{""page_index"":10,""viewing_time"":3394},{""page_index"":11,""viewing_time"":2181},{""page_index"":12,""viewing_time"":3072},{""page_index"":13,""viewing_time"":2312},{""page_index"":14,""viewing_time"":2196},{""page_index"":15,""viewing_time"":1418},{""page_index"":16,""viewing_time"":1840},{""page_index"":17,""viewing_time"":1662},{""page_index"":18,""viewing_time"":3980},{""page_index"":19,""viewing_time"":2155},{""page_index"":20,""viewing_time"":1246},{""page_index"":21,""viewing_time"":1671},{""page_index"":20,""viewing_time"":745},{""page_index"":21,""viewing_time"":920},{""page_index"":22,""viewing_time"":2572},{""page_index"":23,""viewing_time"":1187},{""page_index"":24,""viewing_time"":817},{""page_index"":25,""viewing_time"":1847},{""page_index"":26,""viewing_time"":1353},{""page_index"":27,""viewing_time"":5116},{""page_index"":28,""viewing_time"":7383},{""page_index"":29,""viewing_time"":3520},{""page_index"":30,""viewing_time"":2089},{""page_index"":31,""viewing_time"":3683},{""page_index"":32,""viewing_time"":10813},{""page_index"":33,""viewing_time"":14834},{""page_index"":34,""viewing_time"":3798},{""page_index"":35,""viewing_time"":2672},{""page_index"":36,""viewing_time"":4213},{""page_index"":37,""viewing_time"":2673},{""page_index"":38,""viewing_time"":5052},{""page_index"":39,""viewing_time"":3752},{""page_index"":40,""viewing_time"":2702},{""page_index"":41,""viewing_time"":1798},{""page_index"":42,""viewing_time"":4084},{""page_index"":43,""viewing_time"":6053},{""page_index"":44,""viewing_time"":6080},{""page_index"":45,""viewing_time"":3623},{""page_index"":44,""viewing_time"":961},{""page_index"":45,""viewing_time"":9647},{""page_index"":46,""viewing_time"":3871},{""page_index"":47,""viewing_time"":2606},{""page_index"":48,""viewing_time"":2490},{""page_index"":49,""viewing_time"":1078},{""page_index"":50,""viewing_time"":6576},{""page_index"":51,""viewing_time"":7640}]","230450","","","","","","","","","","",""
"","","","","","instructions","5","334702","0.0-5.0","[{""page_index"":0,""viewing_time"":7729}]","7730","","","","","","","","","","",""
"true","false","[]","[]","[]","preload","6","340768","0.0-6.0","","","","","","","","","","","","",""
"","","","","","image-keyboard-response","7","347312","0.0-7.0","","6540","tutorial/task_familiarization_images/part 1/01_N160_K90_cliqueRight_question1.PNG"," ","","","","","","","","",""
"","","","","","image-keyboard-response","8","351210","0.0-8.0","","3894","tutorial/task_familiarization_images/part 1/02_N160_K90_cliqueRight_question2.PNG"," ","","","","","","","","",""
"","","","","","image-keyboard-response","9","355308","0.0-9.0","","4094","tutorial/task_familiarization_images/part 1/03_N160_K90_cliqueRight_question3.PNG","arrowright","","","","","","","","",""
"","","","","","image-keyboard-response","10","357581","0.0-10.0","","2269","tutorial/task_familiarization_images/part 1/04_N160_K90_cliqueRight_solution.PNG"," ","","","","","","","","",""
"","","","","","image-keyboard-response","11","360694","0.0-11.0","","3111","tutorial/task_familiarization_images/part 1/05_N160_K65_cliqueRight_question1.PNG"," ","","","","","","","","",""
"","","","","","image-keyboard-response","12","360900","0.0-12.0","","204","tutorial/task_familiarization_images/part 1/06_N160_K65_cliqueRight_question2.PNG"," ","","","","","","","","",""
"","","","","","image-keyboard-response","13","362753","0.0-13.0","","1851","tutorial/task_familiarization_images/part 1/07_N160_K65_cliqueRight_question3.PNG","arrowright","","","","","","","","",""
"","","","","","image-keyboard-response","14","364393","0.0-14.0","","1638","tutorial/task_familiarization_images/part 1/08_N160_K65_cliqueRight_solution.PNG"," ","","","","","","","","",""
"","","","","","image-keyboard-response","15","367198","0.0-15.0","","2803","tutorial/task_familiarization_images/part 1/09_N160_K50_cliqueLeft_question1.PNG"," ","","","","","","","","",""
"","","","","","image-keyboard-response","16","369384","0.0-16.0","","2185","tutorial/task_familiarization_images/part 1/10_N160_K50_cliqueLeft_question2.PNG"," ","","","","","","","","",""
"","","","","","image-keyboard-response","17","371041","0.0-17.0","","1654","tutorial/task_familiarization_images/part 1/11_N160_K50_cliqueLeft_question3.PNG","arrowleft","","","","","","","","",""
"","","","","","image-keyboard-response","18","372698","0.0-18.0","","1655","tutorial/task_familiarization_images/part 1/12_N160_K50_cliqueLeft_solution.PNG"," ","","","","","","","","",""
"","","","","","image-keyboard-response","19","374185","0.0-19.0","","1484","tutorial/task_familiarization_images/part 1/13_N160_K80_cliqueLeft_question1.PNG"," ","","","","","","","","",""
"","","","","","image-keyboard-response","20","375443","0.0-20.0","","1256","tutorial/task_familiarization_images/part 1/14_N160_K80_cliqueLeft_question2.PNG"," ","","","","","","","","",""
"","","","","","image-keyboard-response","21","376733","0.0-21.0","","1288","tutorial/task_familiarization_images/part 1/15_N160_K80_cliqueLeft_question3.PNG","arrowleft","","","","","","","","",""
"","","","","","image-keyboard-response","22","377993","0.0-22.0","","1258","tutorial/task_familiarization_images/part 1/16_N160_K80_cliqueLeft_solution.PNG"," ","","","","","","","","",""
"","","","","","image-keyboard-response","23","383966","0.0-23.0","","5970","tutorial/task_familiarization_images/part 1/17_N160_K40_cliqueRight_question1.PNG"," ","","","","","","","","",""
"","","","","","image-keyboard-response","24","385214","0.0-24.0","","1246","tutorial/task_familiarization_images/part 1/18_N160_K40_cliqueRight_question2.PNG"," ","","","","","","","","",""
"","","","","","image-keyboard-response","25","386641","0.0-25.0","","1423","tutorial/task_familiarization_images/part 1/19_N160_K40_cliqueRight_question3.PNG","arrowright","","","","","","","","",""
"","","","","","image-keyboard-response","26","388457","0.0-26.0","","1814","tutorial/task_familiarization_images/part 1/20_N160_K40_cliqueRight_solution.PNG"," ","","","","","","","","",""
"","","","","","image-keyboard-response","27","390602","0.0-27.0","","2143","tutorial/task_familiarization_images/part 1/21_N160_K70_cliqueLeft_question1.PNG"," ","","","","","","","","",""
"","","","","","image-keyboard-response","28","392008","0.0-28.0","","1404","tutorial/task_familiarization_images/part 1/22_N160_K70_cliqueLeft_question2.PNG"," ","","","","","","","","",""
"","","","","","image-keyboard-response","29","393188","0.0-29.0","","1175","tutorial/task_familiarization_images/part 1/23_N160_K70_cliqueLeft_question3.PNG","arrowleft","","","","","","","","",""
"","","","","","image-keyboard-response","30","394447","0.0-30.0","","1257","tutorial/task_familiarization_images/part 1/24_N160_K70_cliqueLeft_solution.PNG"," ","","","","","","","","",""
"true","false","[]","[]","[]","preload","31","443437","0.0-31.0","","","","","","","","","","","","",""
"","","","","","image-keyboard-response","32","457366","0.0-32.0","","13928","tutorial/task_familiarization_images/part 2/01_160_80_cliqueLeft_withFeedback_1.PNG"," ","","","","","","","","",""
"","","","","","image-keyboard-response","33","463857","0.0-33.0","","6488","tutorial/task_familiarization_images/part 2/02_160_80_cliqueLeft_withFeedback_1.PNG"," ","","","","","","","","",""
"","","","","","image-keyboard-response","34","466648","0.0-34.0","","2789","tutorial/task_familiarization_images/part 2/03_160_80_cliqueLeft_withFeedback_3.PNG","arrowleft","","","","","","","","",""
"","","","","","image-keyboard-response","35","471893","0.0-35.0","","5242","tutorial/task_familiarization_images/part 2/04_160_80_cliqueLeft_withFeedback_correct.PNG"," ","","","","","","","","",""
"","","","","","image-keyboard-response","36","477824","0.0-36.0","","5929","tutorial/task_familiarization_images/part 2/05_160_55_cliqueRight_withFeedback_1.PNG"," ","","","","","","","","",""
"","","","","","image-keyboard-response","37","480768","0.0-37.0","","2942","tutorial/task_familiarization_images/part 2/06_160_55_cliqueRight_withFeedback_2.PNG"," ","","","","","","","","",""
"","","","","","image-keyboard-response","38","482345","0.0-38.0","","1574","tutorial/task_familiarization_images/part 2/07_160_55_cliqueRight_withFeedback_3.PNG","arrowright","","","","","","","","",""
"","","","","","image-keyboard-response","39","486485","0.0-39.0","","4138","tutorial/task_familiarization_images/part 2/08_160_55_cliqueRight_withFeedback_correct.PNG"," ","","","","","","","","",""
"","","","","","image-keyboard-response","40","488194","0.0-40.0","","1708","tutorial/task_familiarization_images/part 2/09_160_70_cliqueLeft_withFeedback_1.PNG"," ","","","","","","","","",""
"","","","","","image-keyboard-response","41","488964","0.0-41.0","","769","tutorial/task_familiarization_images/part 2/10_160_70_cliqueLeft_withFeedback_2.PNG"," ","","","","","","","","",""
"","","","","","image-keyboard-response","42","489722","0.0-42.0","","754","tutorial/task_familiarization_images/part 2/11_160_70_cliqueLeft_withFeedback_3.PNG","arrowleft","","","","","","","","",""
"","","","","","image-keyboard-response","43","491084","0.0-43.0","","1360","tutorial/task_familiarization_images/part 2/12_160_70_cliqueLeft_withFeedback_correct.PNG"," ","","","","","","","","",""
"","","","","","survey-html-form","44","502139","0.0-44.0","","11052","","{""gender"":""female"",""age"":""23""}","","","","","","","","",""
"","","","","","instructions","45","512023","0.0-45.0","[{""page_index"":0,""viewing_time"":9882}]","9882","","","","","","","","","","",""
"true","","","","","fullscreen","46","516772","0.0-47.0","","","","","","","","","","","","",""
"","","","","","canvas-keyboard-response","47","521396","0.0-48.0-0.0-0.0","","4520","","arrowleft","[63,122,132,272,128,38,261,177,229,143,234,174,80,240,59,299,12,254,294,20,170,62,133,180,175,0,56,281,195,278,66,21,110,199,163,160,276,9,156,246,255,270,256,188,289,36,1,76,87,224,186,149,249,154,158,212,232,273,25,145,17,231,58,138,169,73,64,92,98,52,187,221,268,67,258,103,244,285,137,140,26,99,147,101,95,88,113,284,159,230,295,223,200,213,41,131,171,54,100,271,114,14,189,197,102,61,172,2,115,81,222,117,217,263,78,236,288,233,225,202,112,185,93,215,39,141,77,282,165,43,259,60,226,262,105,198,19,191,91,228,275,291,47,34,15,51,44,5,252,86,184,89,210,120,116,139,82,283,16,109,70,257,242,69,11,13,37,227,55,130,265,168,274,124,277,96,85,260,162,4,49,192,239,68,90,164,10,167,111,53,125,42,107,106,3,166,30,27,203,152,207,134,118,24,218,153,71,119,74,214,183,247,264,29,150,6,18,104,84,144,237,208,287,204,127,50,46,243,22,97,94,248,196,292,209,136,250,296,57,155,216,297,126,40,267,190,238,129,241,123,181,72,298,253,108,121,45,65,251,142,290,146,194,201,28,48,157,182,31,280,173,220,279,293,7,206,178,23,35,148,286,33,219,176,205,245,269,83,8,151,79,179,211,161,266,75,135,32,193,235]","arrowright","","false","0","0","90","300","[""0087_N0300_K0090_NOCLIQUE"",""0062_N0300_K0090_CLIQUE""]"
"","","","","","audio-keyboard-response","48","522293","0.0-48.0-0.0-1.0","","null","audio_feedback/wrong/error01.mp3","null","","","","","0","0","90","300","[""0087_N0300_K0090_NOCLIQUE"",""0062_N0300_K0090_CLIQUE""]"
"","","","","","canvas-keyboard-response","49","526338","0.0-49.0-0.0-0.0","","3975",""," ","[296,78,234,138,62,163,170,266,24,70,182,181,261,155,48,2,86,280,156,157,118,150,83,79,185,254,227,219,36,158,64,57,245,146,281,44,61,269,59,195,297,294,121,6,151,67,199,263,271,19,192,90,56,101,270,179,238,225,42,40,63,144,93,129,92,275,257,27,116,73,190,38,104,91,180,109,298,32,72,37,291,160,30,81,34,97,295,58,186,142,111,167,212,285,29,120,9,124,248,149,231,43,196,191,100,123,139,143,0,215,229,26,119,250,177,137,277,28,23,20,147,18,75,16,274,21,288,113,169,198,174,96,207,65,171,259,133,95,103,46,22,159,10,60,8,201,211,256,106,247,115,265,202,197,210,98,276,140,221,136,255,282,85,84,15,267,145,152,66,189,4,55,184,105,1,278,94,3,252,128,232,69,183,240,39,125,141,284,112,286,47,122,76,178,244,87,279,14,25,262,241,176,200,206,12,194,260,220,33,130,53,289,80,283,235,299,35,222,162,204,228,68,41,242,251,258,193,74,7,89,88,154,239,246,209,223,102,165,82,54,293,110,272,168,31,249,290,213,268,188,134,175,166,164,17,107,217,237,161,243,203,208,135,114,132,253,292,226,173,49,264,127,148,45,131,51,236,233,224,218,13,187,273,214,99,11,153,172,287,126,52,50,71,216,205,230,108,77,5,117]","arrowright","","","0","1","90","300","[""0054_N0300_K0090_NOCLIQUE"",""0087_N0300_K0090_CLIQUE""]"
"","","","","","audio-keyboard-response","50","526912","0.0-49.0-0.0-1.0","","null","audio_feedback/shuffles/shuffle01.mp3","null","","","","","0","1","90","300","[""0054_N0300_K0090_NOCLIQUE"",""0087_N0300_K0090_CLIQUE""]"
"","","","","","canvas-keyboard-response","51","528425","0.0-49.1-0.1-0.1","","1447","","arrowright","[152,38,32,36,233,62,218,121,259,229,179,238,16,109,119,234,135,40,244,28,289,0,91,126,83,43,178,69,200,59,239,264,133,67,60,230,205,122,214,26,51,177,124,85,298,236,194,129,3,249,270,18,97,240,64,72,246,120,151,111,55,253,92,68,182,261,180,161,155,221,248,254,45,276,291,198,258,58,42,299,23,76,79,209,144,82,66,138,17,108,30,25,81,287,202,140,207,232,231,288,279,268,199,245,154,112,117,292,226,280,296,242,203,89,22,286,98,267,149,86,166,272,220,93,273,131,39,128,113,106,137,293,136,44,11,252,104,101,100,277,257,158,285,224,5,141,167,19,35,206,223,174,185,61,211,157,172,63,34,105,165,65,114,110,217,164,57,210,266,47,95,201,116,1,20,186,281,84,170,53,213,52,243,176,255,46,146,294,2,14,90,241,195,175,160,150,171,284,297,290,173,87,197,263,269,247,204,265,54,127,187,147,278,274,251,56,78,228,41,80,33,118,215,107,183,271,163,4,6,227,123,50,156,7,130,295,96,189,235,103,139,169,15,260,262,283,142,75,10,37,125,21,282,71,162,48,49,192,225,8,143,70,196,159,190,134,9,148,99,208,73,74,188,29,216,115,191,168,24,31,250,145,275,77,27,193,212,12,237,94,102,153,222,219,13,88,256,184,132,181]","arrowright","","true","0","1","90","300","[""0054_N0300_K0090_NOCLIQUE"",""0087_N0300_K0090_CLIQUE""]"
"","","","","","audio-keyboard-response","52","528852","0.0-49.1-0.1-1.1","","null","audio_feedback/right/coin01.mp3","null","","","","","0","1","90","300","[""0054_N0300_K0090_NOCLIQUE"",""0087_N0300_K0090_CLIQUE""]"
"","","","","","canvas-keyboard-response","53","531317","0.0-50.0-0.0-0.0","","2390","","arrowleft","[221,187,186,200,37,139,217,145,294,208,55,107,272,271,299,296,155,38,182,250,212,167,298,265,164,232,25,62,86,201,118,35,43,53,153,71,7,279,143,13,222,125,14,75,123,52,110,268,215,96,144,76,42,291,4,205,189,89,214,157,245,48,197,199,161,251,248,207,274,142,290,59,154,91,2,160,181,33,78,41,127,183,286,270,165,1,147,166,276,230,238,150,195,259,15,134,124,29,58,106,151,170,32,93,30,253,237,23,178,193,12,159,28,227,90,140,10,228,171,177,113,137,54,136,223,17,112,47,278,191,283,77,275,88,285,226,100,269,256,133,16,234,297,3,219,6,254,99,9,185,98,281,51,146,179,168,292,46,239,240,132,209,36,49,87,70,31,224,34,114,233,105,27,65,84,231,92,289,50,85,83,0,188,128,20,121,194,109,94,40,101,229,266,287,225,21,216,260,163,79,60,148,18,66,258,104,116,68,174,61,262,204,203,255,80,244,267,141,95,236,246,64,176,103,295,149,102,273,130,108,120,67,202,24,162,243,45,158,210,11,198,241,173,57,206,175,263,242,81,211,172,261,284,252,235,135,277,122,293,190,220,39,69,97,249,5,138,72,156,282,44,115,169,196,129,288,19,119,56,74,117,152,22,264,257,73,213,131,82,218,184,180,126,26,280,63,247,111,8,192]","arrowright","","false","0","2","80","300","[""0021_N0300_K0080_NOCLIQUE"",""0044_N0300_K0080_CLIQUE""]"
"","","","","","audio-keyboard-response","54","531913","0.0-50.0-0.0-1.0","","null","audio_feedback/wrong/error01.mp3","null","","","","","0","2","80","300","[""0021_N0300_K0080_NOCLIQUE"",""0044_N0300_K0080_CLIQUE""]"
"","","","","","canvas-keyboard-response","55","536628","0.0-51.0-0.0-0.0","","4650",""," ","[77,17,204,107,32,131,272,89,165,278,149,223,119,54,181,256,42,176,217,194,213,18,268,229,34,287,114,124,192,99,96,171,265,48,68,26,58,61,233,28,193,16,86,7,31,245,59,271,144,25,231,55,73,102,235,218,71,203,200,135,0,286,274,152,227,293,262,65,141,49,284,93,133,240,180,205,95,220,290,50,208,3,211,202,143,4,97,248,191,81,183,52,257,185,243,196,263,154,295,138,222,162,51,210,122,283,292,160,41,161,142,146,123,170,11,63,100,250,62,291,83,103,214,264,137,118,206,115,215,84,35,169,75,30,88,40,37,129,150,6,56,198,136,164,172,53,79,228,199,47,224,128,120,132,121,219,249,252,280,39,67,155,21,126,251,147,43,153,167,277,1,108,12,236,241,174,166,254,145,244,5,27,105,109,140,187,226,14,246,82,281,45,276,297,285,258,151,197,242,201,238,110,186,260,64,261,189,106,247,178,282,273,125,279,57,101,255,253,296,36,78,275,182,148,184,159,158,22,15,232,173,29,60,13,113,44,163,116,270,9,98,87,8,2,267,112,134,230,127,66,74,289,175,288,195,76,90,239,104,46,225,237,269,94,10,221,72,69,207,130,38,209,85,212,266,298,23,294,299,188,24,91,70,156,20,168,234,139,80,92,19,179,157,111,216,177,33,117,190,259]","arrowright","","","0","3","80","300","[""0023_N0300_K0080_NOCLIQUE"",""0040_N0300_K0080_CLIQUE""]"
"","","","","","audio-keyboard-response","56","537192","0.0-51.0-0.0-1.0","","null","audio_feedback/shuffles/shuffle01.mp3","null","","","","","0","3","80","300","[""0023_N0300_K0080_NOCLIQUE"",""0040_N0300_K0080_CLIQUE""]"
"","","","","","canvas-keyboard-response","57","539868","0.0-51.1-0.1-0.1","","2609","","arrowright","[268,270,223,60,238,93,199,41,158,82,114,121,91,11,45,133,161,81,265,171,201,250,23,108,42,129,258,140,293,156,136,177,173,224,211,240,281,291,198,230,78,170,200,98,32,47,7,244,115,96,208,153,278,95,191,26,174,37,221,103,298,286,92,288,225,134,104,59,69,159,266,260,75,213,139,55,249,102,255,94,48,164,125,189,144,175,292,131,106,215,299,226,217,30,247,24,186,287,263,207,43,10,124,296,167,237,88,83,35,63,142,14,58,65,107,209,145,147,105,242,188,264,71,256,259,16,116,49,295,84,176,138,76,203,0,160,110,73,187,280,50,294,289,15,169,257,31,46,122,239,276,190,195,248,162,123,77,245,64,74,219,3,149,113,22,205,28,236,284,39,19,52,277,36,222,168,6,184,13,234,179,274,111,87,66,29,297,150,218,34,21,1,229,271,151,233,254,119,112,17,126,9,196,180,197,90,212,27,220,157,172,56,120,86,97,163,80,166,273,38,185,235,137,5,182,20,99,54,178,285,118,143,282,232,216,252,152,2,210,72,267,127,261,193,51,57,253,85,290,130,194,100,8,243,275,101,4,79,241,40,183,231,146,269,204,33,272,117,246,25,141,228,279,109,44,155,12,128,67,192,61,18,283,214,227,165,135,181,202,148,89,251,262,206,68,70,132,53,154,62]","arrowright","","true","0","3","80","300","[""0023_N0300_K0080_NOCLIQUE"",""0040_N0300_K0080_CLIQUE""]"
"","","","","","audio-keyboard-response","58","540272","0.0-51.1-0.1-1.1","","null","audio_feedback/right/coin01.mp3","null","","","","","0","3","80","300","[""0023_N0300_K0080_NOCLIQUE"",""0040_N0300_K0080_CLIQUE""]"
"","","","","","canvas-keyboard-response","59","542474","0.0-52.0-0.0-0.0","","2135",""," ","[108,281,159,100,30,43,169,67,177,116,47,134,62,221,216,205,75,297,32,172,24,4,263,131,251,213,277,80,272,1,167,252,9,215,15,98,266,37,26,29,38,57,5,6,247,298,180,214,139,203,199,249,141,99,246,178,152,63,50,275,189,124,76,147,95,113,225,97,256,194,36,92,204,35,85,137,104,12,53,271,173,163,254,121,127,103,68,289,243,265,18,34,233,240,248,218,229,186,282,153,279,82,42,228,79,244,7,19,149,223,128,126,65,164,148,212,285,110,190,258,166,123,260,157,234,66,23,191,13,200,209,283,40,146,45,245,202,156,296,31,52,210,77,54,133,276,208,119,58,94,20,49,78,292,56,155,253,198,220,182,10,175,267,269,8,73,160,273,168,171,232,72,25,238,226,91,96,295,106,145,250,111,162,161,21,241,3,33,201,138,136,236,90,187,154,185,176,227,181,101,74,188,235,132,87,262,259,22,257,179,261,120,64,112,2,129,16,70,170,69,105,115,130,107,28,274,222,86,268,291,207,140,46,60,288,48,231,224,196,158,118,299,287,211,165,83,174,11,193,230,264,206,117,151,41,135,55,284,219,84,278,197,286,280,195,293,217,39,122,184,102,93,183,242,255,89,290,192,44,143,237,239,17,270,88,144,71,81,125,27,51,142,61,150,114,294,109,59,0,14]","arrowleft","","","0","4","70","300","[""0041_N0300_K0070_CLIQUE"",""0089_N0300_K0070_NOCLIQUE""]"
"","","","","","audio-keyboard-response","60","543050","0.0-52.0-0.0-1.0","","null","audio_feedback/shuffles/shuffle01.mp3","null","","","","","0","4","70","300","[""0041_N0300_K0070_CLIQUE"",""0089_N0300_K0070_NOCLIQUE""]"
"","","","","","canvas-keyboard-response","61","544372","0.0-52.1-0.1-0.1","","1260","","arrowleft","[293,178,196,248,131,282,23,44,215,212,203,92,192,152,247,148,236,64,84,233,243,120,128,287,207,60,296,187,56,237,229,260,270,175,52,132,239,184,77,38,24,146,257,138,185,166,68,188,167,17,246,179,269,35,124,232,33,288,32,41,299,272,162,98,18,209,297,118,116,181,43,109,230,276,22,27,2,193,61,228,96,195,245,59,30,259,258,151,267,19,12,75,168,48,144,16,13,51,79,194,234,97,160,11,127,55,111,286,86,115,208,291,159,205,256,76,169,202,227,121,241,74,190,53,8,134,277,283,211,249,136,217,40,198,133,39,170,91,172,150,200,81,25,171,42,157,140,278,93,4,114,180,95,135,281,223,20,65,295,34,290,104,14,125,218,292,105,50,225,210,122,154,36,123,62,88,113,130,102,273,63,69,163,226,274,6,26,250,1,108,119,37,161,0,189,177,294,158,231,155,112,47,285,214,265,58,80,7,147,57,5,137,9,216,117,103,244,83,268,284,99,29,261,54,183,21,82,251,289,141,49,264,153,15,242,85,31,67,266,201,263,145,164,45,219,279,28,186,252,156,176,101,143,298,275,129,224,90,262,221,254,255,110,165,66,222,182,197,89,106,235,238,206,73,280,107,240,204,70,173,149,191,72,142,46,3,199,78,271,71,100,87,126,10,253,139,174,213,220,94]","arrowleft","","true","0","4","70","300","[""0041_N0300_K0070_CLIQUE"",""0089_N0300_K0070_NOCLIQUE""]"
"","","","","","audio-keyboard-response","62","544793","0.0-52.1-0.1-1.1","","null","audio_feedback/right/coin01.mp3","null","","","","","0","4","70","300","[""0041_N0300_K0070_CLIQUE"",""0089_N0300_K0070_NOCLIQUE""]"
"","","","","","canvas-keyboard-response","63","546676","0.0-53.0-0.0-0.0","","1809","","arrowleft","[59,108,56,159,6,128,270,277,127,132,29,64,105,180,113,292,284,266,262,73,258,118,165,55,81,99,281,160,104,57,22,178,129,280,188,39,75,238,36,198,12,96,167,101,69,231,51,264,170,152,208,225,76,239,232,274,116,255,290,261,193,209,273,146,210,100,196,233,91,18,52,34,248,249,112,156,67,224,226,150,276,71,117,171,27,131,206,288,291,107,50,181,54,147,223,257,85,299,102,23,195,185,19,275,17,48,109,31,61,86,182,164,9,267,285,154,5,136,77,141,11,234,130,172,126,247,21,45,33,220,199,175,7,145,148,296,46,278,183,40,115,93,119,218,252,211,92,15,173,190,97,279,263,242,221,14,194,149,289,26,142,53,74,63,272,213,297,20,70,295,240,144,260,138,265,30,60,230,122,202,120,177,192,237,269,163,155,28,176,251,250,161,88,13,125,43,72,98,123,66,216,121,253,135,268,282,243,293,294,205,83,114,78,222,219,162,10,157,16,217,229,8,286,200,184,65,0,49,110,137,133,271,254,227,287,139,79,204,94,201,24,82,1,38,47,35,58,134,241,203,44,80,4,90,187,62,84,42,246,259,168,212,235,3,298,169,25,143,32,151,140,179,214,236,228,174,283,245,41,191,215,124,2,87,153,103,111,186,189,89,158,37,244,197,256,106,166,95,207,68]","arrowright","","false","0","5","70","300","[""0017_N0300_K0070_NOCLIQUE"",""0046_N0300_K0070_CLIQUE""]"
"","","","","","audio-keyboard-response","64","547272","0.0-53.0-0.0-1.0","","null","audio_feedback/wrong/error01.mp3","null","","","","","0","5","70","300","[""0017_N0300_K0070_NOCLIQUE"",""0046_N0300_K0070_CLIQUE""]"
"","","","","","canvas-keyboard-response","65","551692","0.0-54.0-0.0-0.0","","4344",""," ","[239,120,203,105,238,194,265,31,77,299,43,151,87,164,70,12,171,216,288,19,276,256,56,258,6,209,67,155,29,62,64,292,298,55,245,252,21,277,158,32,279,174,257,267,263,198,140,217,117,109,183,33,250,11,200,115,134,24,101,51,104,223,74,172,188,173,180,84,69,27,157,14,7,205,177,107,10,271,286,195,36,89,30,20,65,91,166,16,44,82,235,282,133,268,18,118,99,169,259,207,4,219,272,196,275,270,94,291,226,22,141,273,167,46,191,243,165,261,232,78,278,253,132,230,73,142,63,248,106,76,244,75,144,93,103,182,122,9,186,266,71,98,113,66,15,57,206,254,38,214,212,237,68,149,61,229,138,37,150,50,159,126,274,190,35,179,13,92,162,284,80,236,269,152,242,39,283,255,48,187,81,148,240,125,3,247,264,161,86,178,108,41,124,128,139,227,90,28,231,45,184,225,215,72,281,170,295,222,160,153,181,123,241,293,145,220,143,2,112,79,60,202,285,88,208,5,146,137,296,23,135,201,85,17,131,189,156,129,193,100,294,97,185,25,1,246,116,114,119,221,197,280,154,0,163,121,218,297,204,8,290,52,251,95,211,127,110,42,176,224,213,59,26,210,289,34,130,175,102,199,233,58,249,287,111,53,40,228,260,49,234,136,83,147,168,262,54,47,96,192]","arrowleft","","","0","6","65","300","[""0042_N0300_K0065_CLIQUE"",""0091_N0300_K0065_NOCLIQUE""]"
"","","","","","audio-keyboard-response","66","552270","0.0-54.0-0.0-1.0","","null","audio_feedback/shuffles/shuffle01.mp3","null","","","","","0","6","65","300","[""0042_N0300_K0065_CLIQUE"",""0091_N0300_K0065_NOCLIQUE""]"
"","","","","","canvas-keyboard-response","67","553313","0.0-54.1-0.1-0.1","","969","","arrowleft","[268,294,136,280,288,66,97,135,206,95,204,123,195,185,148,141,269,38,25,201,7,200,73,209,192,132,36,199,19,4,244,219,99,10,51,143,159,81,186,262,12,210,13,212,70,267,62,237,5,52,151,271,239,223,274,225,84,90,144,96,8,3,183,170,180,111,39,282,161,162,157,21,258,231,139,37,56,113,152,104,203,63,105,121,238,60,29,88,50,249,126,176,177,287,217,55,100,275,112,79,46,168,114,34,292,35,146,266,83,22,117,273,235,150,131,236,102,156,253,133,202,241,115,137,252,149,191,72,142,193,154,232,211,165,175,65,256,67,166,163,278,296,87,213,188,291,284,140,281,1,174,9,118,270,30,187,196,205,93,6,164,48,169,107,91,64,234,11,110,299,98,23,277,116,119,293,128,0,172,58,61,194,155,80,103,86,134,221,257,59,44,69,130,120,76,47,92,279,250,57,297,286,285,216,26,31,255,197,74,182,122,261,190,230,233,153,207,228,240,224,14,251,32,17,167,222,33,215,289,295,145,106,226,179,125,18,254,245,24,272,227,158,260,82,54,198,108,138,127,53,71,214,247,94,218,28,173,124,45,16,20,243,264,246,290,41,229,208,49,89,283,15,27,171,242,43,298,40,248,263,75,276,265,147,42,129,101,109,220,78,259,178,160,85,181,189,68,77,2,184]","arrowleft","","true","0","6","65","300","[""0042_N0300_K0065_CLIQUE"",""0091_N0300_K0065_NOCLIQUE""]"
"","","","","","audio-keyboard-response","68","553730","0.0-54.1-0.1-1.1","","null","audio_feedback/right/coin01.mp3","null","","","","","0","6","65","300","[""0042_N0300_K0065_CLIQUE"",""0091_N0300_K0065_NOCLIQUE""]"
"","","","","","canvas-keyboard-response","69","554609","0.0-55.0-0.0-0.0","","809","","arrowleft","[232,177,283,138,169,278,247,63,35,249,120,237,165,224,133,286,194,127,238,68,88,2,270,37,98,152,258,173,164,159,94,34,161,277,167,222,202,208,274,114,3,112,198,220,18,253,65,223,295,160,204,172,17,19,9,145,117,40,56,158,262,163,39,297,210,30,44,236,290,216,240,25,58,171,101,272,129,93,111,144,174,121,24,200,269,52,298,170,266,178,226,110,77,187,66,284,31,102,137,33,233,83,118,140,186,294,108,280,260,192,291,234,103,183,126,76,176,221,242,193,288,135,289,80,229,252,185,62,23,130,64,196,109,267,104,136,180,128,50,257,143,59,97,32,125,20,46,271,227,151,41,60,87,21,45,78,250,86,246,153,248,235,22,150,47,27,26,203,181,281,244,15,239,162,79,282,0,123,285,142,12,134,91,205,231,43,259,292,199,225,49,166,124,36,293,219,168,276,132,61,268,107,155,195,74,273,201,263,254,115,96,197,230,265,154,179,85,228,189,54,209,84,279,146,72,113,251,92,1,287,10,73,264,191,14,299,67,212,71,188,275,148,51,11,53,214,241,57,156,147,141,89,13,16,100,245,255,70,42,81,261,218,211,48,122,139,6,184,28,8,69,55,106,5,206,217,175,38,190,75,119,4,157,116,243,7,207,131,95,149,99,105,296,29,256,213,90,82,182,215]","arrowleft","","true","0","7","65","300","[""0055_N0300_K0065_CLIQUE"",""0071_N0300_K0065_NOCLIQUE""]"
"","","","","","audio-keyboard-response","70","555030","0.0-55.0-0.0-1.0","","null","audio_feedback/right/coin01.mp3","null","","","","","0","7","65","300","[""0055_N0300_K0065_CLIQUE"",""0071_N0300_K0065_NOCLIQUE""]"
"","","","","","canvas-keyboard-response","71","557447","0.0-56.0-0.0-0.0","","2350","","arrowleft","[292,266,47,108,100,195,210,86,64,240,262,90,68,109,241,133,140,169,124,246,39,285,71,21,37,220,14,259,276,107,167,128,242,172,112,56,101,280,186,283,244,116,263,22,184,104,141,213,3,29,53,134,26,251,23,30,196,212,102,78,138,229,226,166,257,82,33,84,63,214,205,255,52,49,36,98,80,279,227,197,11,243,298,151,50,154,265,97,206,19,295,187,75,35,150,249,157,38,28,55,296,189,203,228,250,258,270,143,74,79,236,238,232,176,126,66,8,165,5,46,145,190,94,168,193,194,65,183,286,43,293,277,115,76,110,92,18,0,85,67,290,34,88,294,73,192,163,83,233,237,25,215,198,207,120,95,152,271,89,269,121,161,201,45,171,252,219,264,27,170,51,180,148,200,218,111,288,268,58,267,9,204,211,119,216,60,62,16,32,235,256,136,225,224,289,91,127,260,230,282,231,223,72,41,146,199,103,129,175,77,142,87,144,137,54,274,48,10,132,217,182,12,174,156,149,106,179,247,118,291,117,181,281,234,69,272,57,24,81,178,202,275,96,99,159,248,114,239,164,15,1,188,297,6,113,287,42,125,105,20,284,155,135,2,162,123,70,139,261,254,153,173,31,7,191,222,278,17,93,131,253,185,44,59,4,13,177,208,130,209,147,273,221,40,299,122,158,61,245,160]","arrowleft","","true","0","8","60","300","[""0006_N0300_K0060_CLIQUE"",""0002_N0300_K0060_NOCLIQUE""]"
"","","","","","audio-keyboard-response","72","557870","0.0-56.0-0.0-1.0","","null","audio_feedback/right/coin01.mp3","null","","","","","0","8","60","300","[""0006_N0300_K0060_CLIQUE"",""0002_N0300_K0060_NOCLIQUE""]"
"","","","","","canvas-keyboard-response","73","559797","0.0-57.0-0.0-0.0","","1858",""," ","[14,166,198,84,180,189,276,247,248,57,237,225,287,217,56,80,188,168,120,152,36,18,262,239,50,272,130,263,77,5,292,144,233,172,171,202,256,161,82,208,126,19,162,71,32,255,157,9,90,142,242,33,72,235,8,143,59,260,177,214,296,107,186,0,125,38,138,24,102,257,243,4,68,280,128,39,91,46,116,165,220,181,178,173,115,270,89,187,83,229,238,55,64,289,176,20,34,103,81,174,215,122,61,100,212,264,153,110,213,40,22,167,191,70,96,78,35,206,127,154,145,13,204,218,286,17,121,234,41,29,15,297,134,16,75,30,278,261,45,192,147,259,109,226,139,253,159,54,93,285,106,12,98,44,175,87,193,236,201,227,252,279,124,205,76,11,67,101,99,209,224,156,119,140,149,66,133,21,291,246,163,58,266,267,132,25,146,199,295,3,240,258,195,210,74,65,254,275,281,231,97,250,155,47,249,169,170,136,251,207,51,282,86,60,69,42,104,23,200,111,2,232,273,294,265,148,123,197,158,150,6,182,113,185,288,228,88,26,274,53,183,108,135,85,118,105,79,31,7,141,43,244,223,241,245,48,151,196,298,283,62,222,49,277,112,290,1,268,73,10,269,221,190,114,184,117,160,164,94,299,179,28,37,92,129,219,63,230,293,211,27,284,52,203,137,131,216,271,95,194]","arrowleft","","","0","9","60","300","[""0009_N0300_K0060_CLIQUE"",""0095_N0300_K0060_NOCLIQUE""]"
"","","","","","audio-keyboard-response","74","560371","0.0-57.0-0.0-1.0","","null","audio_feedback/shuffles/shuffle01.mp3","null","","","","","0","9","60","300","[""0009_N0300_K0060_CLIQUE"",""0095_N0300_K0060_NOCLIQUE""]"
"","","","","","canvas-keyboard-response","75","561776","0.0-57.1-0.1-0.1","","1341","","arrowright","[37,260,70,131,126,281,112,73,279,129,184,71,25,224,192,196,141,273,286,219,101,250,135,97,205,233,28,291,165,193,32,72,185,92,50,238,283,163,122,272,264,5,67,145,34,265,11,156,13,3,53,20,183,76,10,229,111,62,43,175,214,130,280,262,159,298,85,99,109,4,201,177,98,257,64,89,48,87,30,240,113,120,249,166,274,211,125,212,171,103,79,128,221,287,284,246,77,270,167,186,137,22,82,39,202,74,172,78,247,146,181,17,263,271,15,158,149,217,86,261,41,182,199,132,242,296,80,46,154,269,189,164,276,187,23,150,248,195,208,133,56,1,115,288,127,140,69,241,91,179,121,118,277,234,114,232,100,206,124,213,12,231,170,104,295,299,31,151,117,57,191,47,162,223,24,49,157,155,239,60,292,63,220,148,51,169,285,188,119,6,44,216,255,297,222,14,7,180,93,52,268,282,19,174,59,139,210,289,138,209,26,21,96,40,266,123,58,251,258,68,153,176,275,55,45,152,278,110,236,227,9,35,235,84,18,134,252,88,207,200,198,106,245,136,190,107,254,237,38,102,90,267,29,142,83,226,36,0,33,294,178,218,215,81,173,61,108,161,105,147,8,27,244,160,204,290,256,259,253,143,197,65,75,225,66,228,95,16,94,243,194,42,2,168,293,230,144,116,203,54]","arrowleft","","false","0","9","60","300","[""0009_N0300_K0060_CLIQUE"",""0095_N0300_K0060_NOCLIQUE""]"
"","","","","","audio-keyboard-response","76","562370","0.0-57.1-0.1-1.1","","null","audio_feedback/wrong/error01.mp3","null","","","","","0","9","60","300","[""0009_N0300_K0060_CLIQUE"",""0095_N0300_K0060_NOCLIQUE""]"
"","","","","","canvas-keyboard-response","77","566750","0.0-58.0-0.0-0.0","","4314","","arrowright","[51,86,3,167,124,265,141,19,243,184,123,279,40,8,111,139,291,116,255,81,196,277,248,28,260,125,205,83,214,193,164,225,132,287,66,120,133,257,181,32,148,222,174,245,232,73,179,209,62,231,188,151,281,77,223,236,261,22,229,5,100,74,38,69,297,208,150,98,212,272,276,101,36,249,156,286,201,82,190,60,185,53,253,160,59,242,158,146,189,230,135,91,80,168,278,244,221,294,289,162,52,55,64,299,41,72,254,65,197,186,204,127,17,235,285,233,206,258,121,113,130,144,216,211,165,49,129,153,128,6,251,87,271,166,30,57,95,29,33,61,112,78,12,21,218,142,96,115,198,114,48,137,238,105,247,143,246,295,224,20,79,25,210,71,175,163,296,68,154,93,63,290,94,180,213,89,241,219,70,88,56,182,176,1,47,23,170,2,85,136,215,298,103,157,102,202,194,177,109,37,282,39,288,250,0,26,16,192,84,99,199,169,117,15,273,119,110,131,4,90,240,13,275,145,284,183,106,67,280,293,44,228,195,159,118,76,200,14,92,172,262,122,140,155,220,42,239,75,104,171,226,173,237,138,43,191,31,97,27,108,270,11,161,24,234,35,45,34,178,256,18,107,207,267,187,292,268,217,266,252,269,134,227,58,149,10,263,264,7,274,203,283,152,9,126,147,50,54,259,46]","arrowleft","","false","0","10","55","300","[""0026_N0300_K0055_CLIQUE"",""0038_N0300_K0055_NOCLIQUE""]"
"","","","","","audio-keyboard-response","78","567351","0.0-58.0-0.0-1.0","","null","audio_feedback/wrong/error01.mp3","null","","","","","0","10","55","300","[""0026_N0300_K0055_CLIQUE"",""0038_N0300_K0055_NOCLIQUE""]"
"","","","","","canvas-keyboard-response","79","570989","0.0-59.0-0.0-0.0","","3564",""," ","[272,240,247,284,80,113,0,39,6,255,167,237,3,259,225,27,103,5,157,106,46,54,263,31,122,292,151,10,208,230,243,161,135,85,224,212,187,232,195,264,50,207,286,222,261,281,276,77,258,186,91,191,239,163,136,257,299,42,227,125,214,60,146,217,216,20,22,4,15,79,138,204,170,253,88,148,78,290,11,197,285,178,147,72,199,293,124,150,155,223,159,117,172,181,95,198,51,203,188,76,53,68,275,126,180,48,189,244,29,175,115,229,134,37,25,238,21,158,87,228,109,280,289,184,8,265,23,1,127,74,294,267,295,246,162,35,271,236,67,104,44,62,99,52,73,83,93,19,105,17,34,266,32,231,279,192,114,63,201,194,133,273,270,16,98,137,89,9,140,220,209,211,242,100,41,120,123,174,130,58,254,177,185,296,12,108,278,96,43,65,28,57,262,210,297,164,110,298,218,252,215,116,81,18,70,121,235,202,128,59,283,149,71,14,141,107,118,205,66,182,40,269,166,144,69,245,221,196,190,119,61,169,33,38,84,142,248,49,47,82,173,291,24,131,101,277,64,251,282,111,165,256,156,260,13,168,153,274,86,154,183,30,287,112,56,226,97,139,90,213,26,160,132,45,152,171,206,75,219,268,249,102,145,241,143,55,7,176,2,94,36,179,288,129,250,200,234,92,193,233]","arrowleft","","","0","11","55","300","[""0091_N0300_K0055_CLIQUE"",""0030_N0300_K0055_NOCLIQUE""]"
"","","","","","audio-keyboard-response","80","571569","0.0-59.0-0.0-1.0","","null","audio_feedback/shuffles/shuffle01.mp3","null","","","","","0","11","55","300","[""0091_N0300_K0055_CLIQUE"",""0030_N0300_K0055_NOCLIQUE""]"
"","","","","","canvas-keyboard-response","81","573569","0.0-59.1-0.1-0.1","","1923","","arrowright","[182,169,113,162,91,80,223,155,237,59,57,20,287,215,50,298,120,247,164,89,288,274,29,252,61,225,71,67,151,200,24,255,276,191,134,199,86,158,278,268,5,292,271,207,231,159,25,28,243,21,256,156,181,18,36,269,16,96,219,118,98,161,203,172,8,111,205,66,81,202,176,85,248,227,283,185,265,275,75,234,124,69,224,13,133,92,222,48,233,121,246,216,41,229,184,4,253,192,257,62,262,116,153,285,183,284,2,73,12,64,79,236,3,90,295,194,279,140,277,171,26,99,122,251,204,143,110,197,103,273,56,129,254,281,282,30,93,244,33,264,213,186,187,130,126,280,141,180,238,136,139,165,150,137,38,108,294,212,135,190,230,77,114,63,167,128,157,193,6,250,106,201,160,14,19,112,221,179,267,9,138,22,261,239,43,82,258,142,245,51,178,148,175,235,228,241,84,211,286,39,49,195,290,291,177,60,119,104,37,209,170,0,297,72,149,214,10,47,70,53,31,107,105,97,188,132,226,210,87,42,88,54,55,15,46,131,208,218,23,1,163,196,11,147,35,242,40,266,154,240,173,249,125,152,260,74,263,95,123,145,17,259,168,166,198,299,206,270,44,296,189,272,27,146,232,52,32,76,293,83,220,115,144,7,217,34,289,58,45,174,101,94,68,102,65,117,100,78,127,109]","arrowleft","","false","0","11","55","300","[""0091_N0300_K0055_CLIQUE"",""0030_N0300_K0055_NOCLIQUE""]"
"","","","","","audio-keyboard-response","82","574169","0.0-59.1-0.1-1.1","","null","audio_feedback/wrong/error01.mp3","null","","","","","0","11","55","300","[""0091_N0300_K0055_CLIQUE"",""0030_N0300_K0055_NOCLIQUE""]"
"","","","","","canvas-keyboard-response","83","576281","0.0-60.0-0.0-0.0","","2046","","arrowleft","[104,274,24,279,57,222,204,189,45,246,230,223,43,217,238,265,181,201,130,113,240,221,95,58,118,51,261,133,224,115,107,249,291,275,69,298,55,134,93,203,79,256,187,129,292,68,194,128,155,212,178,70,64,19,29,272,235,160,264,166,268,62,226,219,86,13,164,162,195,244,17,188,276,209,27,186,269,210,169,16,171,239,32,35,87,26,149,126,98,145,148,152,273,288,23,101,142,73,61,42,53,89,125,207,247,199,151,3,111,259,263,33,122,82,14,67,123,36,157,103,41,140,84,278,63,106,183,251,65,206,8,258,135,30,109,46,154,18,266,110,267,74,114,124,236,299,47,1,85,234,49,77,176,15,147,271,66,80,191,75,39,257,158,283,250,88,270,141,170,174,2,284,159,237,59,60,92,146,252,218,182,31,71,255,228,173,40,44,143,76,5,205,97,163,297,175,10,243,190,296,285,99,90,184,277,25,28,293,172,108,6,22,34,286,168,131,295,227,96,56,290,233,242,121,281,229,254,138,289,208,11,215,37,150,179,214,78,241,20,94,7,72,144,213,48,136,0,167,280,232,102,4,105,50,294,282,202,211,197,231,153,156,9,38,139,193,262,161,177,137,198,132,185,196,54,21,216,81,116,245,117,120,260,165,253,127,180,52,112,248,225,220,287,200,83,192,100,12,119,91]","arrowleft","","true","0","12","50","300","[""0051_N0300_K0050_CLIQUE"",""0039_N0300_K0050_NOCLIQUE""]"
"","","","","","audio-keyboard-response","84","576710","0.0-60.0-0.0-1.0","","null","audio_feedback/right/coin01.mp3","null","","","","","0","12","50","300","[""0051_N0300_K0050_CLIQUE"",""0039_N0300_K0050_NOCLIQUE""]"
"","","","","","canvas-keyboard-response","85","580019","0.0-61.0-0.0-0.0","","3245","","arrowleft","[55,37,160,198,281,122,127,214,219,67,97,229,297,220,68,247,180,218,23,168,137,50,267,40,287,246,285,203,209,76,199,282,49,43,271,72,232,77,175,90,27,205,255,0,291,92,210,265,117,165,54,73,35,130,70,243,134,187,30,161,245,11,7,256,207,79,217,197,20,184,29,280,42,136,252,298,250,260,126,151,173,242,36,170,272,290,261,221,60,98,87,266,174,103,225,294,166,2,213,13,154,74,235,3,231,46,236,144,186,99,17,51,108,121,201,275,95,5,190,1,111,244,125,299,63,28,181,172,91,116,148,179,135,192,52,104,9,10,58,182,56,75,8,241,211,123,139,162,78,32,177,240,105,295,131,143,80,222,284,208,296,96,107,145,31,176,226,292,288,276,64,233,264,183,273,106,227,61,142,274,193,216,84,289,268,249,283,150,167,253,215,147,164,185,53,248,26,47,146,128,278,200,62,109,254,88,163,115,286,157,155,89,57,141,114,118,44,262,24,93,153,33,159,279,237,12,152,158,251,196,140,212,132,202,171,149,65,257,39,239,34,102,156,48,270,191,138,124,38,4,85,101,204,83,25,71,189,293,277,188,269,259,45,133,178,6,94,112,258,100,263,86,195,169,228,230,19,66,223,224,234,194,82,22,21,81,120,113,59,41,110,129,119,15,238,206,14,69,18,16]","arrowleft","","true","0","13","50","300","[""0013_N0300_K0050_CLIQUE"",""0005_N0300_K0050_NOCLIQUE""]"
"","","","","","audio-keyboard-response","86","580429","0.0-61.0-0.0-1.0","","null","audio_feedback/right/coin01.mp3","null","","","","","0","13","50","300","[""0013_N0300_K0050_CLIQUE"",""0005_N0300_K0050_NOCLIQUE""]"
"","","","","","canvas-keyboard-response","87","581834","0.0-62.0-0.0-0.0","","1333","","arrowleft","[288,248,35,210,36,187,264,123,78,267,75,116,2,15,44,12,128,47,126,147,284,56,64,208,253,250,22,38,76,50,16,216,299,259,106,37,72,132,91,263,270,232,171,254,206,137,229,237,236,73,105,96,122,125,51,34,204,296,272,11,97,32,257,69,158,117,130,177,141,42,156,148,161,49,297,295,98,80,215,45,134,228,239,213,48,95,136,63,169,202,231,173,252,174,4,79,150,20,83,289,165,92,58,292,24,188,203,155,207,131,139,81,100,162,31,87,43,145,33,8,140,225,181,65,176,121,7,221,88,185,184,217,107,159,160,124,172,41,109,212,28,129,285,283,271,157,71,262,222,183,290,226,298,189,29,196,120,223,266,3,52,219,23,238,166,230,153,182,279,112,194,293,277,17,265,168,59,13,273,146,26,86,218,85,256,152,149,127,39,175,233,244,281,133,19,144,243,25,195,67,260,224,261,274,114,170,1,18,66,118,110,200,235,258,138,268,163,84,180,275,21,193,60,103,197,54,70,287,55,192,186,280,240,251,135,27,167,214,68,211,10,291,90,99,205,164,77,0,269,245,227,282,286,179,111,278,40,5,104,108,82,74,276,113,154,199,151,241,9,143,93,234,246,53,115,142,201,57,255,178,101,247,89,6,242,294,61,198,94,30,14,190,62,220,102,119,191,249,209,46]","arrowleft","","true","0","14","45","300","[""0068_N0300_K0045_CLIQUE"",""0023_N0300_K0045_NOCLIQUE""]"
"","","","","","audio-keyboard-response","88","582251","0.0-62.0-0.0-1.0","","null","audio_feedback/right/coin01.mp3","null","","","","","0","14","45","300","[""0068_N0300_K0045_CLIQUE"",""0023_N0300_K0045_NOCLIQUE""]"
"","","","","","canvas-keyboard-response","89","584451","0.0-63.0-0.0-0.0","","2139","","arrowright","[34,282,110,241,129,43,52,177,97,5,160,35,131,99,55,87,89,53,240,270,159,31,84,167,98,230,93,8,206,32,128,254,223,20,14,109,155,58,162,277,24,15,12,248,108,163,54,256,295,224,51,180,62,101,85,96,119,10,259,152,148,90,237,140,157,164,7,213,283,242,26,171,169,117,154,151,71,156,83,290,100,37,114,260,40,202,50,273,39,257,74,25,66,139,122,179,68,166,299,261,126,80,182,247,185,217,61,262,88,285,63,178,147,69,231,246,274,102,275,27,57,189,289,266,243,219,19,232,253,138,6,130,116,9,67,211,284,92,121,81,239,64,4,281,200,103,268,236,45,201,226,78,48,115,112,225,104,94,65,75,218,208,276,229,216,73,60,234,199,286,28,2,59,22,220,33,29,196,76,56,127,1,280,36,133,191,41,145,184,272,107,161,287,125,298,263,158,3,153,132,228,186,209,42,172,142,251,264,278,170,77,11,288,265,176,146,190,82,291,227,106,72,165,207,149,195,192,150,120,118,205,221,70,269,188,222,174,123,294,198,210,95,238,38,18,203,49,252,91,30,212,44,79,143,293,17,214,297,16,21,175,255,105,183,194,13,173,258,113,137,244,47,292,204,197,23,86,181,215,245,187,144,250,111,233,235,136,168,193,0,124,249,135,46,267,279,296,271,134,141]","arrowright","","true","0","15","45","300","[""0058_N0300_K0045_NOCLIQUE"",""0096_N0300_K0045_CLIQUE""]"
"","","","","","audio-keyboard-response","90","584869","0.0-63.0-0.0-1.0","","null","audio_feedback/right/coin01.mp3","null","","","","","0","15","45","300","[""0058_N0300_K0045_NOCLIQUE"",""0096_N0300_K0045_CLIQUE""]"
"","","","","","canvas-keyboard-response","91","587346","0.0-64.0-0.0-0.0","","2404","","arrowright","[81,74,244,167,190,272,117,15,147,185,283,150,23,105,165,51,229,254,183,263,288,289,53,186,17,199,230,152,133,158,238,174,42,170,286,225,290,62,251,10,34,240,50,48,56,168,5,266,21,250,20,124,19,131,234,111,232,213,25,90,276,83,39,187,248,68,43,72,137,156,102,94,197,120,164,134,223,141,146,119,268,61,60,180,118,26,291,287,182,79,110,188,12,52,104,271,260,3,177,285,99,252,40,1,65,130,259,192,206,299,179,49,35,144,221,80,67,202,29,219,212,198,71,8,14,31,226,45,161,258,184,154,84,148,73,189,217,126,298,242,277,281,233,292,70,275,63,200,44,121,237,201,236,47,95,136,204,107,98,207,243,278,191,30,11,86,295,173,4,227,92,208,91,269,209,194,128,220,75,171,224,284,0,16,38,103,89,76,33,257,145,97,172,205,235,82,142,122,228,195,267,96,87,139,66,255,280,132,123,293,193,181,279,115,32,18,54,153,296,157,106,214,249,112,169,160,55,2,274,215,246,116,294,78,175,13,127,143,241,218,166,262,27,108,178,231,140,216,256,270,264,37,282,24,138,135,149,239,113,7,69,210,125,109,159,211,85,9,265,162,6,36,64,41,129,57,163,28,261,222,93,203,151,46,176,58,88,77,155,59,100,253,297,245,101,273,22,196,114,247]","arrowright","","true","0","16","40","300","[""0084_N0300_K0040_NOCLIQUE"",""0030_N0300_K0040_CLIQUE""]"
"","","","","","audio-keyboard-response","92","587770","0.0-64.0-0.0-1.0","","null","audio_feedback/right/coin01.mp3","null","","","","","0","16","40","300","[""0084_N0300_K0040_NOCLIQUE"",""0030_N0300_K0040_CLIQUE""]"
"","","","","","canvas-keyboard-response","93","589190","0.0-65.0-0.0-0.0","","1351",""," ","[176,21,266,225,106,47,261,223,197,126,1,228,151,20,143,284,220,114,12,91,243,66,226,161,157,90,184,178,54,113,295,214,241,185,231,5,111,210,105,148,15,152,96,92,141,63,134,149,175,254,247,52,116,285,33,217,246,263,109,23,222,93,235,59,191,61,14,27,167,245,196,257,265,212,279,174,267,201,158,85,253,67,2,211,131,127,198,170,137,215,7,260,6,238,94,35,292,82,240,13,123,118,193,129,251,139,224,40,183,32,18,206,298,232,107,132,242,41,83,202,162,48,19,46,195,200,119,236,130,43,49,282,168,164,51,62,244,173,103,181,218,154,258,102,17,29,250,58,79,277,3,44,180,205,248,207,259,233,122,286,121,179,77,169,255,252,294,290,34,216,204,182,140,99,276,293,68,135,36,268,147,229,60,24,275,239,213,187,153,203,136,97,50,289,64,271,71,278,150,89,39,144,110,221,76,262,11,287,16,171,273,146,87,194,98,128,101,274,160,296,142,38,177,9,45,227,30,249,0,80,272,237,81,145,22,189,159,37,283,281,73,188,88,4,138,108,31,112,155,115,72,100,53,165,117,163,84,69,199,75,74,288,256,156,125,133,219,124,56,270,104,190,291,172,86,186,269,209,95,42,280,8,230,25,264,297,192,57,78,26,234,55,70,28,208,65,299,10,120,166]","arrowleft","","","0","17","40","300","[""0063_N0300_K0040_CLIQUE"",""0070_N0300_K0040_NOCLIQUE""]"
"","","","","","audio-keyboard-response","94","589769","0.0-65.0-0.0-1.0","","null","audio_feedback/shuffles/shuffle01.mp3","null","","","","","0","17","40","300","[""0063_N0300_K0040_CLIQUE"",""0070_N0300_K0040_NOCLIQUE""]"
"","","","","","canvas-keyboard-response","95","591293","0.0-65.1-0.1-0.1","","1457","","arrowright","[207,190,22,184,280,57,238,37,211,229,105,2,123,65,41,203,52,27,209,243,16,175,136,164,281,49,140,166,79,97,55,98,191,215,84,39,276,217,269,234,119,106,135,114,250,286,187,267,88,99,70,74,69,201,257,28,80,81,262,101,170,91,35,299,283,254,287,85,173,195,265,205,89,208,0,90,73,7,186,163,268,44,139,96,141,24,200,4,249,100,19,151,289,3,62,30,242,157,104,13,295,252,53,51,133,259,206,224,261,161,241,77,180,68,245,225,94,285,172,179,221,5,63,145,248,48,258,159,297,288,137,171,291,130,165,204,246,10,121,92,64,272,162,21,40,95,11,147,218,253,76,56,275,31,168,87,127,59,116,83,240,181,17,146,210,277,54,226,67,266,158,18,193,109,189,293,235,66,102,152,232,231,36,290,237,223,160,82,113,93,183,134,256,178,260,142,120,32,111,202,50,236,72,227,185,177,298,138,239,6,117,43,107,156,150,263,155,132,1,129,45,169,247,47,128,38,233,197,244,61,192,126,14,115,284,58,71,216,110,144,122,42,29,214,60,264,230,167,154,255,103,282,153,278,108,148,9,271,292,182,34,222,220,25,274,15,125,78,279,12,212,273,75,198,46,143,124,213,251,176,131,86,26,23,219,112,199,270,20,196,33,118,194,188,296,294,174,8,149,228]","arrowleft","","false","0","17","40","300","[""0063_N0300_K0040_CLIQUE"",""0070_N0300_K0040_NOCLIQUE""]"
"","","","","","audio-keyboard-response","96","591910","0.0-65.1-0.1-1.1","","null","audio_feedback/wrong/error01.mp3","null","","","","","0","17","40","300","[""0063_N0300_K0040_CLIQUE"",""0070_N0300_K0040_NOCLIQUE""]"
"","","","","","canvas-keyboard-response","97","593854","0.0-66.0-0.0-0.0","","1888",""," ","[262,249,101,162,102,57,192,267,236,132,41,291,28,282,206,233,196,203,38,111,293,109,0,283,215,29,210,297,20,10,67,136,224,248,290,39,277,217,50,89,184,239,154,188,49,81,204,53,66,62,165,164,78,46,228,56,245,63,24,157,168,59,299,167,260,30,27,97,54,3,119,201,175,21,181,7,1,133,195,191,43,292,47,295,13,205,251,79,113,94,221,156,298,12,98,169,158,114,125,268,242,60,243,178,250,22,88,126,100,186,122,31,207,131,198,124,25,190,16,177,130,182,174,26,218,140,35,189,150,34,147,273,76,123,240,172,173,92,143,75,84,255,256,226,220,214,17,247,271,222,145,200,287,19,120,193,286,8,159,279,179,144,86,263,294,296,244,211,246,163,208,128,5,73,137,264,4,82,227,216,71,68,232,129,229,9,106,278,108,275,257,58,45,142,237,254,80,259,32,44,40,149,151,37,289,213,160,148,225,6,269,61,116,107,219,266,241,65,199,18,238,51,166,176,134,72,42,91,85,141,285,48,161,261,95,153,93,117,90,52,209,185,252,15,274,281,183,288,197,230,110,258,280,121,146,96,77,138,223,202,105,83,139,127,212,171,103,231,152,187,118,253,155,272,170,104,33,135,115,265,194,234,235,11,36,64,69,14,74,87,23,270,112,70,284,2,99,180,55,276]","arrowleft","","","0","18","35","300","[""0084_N0300_K0035_CLIQUE"",""0086_N0300_K0035_NOCLIQUE""]"
"","","","","","audio-keyboard-response","98","594430","0.0-66.0-0.0-1.0","","null","audio_feedback/shuffles/shuffle01.mp3","null","","","","","0","18","35","300","[""0084_N0300_K0035_CLIQUE"",""0086_N0300_K0035_NOCLIQUE""]"
"","","","","","canvas-keyboard-response","99","595152","0.0-66.1-0.1-0.1","","663","","arrowright","[244,167,223,33,69,12,283,287,196,299,202,245,103,230,276,55,277,91,42,190,261,292,181,59,210,123,203,140,278,30,211,270,148,100,236,152,158,88,186,80,249,271,246,260,38,280,185,298,231,145,134,142,106,53,70,273,104,198,14,112,226,285,155,209,224,279,218,183,262,84,187,192,195,222,241,168,227,109,60,110,178,215,240,237,284,179,72,259,175,65,96,126,193,127,235,56,15,136,275,95,138,41,94,291,169,131,8,122,289,0,206,268,120,150,9,13,253,188,238,201,265,92,221,191,16,171,86,173,153,34,133,272,184,256,207,257,78,232,62,66,3,154,89,18,58,288,26,75,121,248,118,255,228,141,73,63,23,177,252,43,82,22,164,11,242,71,162,114,5,36,32,160,113,174,119,189,212,27,157,149,132,124,208,219,21,151,229,176,163,17,258,180,156,7,2,4,108,143,200,266,139,6,247,172,37,45,225,217,101,128,10,135,286,144,116,87,290,170,52,97,274,40,25,182,79,105,67,46,130,282,76,54,117,24,129,251,269,125,147,264,281,111,194,263,1,239,29,115,77,102,146,49,297,161,214,48,197,205,35,267,294,85,137,83,28,159,165,99,57,31,204,64,220,233,90,19,81,213,296,295,51,216,199,20,293,39,47,243,74,68,107,44,61,98,234,166,93,50,250,254]","arrowleft","","false","0","18","35","300","[""0084_N0300_K0035_CLIQUE"",""0086_N0300_K0035_NOCLIQUE""]"
"","","","","","audio-keyboard-response","100","595750","0.0-66.1-0.1-1.1","","null","audio_feedback/wrong/error01.mp3","null","","","","","0","18","35","300","[""0084_N0300_K0035_CLIQUE"",""0086_N0300_K0035_NOCLIQUE""]"
"","","","","","canvas-keyboard-response","101","597659","0.0-67.0-0.0-0.0","","1840","","arrowright","[251,128,135,186,210,263,82,57,208,86,236,26,110,276,197,254,97,206,285,296,223,19,84,207,292,23,106,255,37,121,46,16,136,265,115,119,116,172,241,244,171,9,87,297,120,101,289,64,155,179,209,233,22,163,169,55,253,189,98,229,25,217,205,180,256,117,139,31,222,96,151,239,130,162,161,2,52,262,252,79,213,274,125,290,214,113,71,277,69,13,114,138,45,145,166,291,104,123,147,249,51,257,237,279,21,232,250,247,235,280,294,202,198,153,228,66,150,81,194,15,3,295,211,286,62,272,132,92,176,61,6,185,288,17,129,246,298,293,29,178,10,38,224,282,219,264,220,83,225,63,196,287,54,177,60,90,174,144,5,168,266,108,137,4,167,184,56,44,278,242,50,154,67,156,32,105,0,93,68,148,34,284,72,243,218,95,7,88,173,267,126,28,127,33,109,85,157,1,42,77,299,118,261,73,48,74,190,78,112,131,183,275,195,111,27,76,89,133,181,216,258,80,269,200,18,91,187,199,35,283,230,58,182,41,30,212,152,53,43,271,259,143,170,8,134,201,142,149,49,221,273,260,231,36,175,215,164,14,141,24,146,100,99,12,59,204,158,75,102,122,191,203,238,165,193,11,140,188,281,47,124,234,240,268,270,160,103,107,226,248,39,40,94,227,159,20,245,65,192,70]","arrowleft","","false","0","19","35","300","[""0070_N0300_K0035_CLIQUE"",""0049_N0300_K0035_NOCLIQUE""]"
"","","","","","audio-keyboard-response","102","598250","0.0-67.0-0.0-1.0","","null","audio_feedback/wrong/error01.mp3","null","","","","","0","19","35","300","[""0070_N0300_K0035_CLIQUE"",""0049_N0300_K0035_NOCLIQUE""]"
"","","","","","canvas-keyboard-response","103","600053","0.0-68.0-0.0-0.0","","1739","","arrowright","[161,112,235,287,253,272,298,25,6,1,130,4,210,246,144,167,27,162,160,239,288,18,113,180,132,2,102,291,95,100,213,49,243,53,92,168,148,157,13,145,174,176,185,274,154,188,224,268,146,41,94,179,108,204,203,266,127,133,65,91,57,22,260,201,173,183,42,134,290,221,237,88,284,72,163,135,84,229,225,277,58,270,74,48,54,241,198,202,214,251,63,191,110,109,47,190,263,189,55,158,123,153,281,240,215,24,250,87,14,294,31,136,286,282,151,261,258,93,276,5,182,30,39,75,82,199,208,114,150,80,165,59,216,28,172,79,19,46,255,152,232,60,184,107,43,126,247,21,267,35,105,8,32,37,143,292,299,279,192,69,166,178,131,206,96,118,117,40,70,269,149,147,209,119,122,67,66,121,111,177,249,265,68,207,139,3,50,264,140,245,219,56,11,283,262,257,115,17,83,76,218,164,259,101,275,273,252,296,155,90,205,52,97,217,62,233,120,29,141,77,220,234,231,26,99,81,200,280,15,226,89,186,61,51,271,156,138,116,103,238,194,230,12,197,169,36,248,175,295,211,222,236,16,44,104,106,159,187,38,228,293,7,85,193,297,137,278,242,125,73,195,128,212,86,0,20,244,129,289,285,33,256,23,98,71,124,9,181,64,227,34,170,196,223,254,45,78,171,10,142]","arrowright","","true","0","20","30","300","[""0067_N0300_K0030_NOCLIQUE"",""0074_N0300_K0030_CLIQUE""]"
"","","","","","audio-keyboard-response","104","600469","0.0-68.0-0.0-1.0","","null","audio_feedback/right/coin01.mp3","null","","","","","0","20","30","300","[""0067_N0300_K0030_NOCLIQUE"",""0074_N0300_K0030_CLIQUE""]"
"","","","","","canvas-keyboard-response","105","602769","0.0-69.0-0.0-0.0","","2234","","arrowleft","[198,205,235,4,298,184,196,77,237,95,46,56,165,262,16,61,254,127,90,163,200,283,17,224,273,73,39,260,219,65,167,105,41,29,285,164,55,188,177,32,182,60,141,201,64,153,136,218,274,295,87,134,287,97,146,297,257,263,190,30,217,71,240,44,12,234,168,266,154,149,145,150,15,2,169,186,179,252,239,101,278,80,264,244,85,104,181,21,253,78,173,132,9,251,288,159,67,43,194,289,248,139,293,185,147,100,246,48,84,261,24,102,133,89,233,126,93,20,6,282,286,138,117,140,5,277,172,203,296,37,183,144,70,135,69,155,116,68,121,222,249,143,269,31,216,52,271,213,220,25,215,162,202,57,75,38,96,1,34,221,19,42,156,35,108,3,232,83,53,258,106,47,229,28,129,189,236,170,45,243,259,128,191,267,268,174,197,255,157,276,166,226,103,58,187,227,214,272,8,10,279,245,22,292,199,192,247,91,23,206,13,137,195,99,152,225,210,86,241,212,291,175,59,63,256,66,51,130,231,79,178,193,120,111,98,180,124,280,118,131,208,54,204,281,161,294,62,94,112,88,7,92,238,50,0,119,74,11,160,228,14,33,26,81,275,18,151,230,76,115,125,148,109,123,122,284,36,27,142,49,107,223,299,290,242,110,176,40,265,113,270,250,171,211,72,209,114,82,158,207]","arrowright","","false","0","21","30","300","[""0049_N0300_K0030_NOCLIQUE"",""0094_N0300_K0030_CLIQUE""]"
"","","","","","audio-keyboard-response","106","603370","0.0-69.0-0.0-1.0","","null","audio_feedback/wrong/error01.mp3","null","","","","","0","21","30","300","[""0049_N0300_K0030_NOCLIQUE"",""0094_N0300_K0030_CLIQUE""]"
"","","","","","canvas-keyboard-response","107","605683","0.0-70.0-0.0-0.0","","2247","","arrowright","[145,56,71,53,3,6,165,276,61,210,38,160,222,9,154,92,196,50,81,39,299,251,139,244,90,158,250,1,278,229,27,73,2,54,294,114,20,93,187,219,127,113,186,167,152,125,218,199,144,132,223,135,105,4,79,124,59,31,164,63,47,168,75,98,180,129,103,242,217,194,182,49,150,264,282,88,101,269,156,203,231,216,248,74,60,126,273,112,297,172,192,159,32,221,143,89,215,204,162,253,295,179,153,10,17,19,106,255,166,138,0,13,260,15,91,85,206,214,224,161,240,292,252,110,151,25,68,97,58,239,298,188,157,11,257,230,281,41,207,233,102,65,177,136,30,170,111,117,77,18,122,288,123,256,191,220,141,236,268,155,261,21,96,82,24,197,128,55,29,173,67,64,7,120,149,243,296,277,94,48,171,245,108,22,86,146,142,181,99,34,285,226,249,76,185,200,174,258,5,33,72,290,87,205,270,238,42,212,116,8,169,232,287,107,52,115,130,35,291,193,293,84,280,178,189,131,57,118,69,202,228,28,195,70,176,148,78,16,83,225,62,40,209,190,211,247,234,80,262,45,121,134,266,23,246,26,95,43,140,213,271,265,137,163,183,14,37,289,286,283,147,235,241,51,274,267,104,133,208,44,119,201,263,46,284,254,227,272,66,184,237,175,198,259,275,279,109,12,36,100]","arrowleft","","false","0","22","25","300","[""0097_N0300_K0025_CLIQUE"",""0082_N0300_K0025_NOCLIQUE""]"
"","","","","","audio-keyboard-response","108","606269","0.0-70.0-0.0-1.0","","null","audio_feedback/wrong/error01.mp3","null","","","","","0","22","25","300","[""0097_N0300_K0025_CLIQUE"",""0082_N0300_K0025_NOCLIQUE""]"
"","","","","","canvas-keyboard-response","109","607391","0.0-71.0-0.0-0.0","","1059","","arrowright","[14,54,135,88,61,203,221,215,16,267,74,102,194,222,161,58,55,71,238,26,210,264,286,72,211,292,193,192,114,166,115,73,257,274,51,79,66,84,173,247,0,236,152,63,256,287,111,106,168,47,294,104,278,273,230,182,176,18,139,147,93,250,295,2,164,252,103,243,269,44,146,233,208,234,158,253,226,31,19,144,6,1,36,272,133,261,37,91,181,191,213,231,289,265,212,251,174,197,155,53,232,131,98,149,65,127,259,172,94,240,170,68,237,196,52,20,189,142,41,9,100,50,258,119,64,145,150,207,29,35,70,281,153,228,143,280,260,129,86,108,185,23,69,218,136,138,199,160,190,284,254,297,42,224,216,277,128,33,296,80,186,163,140,8,101,235,15,255,229,271,175,198,4,112,56,205,169,227,159,241,156,49,183,279,48,141,110,59,11,239,7,225,17,12,105,30,67,201,157,204,120,276,45,151,200,113,76,90,24,60,214,187,262,123,244,21,249,137,293,167,28,126,3,266,39,92,298,282,162,22,130,25,184,118,82,206,209,202,263,177,124,109,178,107,219,77,122,220,62,171,34,78,290,285,242,10,180,87,57,99,83,270,5,134,195,248,43,116,275,13,148,217,246,179,291,188,75,154,95,288,117,165,89,85,32,223,46,283,27,268,299,121,96,38,245,132,97,81,40,125]","arrowleft","","false","0","23","25","300","[""0024_N0300_K0025_CLIQUE"",""0020_N0300_K0025_NOCLIQUE""]"
"","","","","","audio-keyboard-response","110","607987","0.0-71.0-0.0-1.0","","null","audio_feedback/wrong/error01.mp3","null","","","","","0","23","25","300","[""0024_N0300_K0025_CLIQUE"",""0020_N0300_K0025_NOCLIQUE""]"
"","","","","","canvas-keyboard-response","111","610258","0.0-72.0-0.0-0.0","","2198",""," ","[161,1,5,82,41,297,90,226,136,222,29,44,243,140,15,133,151,168,34,224,50,138,37,176,150,106,149,118,84,260,58,62,283,99,76,171,143,247,79,200,227,75,114,24,209,220,54,18,35,181,190,282,275,236,278,163,285,169,45,177,147,155,264,281,47,19,239,93,40,185,159,249,157,158,17,245,26,233,25,238,43,290,53,221,218,14,123,109,296,38,142,156,254,284,248,174,130,13,166,32,3,48,49,262,103,127,287,170,36,137,131,112,152,22,252,63,101,257,39,259,228,255,214,289,210,124,213,292,72,235,194,263,2,295,198,21,273,89,182,66,31,95,207,100,153,102,97,225,52,135,173,81,134,237,128,70,92,258,20,279,280,240,205,61,162,246,189,298,121,105,192,68,87,110,269,120,108,195,144,148,7,51,73,179,69,86,59,139,164,253,288,98,293,10,85,266,122,56,57,60,111,167,217,96,211,178,244,212,242,299,175,46,216,223,291,193,74,271,187,294,88,250,145,183,219,9,129,28,202,126,30,230,71,11,201,274,119,104,146,23,241,64,154,172,184,67,80,267,199,141,107,91,229,251,125,165,180,197,206,208,204,77,115,277,261,191,256,231,83,265,16,160,215,8,276,33,203,196,27,132,94,270,78,188,116,42,6,55,65,186,12,268,4,232,234,0,272,117,113,286]","arrowright","","","0","24","20","300","[""0084_N0300_K0020_NOCLIQUE"",""0026_N0300_K0020_CLIQUE""]"
"","","","","","audio-keyboard-response","112","610829","0.0-72.0-0.0-1.0","","null","audio_feedback/shuffles/shuffle01.mp3","null","","","","","0","24","20","300","[""0084_N0300_K0020_NOCLIQUE"",""0026_N0300_K0020_CLIQUE""]"
"","","","","","canvas-keyboard-response","113","611978","0.0-72.1-0.1-0.1","","1087","","arrowleft","[33,281,157,175,29,94,239,198,69,26,213,23,182,125,166,38,5,103,241,46,159,230,76,206,185,236,288,1,144,183,250,107,130,245,54,216,109,169,249,299,81,193,148,106,143,52,6,84,242,77,71,74,298,17,263,139,172,174,264,275,105,200,20,78,141,42,32,96,167,154,290,209,179,177,117,189,123,3,98,289,153,120,287,220,180,70,61,204,40,272,178,24,274,132,27,75,50,208,14,197,161,19,56,226,110,235,246,119,113,60,91,295,171,116,18,122,49,59,294,261,62,181,68,196,55,296,63,158,83,223,165,86,10,34,203,268,97,283,285,191,202,187,232,73,66,135,168,248,195,267,207,41,102,142,35,256,201,47,121,58,39,212,176,114,229,67,254,87,258,194,164,16,12,100,210,260,99,90,30,269,51,252,251,43,104,151,199,133,108,7,243,79,149,85,257,160,238,282,8,219,89,190,228,265,95,147,64,188,127,217,28,152,129,284,271,278,44,65,118,286,72,277,45,126,280,237,128,13,112,184,0,292,80,262,31,82,253,88,155,15,240,111,2,173,255,145,163,162,140,205,138,170,134,131,146,211,9,22,297,124,225,192,156,273,244,247,276,101,266,215,270,233,136,11,214,293,92,37,259,222,21,48,186,57,221,234,224,25,93,231,218,137,53,115,36,227,4,291,279,150]","arrowright","","false","0","24","20","300","[""0084_N0300_K0020_NOCLIQUE"",""0026_N0300_K0020_CLIQUE""]"
"","","","","","audio-keyboard-response","114","612568","0.0-72.1-0.1-1.1","","null","audio_feedback/wrong/error01.mp3","null","","","","","0","24","20","300","[""0084_N0300_K0020_NOCLIQUE"",""0026_N0300_K0020_CLIQUE""]"
"","","","","","canvas-keyboard-response","115","614117","0.0-73.0-0.0-0.0","","1485","","arrowright","[66,262,87,42,93,85,157,70,121,124,299,21,292,245,274,275,84,45,281,0,283,287,92,145,278,27,253,198,280,237,114,39,184,265,4,236,48,57,2,161,56,226,227,133,210,196,102,94,251,192,193,100,99,191,64,152,62,246,162,25,263,256,54,149,41,29,112,144,181,180,129,1,233,160,60,213,135,80,18,171,297,136,110,155,96,203,138,219,33,268,104,244,40,95,3,177,77,158,255,143,69,183,205,30,220,16,134,218,53,122,249,12,178,51,195,81,225,86,67,75,117,105,223,23,276,58,264,7,235,101,175,279,10,154,174,176,211,15,206,294,55,88,49,139,199,277,267,98,166,151,76,163,17,150,293,242,286,156,59,170,72,109,113,257,22,132,128,106,202,169,44,126,20,83,232,120,116,6,282,252,13,50,38,266,8,214,269,289,31,207,254,230,296,238,127,172,24,179,153,208,234,35,107,239,187,97,73,5,185,194,79,247,118,229,36,123,250,221,204,90,272,108,188,119,47,270,167,111,168,46,19,240,189,260,291,11,200,288,26,131,159,78,14,222,65,140,241,61,125,52,273,164,173,89,258,71,248,43,103,182,261,142,197,28,284,147,285,148,9,186,216,224,217,295,228,34,209,146,74,190,63,215,298,212,37,290,68,231,32,115,243,271,91,259,137,201,141,130,82,165]","arrowleft","","false","0","25","20","300","[""0057_N0300_K0020_CLIQUE"",""0005_N0300_K0020_NOCLIQUE""]"
"","","","","","audio-keyboard-response","116","614708","0.0-73.0-0.0-1.0","","null","audio_feedback/wrong/error01.mp3","null","","","","","0","25","20","300","[""0057_N0300_K0020_CLIQUE"",""0005_N0300_K0020_NOCLIQUE""]"
"","","","","","canvas-keyboard-response","117","617040","0.0-74.0-0.0-0.0","","2270","","arrowright","[296,50,82,119,22,133,199,259,193,91,188,222,92,170,219,289,230,70,160,23,0,138,288,227,169,62,242,139,99,122,244,118,234,45,6,262,163,17,279,192,61,46,253,226,43,104,294,102,2,186,211,266,271,205,263,137,54,100,223,189,280,96,105,164,272,182,18,74,16,220,140,285,123,11,135,171,81,120,151,38,94,77,265,143,185,174,183,141,103,178,14,157,129,28,245,177,274,264,287,168,146,71,126,252,111,9,299,256,243,10,298,5,165,248,7,49,136,231,48,260,241,153,117,52,180,32,4,261,145,89,34,235,147,159,286,236,150,35,246,203,197,33,44,161,291,198,8,112,29,167,78,57,107,173,277,95,116,250,148,59,69,131,36,67,24,55,21,15,210,276,257,181,209,179,83,127,225,228,206,109,156,12,247,25,258,158,65,224,41,166,39,68,202,87,97,31,37,88,295,195,162,207,233,254,232,90,214,66,114,110,26,255,134,239,212,218,53,121,113,56,63,176,229,76,217,132,75,80,191,128,237,84,47,221,213,19,269,51,124,284,194,283,175,144,273,240,275,64,125,208,292,106,85,184,155,196,27,290,108,101,215,98,172,251,297,60,281,270,115,190,201,58,1,282,216,249,42,154,20,3,130,72,204,93,278,40,13,73,238,293,187,152,149,268,86,79,267,142,200,30]","arrowright","","true","0","26","15","300","[""0018_N0300_K0015_NOCLIQUE"",""0021_N0300_K0015_CLIQUE""]"
"","","","","","audio-keyboard-response","118","617446","0.0-74.0-0.0-1.0","","null","audio_feedback/right/coin01.mp3","null","","","","","0","26","15","300","[""0018_N0300_K0015_NOCLIQUE"",""0021_N0300_K0015_CLIQUE""]"
"","","","","","canvas-keyboard-response","119","621132","0.0-75.0-0.0-0.0","","3626",""," ","[226,240,82,268,193,172,230,213,98,105,170,209,157,210,127,290,233,50,117,200,46,174,78,62,260,142,15,296,123,211,24,137,90,207,261,138,143,13,65,35,57,120,227,20,4,70,81,229,245,257,237,247,140,21,115,87,178,159,8,288,186,101,244,79,41,23,75,292,17,205,39,224,136,149,122,53,204,248,221,7,135,18,124,298,168,107,12,231,1,6,121,160,270,152,106,119,163,91,96,2,89,128,223,198,166,110,56,66,267,278,84,83,33,262,176,162,232,259,208,264,225,242,60,146,114,3,112,269,154,171,251,151,19,16,228,100,97,111,289,158,266,195,86,202,73,102,108,109,197,182,34,37,203,113,45,253,273,55,212,153,196,188,218,126,250,256,215,175,277,185,275,30,104,194,10,265,169,294,88,47,95,214,271,165,249,179,77,258,38,144,222,92,49,9,291,132,51,236,255,36,243,99,187,42,150,25,246,80,141,130,74,192,131,85,252,48,125,220,63,148,199,161,293,299,26,276,235,72,44,22,201,272,239,173,103,118,164,219,64,14,283,297,147,280,61,29,181,134,31,5,68,0,279,217,241,254,71,190,287,133,76,295,129,189,177,11,116,234,67,59,281,27,282,156,180,43,286,94,274,285,155,216,139,145,32,40,28,184,52,58,93,206,238,54,284,183,263,69,191,167]","arrowleft","","","0","27","15","300","[""0058_N0300_K0015_CLIQUE"",""0019_N0300_K0015_NOCLIQUE""]"
"","","","","","audio-keyboard-response","120","621707","0.0-75.0-0.0-1.0","","null","audio_feedback/shuffles/shuffle01.mp3","null","","","","","0","27","15","300","[""0058_N0300_K0015_CLIQUE"",""0019_N0300_K0015_NOCLIQUE""]"
"","","","","","canvas-keyboard-response","121","622789","0.0-75.1-0.1-0.1","","1021",""," ","[41,290,26,114,17,118,69,298,23,221,253,157,262,269,29,222,76,233,292,38,156,272,27,96,32,150,170,263,184,190,175,113,241,129,134,239,195,79,61,295,205,289,117,127,132,43,288,275,123,171,278,70,35,218,95,246,111,103,293,89,143,203,149,155,165,194,199,55,115,85,11,255,219,137,57,141,128,164,4,9,112,31,71,24,216,212,229,268,7,39,19,144,179,0,174,16,261,120,2,297,158,65,110,56,296,248,44,266,3,34,200,217,201,122,244,77,232,273,105,183,45,283,74,256,131,47,187,160,169,209,147,197,185,48,106,181,21,12,208,215,166,8,94,227,182,294,230,243,249,191,13,189,102,14,37,80,281,198,242,83,78,108,265,126,259,20,28,107,231,42,125,67,274,271,73,176,68,204,277,258,133,240,237,81,135,139,226,60,98,251,225,97,88,257,161,202,124,140,260,254,228,63,206,264,247,299,235,54,245,119,223,101,92,236,280,167,148,142,291,252,196,186,109,1,151,86,154,116,286,220,99,33,285,168,193,213,270,136,84,211,30,87,276,138,10,75,53,100,66,238,15,36,58,192,250,267,82,159,163,188,177,130,91,234,207,22,51,121,49,72,25,146,287,62,50,152,210,90,173,279,145,282,224,6,153,52,104,180,93,46,5,162,64,172,178,18,40,59,284,214]","arrowleft","","","0","27","15","300","[""0058_N0300_K0015_CLIQUE"",""0019_N0300_K0015_NOCLIQUE""]"
"","","","","","audio-keyboard-response","122","623368","0.0-75.1-0.1-1.1","","null","audio_feedback/shuffles/shuffle01.mp3","null","","","","","0","27","15","300","[""0058_N0300_K0015_CLIQUE"",""0019_N0300_K0015_NOCLIQUE""]"
"","","","","","canvas-keyboard-response","123","624199","0.0-75.2-0.2-0.2","","772","","arrowright","[84,277,236,180,127,150,141,161,94,37,266,121,217,10,245,229,258,109,247,291,200,116,63,294,114,274,68,17,192,75,295,85,44,99,125,110,126,253,119,190,108,122,172,299,46,210,211,166,56,156,187,256,35,153,27,250,238,3,89,216,90,74,67,66,16,281,130,177,282,77,7,249,193,276,218,155,13,204,92,129,80,165,72,23,60,93,289,188,88,271,87,102,91,9,0,29,11,120,191,53,76,240,50,104,285,213,265,4,246,54,142,144,135,170,195,8,234,43,272,19,269,83,48,41,151,128,257,244,134,140,183,270,263,212,70,71,31,178,113,32,207,189,52,197,14,145,55,290,58,254,149,293,280,251,206,143,298,137,38,205,173,292,25,171,26,78,42,112,221,219,243,185,148,39,237,111,174,118,186,65,184,79,239,286,47,64,132,201,154,131,267,22,98,28,95,209,81,278,273,223,5,260,103,139,297,1,179,159,228,275,20,220,232,163,208,152,231,296,96,100,158,138,147,162,15,117,182,215,49,194,12,160,268,227,261,157,233,105,196,164,279,252,224,169,235,6,136,284,51,203,199,18,73,176,106,262,69,202,264,222,57,133,248,24,36,242,97,33,146,40,34,2,101,115,226,30,181,86,62,288,255,198,214,21,45,123,259,230,82,175,168,283,241,287,124,107,167,225,59,61]","arrowleft","","false","0","27","15","300","[""0058_N0300_K0015_CLIQUE"",""0019_N0300_K0015_NOCLIQUE""]"
"","","","","","audio-keyboard-response","124","624787","0.0-75.2-0.2-1.2","","null","audio_feedback/wrong/error01.mp3","null","","","","","0","27","15","300","[""0058_N0300_K0015_CLIQUE"",""0019_N0300_K0015_NOCLIQUE""]"
"","","","","","canvas-keyboard-response","125","625709","0.0-76.0-0.0-0.0","","860",""," ","[62,45,257,250,256,49,247,198,164,280,42,273,186,20,120,61,245,242,293,156,50,11,55,241,153,151,113,112,101,214,66,130,90,166,182,188,145,168,111,197,64,297,76,174,13,44,215,222,289,118,78,181,140,208,85,136,26,202,217,95,100,282,229,16,105,271,296,1,205,207,121,203,194,267,185,209,0,216,129,89,155,106,220,99,8,139,219,279,154,57,246,65,51,206,27,193,163,21,225,58,272,268,37,15,281,29,119,18,213,74,172,276,298,149,134,4,73,54,3,133,33,253,212,2,183,286,148,152,244,274,262,5,138,92,9,132,144,123,115,204,96,137,234,269,292,226,200,28,59,227,71,211,228,240,290,97,128,252,47,93,131,196,167,199,173,260,48,7,251,284,264,117,19,114,56,108,63,43,53,36,41,81,275,77,176,158,31,283,103,249,38,236,243,171,135,263,84,104,60,294,69,157,291,17,80,177,184,270,170,23,98,32,191,39,233,285,126,278,287,223,68,142,52,224,258,70,295,238,288,94,231,150,195,146,125,161,12,75,187,192,169,30,83,218,239,210,237,40,22,175,102,79,299,165,122,109,259,72,24,265,162,160,10,127,88,110,221,141,232,25,255,107,189,277,82,124,235,6,86,254,178,201,230,190,87,143,67,261,248,34,116,91,14,180,159,46,35,179,147,266]","arrowright","","","0","28","10","300","[""0099_N0300_K0010_NOCLIQUE"",""0079_N0300_K0010_CLIQUE""]"
"","","","","","audio-keyboard-response","126","626289","0.0-76.0-0.0-1.0","","null","audio_feedback/shuffles/shuffle01.mp3","null","","","","","0","28","10","300","[""0099_N0300_K0010_NOCLIQUE"",""0079_N0300_K0010_CLIQUE""]"
"","","","","","canvas-keyboard-response","127","627188","0.0-76.1-0.1-0.1","","825","","arrowleft","[117,290,137,83,72,127,274,213,258,281,116,140,273,177,112,276,123,60,54,86,286,214,222,5,3,299,41,29,205,256,8,277,150,95,50,282,167,110,25,48,262,84,200,87,155,181,272,295,152,236,113,216,176,283,169,128,35,68,203,43,120,89,170,189,37,287,63,136,28,265,192,296,104,239,157,178,280,163,244,233,15,61,14,1,215,32,12,73,93,223,201,289,288,166,102,101,238,27,82,9,231,105,77,142,122,132,230,204,298,69,135,261,162,271,224,11,232,131,207,220,193,225,159,252,24,158,173,285,96,149,80,44,240,284,4,198,245,64,291,267,111,144,30,125,172,211,270,39,106,217,250,130,209,148,0,154,219,38,187,20,45,139,141,19,241,85,275,145,153,234,98,133,184,254,161,59,292,195,206,6,156,196,255,56,188,253,129,90,57,165,100,242,251,51,91,186,67,147,46,259,42,268,22,174,247,36,146,143,226,257,185,49,164,221,227,55,279,108,294,74,229,249,65,13,21,62,263,208,124,260,190,197,114,175,191,212,182,180,202,66,92,34,266,81,248,237,18,228,243,47,107,26,138,199,97,246,109,121,94,78,293,194,119,297,33,70,76,7,31,23,88,160,75,71,151,278,269,52,79,126,58,99,17,118,2,40,10,168,103,264,218,16,210,115,171,183,179,134,53,235]","arrowright","","false","0","28","10","300","[""0099_N0300_K0010_NOCLIQUE"",""0079_N0300_K0010_CLIQUE""]"
"","","","","","audio-keyboard-response","128","627788","0.0-76.1-0.1-1.1","","null","audio_feedback/wrong/error01.mp3","null","","","","","0","28","10","300","[""0099_N0300_K0010_NOCLIQUE"",""0079_N0300_K0010_CLIQUE""]"
"","","","","","canvas-keyboard-response","129","629980","0.0-77.0-0.0-0.0","","2123",""," ","[273,48,234,92,12,226,20,153,272,175,249,229,288,19,86,17,78,176,58,274,79,82,125,25,178,61,97,134,158,13,129,219,251,87,51,217,256,164,115,7,240,203,161,193,31,211,141,220,262,270,281,119,205,279,231,185,23,204,192,110,85,112,93,14,214,253,105,18,24,165,149,6,197,266,152,172,224,294,239,280,131,189,257,244,245,77,64,246,236,293,120,108,38,45,215,60,114,147,15,101,117,291,269,41,75,201,133,230,22,283,34,36,296,242,267,68,100,170,43,144,216,91,95,285,135,202,16,159,73,174,195,157,0,81,183,106,194,71,248,53,188,111,218,292,143,160,104,123,260,1,26,168,29,190,268,264,207,258,56,206,181,52,98,142,63,298,213,46,282,118,69,27,107,259,50,177,102,59,140,278,237,9,2,33,286,265,228,136,62,295,297,96,47,113,271,163,4,150,241,124,227,127,66,223,212,8,162,156,42,261,235,57,254,121,277,80,289,191,99,208,109,252,173,263,225,137,76,154,35,238,167,122,3,233,90,243,275,200,54,146,49,180,88,250,198,44,148,255,28,186,179,103,74,169,284,232,11,72,65,37,70,184,287,32,116,126,155,83,221,130,30,21,209,276,299,166,128,171,151,84,199,145,247,222,196,210,55,67,94,89,187,139,182,5,40,10,290,132,138,39]","arrowleft","","","0","29","10","300","[""0089_N0300_K0010_CLIQUE"",""0004_N0300_K0010_NOCLIQUE""]"
"","","","","","audio-keyboard-response","130","630549","0.0-77.0-0.0-1.0","","null","audio_feedback/shuffles/shuffle01.mp3","null","","","","","0","29","10","300","[""0089_N0300_K0010_CLIQUE"",""0004_N0300_K0010_NOCLIQUE""]"
"","","","","","canvas-keyboard-response","131","631586","0.0-77.1-0.1-0.1","","971",""," ","[29,87,241,210,5,52,260,93,96,14,98,128,296,36,110,265,287,106,6,161,123,11,198,1,76,3,299,294,2,114,59,245,92,164,182,91,148,116,132,18,249,73,39,289,43,143,207,219,252,262,179,156,117,113,240,160,239,49,274,94,149,225,197,23,99,44,88,118,175,35,237,53,195,184,4,248,129,191,150,263,85,134,33,69,221,217,292,89,170,84,298,70,271,147,108,278,32,187,254,82,277,267,214,201,174,232,203,10,180,125,20,270,12,268,227,34,183,27,223,50,295,220,61,185,233,194,17,105,48,25,188,37,139,119,172,122,190,177,0,158,222,279,229,136,146,126,155,231,238,100,71,243,130,276,120,166,173,224,38,57,64,255,192,235,151,28,127,230,216,141,137,246,264,293,138,111,159,212,115,7,178,19,273,168,218,90,253,124,236,67,205,266,81,200,77,259,199,13,189,101,112,153,171,272,21,204,104,291,186,68,269,107,165,47,26,247,226,181,83,176,102,145,55,193,202,80,206,250,284,9,234,275,162,215,256,228,45,211,58,40,31,242,65,46,261,290,79,258,131,251,24,244,283,140,209,297,157,154,282,257,208,142,109,95,30,144,286,51,16,167,78,63,56,103,169,280,60,75,86,54,152,135,72,66,41,74,281,285,133,15,196,22,288,213,163,121,97,62,8,42]","arrowleft","","","0","29","10","300","[""0089_N0300_K0010_CLIQUE"",""0004_N0300_K0010_NOCLIQUE""]"
"","","","","","audio-keyboard-response","132","632169","0.0-77.1-0.1-1.1","","null","audio_feedback/shuffles/shuffle01.mp3","null","","","","","0","29","10","300","[""0089_N0300_K0010_CLIQUE"",""0004_N0300_K0010_NOCLIQUE""]"
"","","","","","canvas-keyboard-response","133","633213","0.0-77.2-0.2-0.2","","982","","arrowright","[271,298,26,126,247,61,296,121,203,109,243,10,246,111,262,36,189,35,85,72,280,113,73,124,66,6,258,227,282,160,186,200,27,163,287,4,236,192,143,209,242,175,87,91,279,102,219,81,290,255,76,133,120,156,140,179,135,49,221,199,82,20,256,201,286,42,261,47,117,23,214,46,154,22,231,235,104,127,158,64,116,105,294,38,150,30,0,8,234,44,112,24,171,291,183,9,142,208,252,100,172,220,224,152,125,295,216,153,215,174,59,240,228,239,268,48,254,67,281,39,218,299,159,244,270,52,15,7,225,241,273,3,176,51,2,131,129,297,265,222,188,86,144,139,233,251,196,277,79,197,217,74,134,230,115,259,264,278,177,253,32,103,65,71,267,34,292,206,293,16,274,53,78,28,285,97,37,130,269,194,40,138,57,180,114,54,232,119,205,272,155,5,96,1,211,88,210,18,198,157,195,55,182,173,56,260,141,288,283,245,263,276,89,29,77,70,107,162,12,98,106,84,128,17,151,95,148,202,60,110,80,165,249,122,132,169,92,166,170,62,223,45,43,58,190,284,93,266,90,257,21,229,118,275,184,238,187,237,14,11,250,136,146,204,289,83,145,193,185,147,63,191,248,25,137,19,108,168,178,212,213,123,207,41,75,31,164,94,181,13,33,99,161,226,68,149,101,167,50,69]","arrowleft","","false","0","29","10","300","[""0089_N0300_K0010_CLIQUE"",""0004_N0300_K0010_NOCLIQUE""]"
"","","","","","audio-keyboard-response","134","633808","0.0-77.2-0.2-1.2","","null","audio_feedback/wrong/error01.mp3","null","","","","","0","29","10","300","[""0089_N0300_K0010_CLIQUE"",""0004_N0300_K0010_NOCLIQUE""]"
"","","","","","instructions","135","642529","0.0-78.0","[{""page_index"":0,""viewing_time"":8717}]","8718","","","","","","","","","","",""
"","","","","","canvas-keyboard-response","136","644681","0.0-79.0-0.0-0.0","","2090",""," ","[69,223,285,200,289,128,249,176,291,140,186,67,109,135,239,165,61,268,269,189,167,8,29,77,194,271,227,206,294,1,261,59,114,256,56,110,99,73,166,193,10,230,45,117,147,71,192,111,299,5,78,60,105,134,36,65,87,97,225,107,15,253,242,198,154,222,27,267,263,137,146,236,172,159,90,119,127,28,54,149,250,258,48,280,211,89,221,42,262,44,82,122,83,9,72,34,2,245,143,182,63,151,179,130,52,6,197,207,238,55,106,43,234,121,150,210,66,96,20,248,116,257,224,287,0,7,254,276,264,142,21,244,288,108,156,246,215,205,16,31,162,33,132,298,141,153,84,68,145,177,232,181,169,286,233,51,126,25,275,282,173,251,160,209,12,170,100,203,259,240,81,196,35,19,18,260,164,40,30,214,247,204,50,123,26,163,293,152,11,284,38,138,219,57,136,133,4,279,88,220,295,85,168,64,112,274,157,131,235,125,195,103,94,46,22,252,76,273,184,32,86,58,190,80,296,91,202,255,213,14,129,178,53,95,272,290,74,113,120,23,237,161,37,79,292,199,155,75,180,124,101,212,139,277,144,297,174,228,39,218,171,270,47,24,158,266,187,92,49,13,183,118,115,148,17,217,229,41,226,281,243,231,201,216,70,102,98,283,175,265,93,208,191,3,278,188,62,104,185,241]","arrowleft","","","1","0","90","300","[""0042_N0300_K0090_CLIQUE"",""0088_N0300_K0090_NOCLIQUE""]"
"","","","","","audio-keyboard-response","137","645231","0.0-79.0-0.0-1.0","","null","audio_feedback/shuffles/shuffle01.mp3","null","","","","","1","0","90","300","[""0042_N0300_K0090_CLIQUE"",""0088_N0300_K0090_NOCLIQUE""]"
"","","","","","canvas-keyboard-response","138","646306","0.0-79.1-0.1-0.1","","1012","","arrowright","[50,221,20,136,203,287,19,205,209,80,75,204,177,91,29,215,199,24,166,48,52,250,235,1,103,47,230,279,5,46,126,147,92,9,7,16,280,127,234,237,30,291,129,283,164,138,3,220,159,44,113,217,114,84,18,122,35,110,268,271,109,121,259,275,206,193,10,11,233,83,288,265,134,2,276,21,89,71,295,27,61,101,184,254,223,86,41,140,62,286,249,278,247,139,192,198,185,90,296,222,64,216,238,189,228,28,108,14,141,128,270,66,36,210,226,251,248,119,32,133,236,45,142,85,175,81,100,115,6,161,195,124,158,105,207,154,42,269,130,219,173,243,191,294,281,77,132,33,63,17,70,170,23,112,26,13,258,232,43,107,117,231,145,150,55,277,241,242,211,69,168,88,12,95,65,214,31,54,38,152,67,174,56,99,178,239,76,87,120,53,180,272,292,157,267,264,153,116,146,131,60,224,68,15,257,94,246,96,190,172,176,201,196,137,79,252,255,149,51,135,97,106,148,167,179,260,162,163,208,34,169,218,266,297,155,188,22,289,256,285,102,72,212,82,213,4,25,197,293,182,186,37,144,245,78,282,229,143,273,244,165,40,118,49,181,93,227,104,59,171,156,284,299,240,274,58,73,125,123,183,111,263,57,160,0,225,187,74,151,298,202,261,253,262,194,290,39,8,200,98]","arrowleft","","false","1","0","90","300","[""0042_N0300_K0090_CLIQUE"",""0088_N0300_K0090_NOCLIQUE""]"
"","","","","","audio-keyboard-response","139","646891","0.0-79.1-0.1-1.1","","null","audio_feedback/wrong/error01.mp3","null","","","","","1","0","90","300","[""0042_N0300_K0090_CLIQUE"",""0088_N0300_K0090_NOCLIQUE""]"
"","","","","","canvas-keyboard-response","140","649016","0.0-80.0-0.0-0.0","","2049","","arrowleft","[238,105,180,132,297,78,263,232,201,270,40,2,278,176,84,200,257,189,165,39,101,185,239,97,244,160,256,218,285,214,62,234,131,64,150,95,202,266,251,174,279,103,63,120,106,242,115,222,284,136,85,9,240,113,92,56,121,178,47,159,116,243,29,191,241,192,11,16,21,194,107,252,3,175,230,220,264,148,253,260,245,48,51,140,22,15,71,195,135,99,80,82,247,37,110,20,223,221,228,44,224,34,217,100,235,203,210,129,12,14,157,291,133,181,119,8,163,262,75,186,28,68,169,299,66,167,74,18,151,43,81,226,198,184,229,117,216,170,25,0,298,42,114,204,145,289,50,249,250,38,269,296,219,67,59,166,231,102,274,236,154,32,26,162,76,254,58,197,161,128,259,52,65,83,268,143,282,267,125,137,190,155,283,122,126,108,13,86,208,109,209,46,36,57,225,147,233,177,248,182,227,196,255,261,61,271,188,89,237,24,199,293,207,35,211,87,144,70,10,41,164,294,276,168,17,7,139,55,27,171,104,90,96,173,141,206,265,118,272,1,156,149,246,88,215,33,172,183,49,94,138,130,286,179,295,187,281,212,23,124,280,60,123,111,277,112,292,72,288,54,79,158,134,142,69,127,153,275,193,6,146,31,77,290,19,93,213,91,152,205,45,258,273,4,5,73,287,30,53,98]","arrowleft","","true","1","1","90","300","[""0090_N0300_K0090_CLIQUE"",""0091_N0300_K0090_NOCLIQUE""]"
"","","","","","audio-keyboard-response","141","649450","0.0-80.0-0.0-1.0","","null","audio_feedback/right/coin01.mp3","null","","","","","1","1","90","300","[""0090_N0300_K0090_CLIQUE"",""0091_N0300_K0090_NOCLIQUE""]"
"","","","","","canvas-keyboard-response","142","651086","0.0-81.0-0.0-0.0","","1565","","arrowright","[145,164,117,250,140,202,118,176,223,163,115,71,226,81,70,86,53,192,153,40,182,271,137,80,79,238,178,113,94,246,20,275,252,77,47,286,147,269,64,280,61,135,278,254,158,233,31,230,46,279,34,41,43,205,167,191,82,10,242,295,201,123,131,99,270,52,289,130,33,58,174,225,108,154,200,133,93,277,243,221,59,177,142,3,42,97,49,112,87,5,139,172,55,229,255,231,183,209,85,251,293,253,160,190,155,173,89,291,241,143,124,146,166,171,292,11,128,285,72,111,6,266,179,232,156,66,132,298,50,224,165,288,45,187,104,125,294,101,110,259,78,212,196,83,168,207,244,90,249,2,149,121,35,56,29,44,51,24,48,73,213,57,106,7,96,189,114,30,194,272,215,220,134,169,67,273,162,148,92,68,76,26,1,248,16,38,239,180,13,218,181,262,203,18,102,281,21,19,299,157,198,23,261,126,234,245,27,60,36,276,63,25,247,265,74,186,151,217,88,62,282,258,204,267,175,195,28,188,22,138,109,211,84,37,236,284,216,144,185,150,287,227,116,8,159,129,105,263,264,39,206,14,122,240,119,54,208,256,127,9,170,193,297,161,197,65,100,210,214,274,235,120,4,69,141,91,107,32,199,12,103,260,95,237,257,296,98,283,219,0,75,290,136,17,15,152,184,268,222,228]","arrowright","","true","1","2","80","300","[""0001_N0300_K0080_NOCLIQUE"",""0086_N0300_K0080_CLIQUE""]"
"","","","","","audio-keyboard-response","143","651512","0.0-81.0-0.0-1.0","","null","audio_feedback/right/coin01.mp3","null","","","","","1","2","80","300","[""0001_N0300_K0080_NOCLIQUE"",""0086_N0300_K0080_CLIQUE""]"
"","","","","","canvas-keyboard-response","144","653430","0.0-82.0-0.0-0.0","","1858","","arrowright","[247,184,16,120,234,271,227,197,48,233,209,70,125,211,85,270,288,90,71,123,266,256,165,140,61,212,6,92,185,20,32,106,133,198,166,219,242,194,146,206,215,189,291,187,218,134,273,62,239,201,272,217,279,286,210,240,258,188,41,58,2,35,225,25,144,281,26,95,86,77,114,213,178,101,299,296,277,40,110,97,186,43,224,222,195,50,280,170,9,111,121,156,79,199,159,83,93,235,174,14,152,126,150,24,69,260,283,228,103,267,287,117,22,27,173,179,44,3,154,168,65,59,261,53,19,116,72,254,157,167,259,249,285,87,190,60,289,160,54,237,13,91,76,75,246,263,252,162,171,264,220,113,124,8,169,192,230,151,96,231,23,148,290,155,164,257,67,1,38,293,153,137,119,131,0,118,177,33,5,102,172,244,64,284,45,66,241,107,191,138,232,88,47,214,278,28,73,130,42,56,49,57,276,250,36,205,122,80,39,17,161,30,245,229,221,182,115,163,10,176,226,98,108,145,112,243,81,129,149,298,82,265,202,175,236,136,216,34,255,269,68,46,135,141,11,207,274,100,132,84,203,52,204,223,143,94,74,7,31,4,29,12,200,268,127,295,292,147,15,109,105,248,193,99,183,282,55,297,142,51,251,208,21,89,262,196,18,294,37,128,238,104,253,275,63,78,181,180,158,139]","arrowright","","true","1","3","80","300","[""0082_N0300_K0080_NOCLIQUE"",""0029_N0300_K0080_CLIQUE""]"
"","","","","","audio-keyboard-response","145","653851","0.0-82.0-0.0-1.0","","null","audio_feedback/right/coin01.mp3","null","","","","","1","3","80","300","[""0082_N0300_K0080_NOCLIQUE"",""0029_N0300_K0080_CLIQUE""]"
"","","","","","canvas-keyboard-response","146","655453","0.0-83.0-0.0-0.0","","1536","","arrowleft","[208,249,255,41,16,135,267,128,241,66,117,134,13,152,33,35,125,224,172,221,14,118,86,60,103,74,290,96,173,217,168,142,193,170,126,180,75,270,102,201,22,178,266,47,148,171,185,196,2,181,215,239,212,253,9,34,130,146,29,279,278,211,288,112,296,92,38,150,123,161,61,59,218,200,69,209,136,100,282,36,213,1,121,154,256,140,246,7,54,143,55,263,89,40,73,70,52,119,297,259,21,3,192,101,237,131,18,64,17,182,189,56,268,153,271,238,294,286,191,149,85,226,10,50,110,115,248,37,250,138,31,156,264,186,114,24,104,107,80,184,87,273,6,30,98,72,48,132,124,261,225,233,42,122,167,165,204,23,159,109,216,145,164,88,157,222,133,43,219,236,105,298,272,4,78,91,188,206,27,228,262,207,176,81,289,63,292,25,195,28,57,32,58,281,223,129,202,243,265,245,275,160,68,46,198,137,49,39,175,94,111,76,83,214,20,194,242,144,162,62,257,113,174,247,65,269,299,169,106,147,277,11,151,67,26,141,284,15,84,240,166,71,260,293,95,77,183,8,163,205,291,220,90,155,197,108,79,285,120,252,287,274,139,51,210,97,254,231,295,280,5,0,234,251,227,276,12,82,93,229,179,99,230,116,203,258,190,232,177,158,127,19,53,44,235,199,244,45,187,283]","arrowleft","","true","1","4","70","300","[""0049_N0300_K0070_CLIQUE"",""0010_N0300_K0070_NOCLIQUE""]"
"","","","","","audio-keyboard-response","147","655871","0.0-83.0-0.0-1.0","","null","audio_feedback/right/coin01.mp3","null","","","","","1","4","70","300","[""0049_N0300_K0070_CLIQUE"",""0010_N0300_K0070_NOCLIQUE""]"
"","","","","","canvas-keyboard-response","148","659012","0.0-84.0-0.0-0.0","","3073",""," ","[218,5,187,274,67,271,285,208,37,200,152,299,219,220,269,195,114,89,287,91,130,148,122,197,207,177,215,294,273,64,283,221,116,265,60,83,210,112,153,236,201,263,267,54,292,103,113,275,239,141,10,138,156,57,17,233,30,268,288,231,99,214,63,49,223,58,131,241,55,120,191,79,163,70,36,249,40,90,204,29,48,136,82,2,109,87,16,21,4,169,88,174,15,25,11,235,181,182,260,168,173,228,213,105,160,6,178,0,258,293,62,266,198,73,199,225,297,256,162,22,196,229,102,32,92,281,26,135,170,68,33,69,145,216,186,238,147,291,111,298,46,245,129,106,150,250,53,232,166,43,248,108,237,12,211,202,183,77,98,97,280,164,78,290,80,190,3,151,132,212,95,27,247,107,234,134,65,76,86,205,289,39,203,51,125,254,175,192,296,277,158,72,71,101,44,117,154,115,140,128,59,126,176,18,278,13,279,1,295,240,264,23,209,253,7,50,100,159,165,84,94,255,41,85,14,180,96,252,157,222,155,121,20,242,172,149,272,146,56,185,38,161,127,42,171,167,246,139,34,93,259,282,52,257,244,230,110,261,194,243,24,193,123,270,81,143,179,227,224,118,137,142,284,104,188,124,28,226,35,286,189,66,184,206,45,276,119,144,74,75,251,217,47,133,9,61,8,262,31,19]","arrowleft","","","1","5","70","300","[""0062_N0300_K0070_CLIQUE"",""0052_N0300_K0070_NOCLIQUE""]"
"","","","","","audio-keyboard-response","149","659590","0.0-84.0-0.0-1.0","","null","audio_feedback/shuffles/shuffle01.mp3","null","","","","","1","5","70","300","[""0062_N0300_K0070_CLIQUE"",""0052_N0300_K0070_NOCLIQUE""]"
"","","","","","canvas-keyboard-response","150","660711","0.0-84.1-0.1-0.1","","1040","","arrowleft","[253,70,143,97,270,94,152,266,123,145,224,246,105,114,146,193,122,201,244,199,178,233,44,207,103,110,238,226,75,261,208,157,65,33,129,119,43,280,159,203,197,273,237,64,158,180,213,83,259,128,299,225,291,17,272,62,209,149,80,7,84,196,68,49,170,286,242,127,115,58,118,136,107,135,256,74,14,132,160,231,133,267,138,297,183,77,167,186,177,248,275,91,87,236,265,252,191,63,150,192,184,283,131,147,60,24,205,99,19,285,53,171,227,187,112,179,151,292,104,155,204,296,181,130,241,140,219,27,281,162,106,153,23,255,141,89,142,144,54,195,22,175,228,254,262,210,137,221,282,271,79,57,165,217,206,288,287,26,32,72,50,294,126,86,55,28,274,13,124,189,161,1,40,163,102,100,243,216,45,295,52,73,200,10,92,34,2,93,220,148,69,182,5,16,48,18,257,35,109,156,116,277,176,38,245,235,0,12,4,46,194,51,15,67,61,229,198,95,289,47,8,139,29,185,174,56,11,101,215,247,42,249,6,113,78,173,284,218,263,21,222,264,290,3,117,258,59,172,125,234,31,223,121,66,154,166,9,41,71,268,168,230,98,202,211,82,37,81,260,169,120,108,250,90,85,278,111,279,36,269,96,212,293,276,20,190,88,188,76,251,134,25,39,232,30,214,240,164,239,298]","arrowleft","","true","1","5","70","300","[""0062_N0300_K0070_CLIQUE"",""0052_N0300_K0070_NOCLIQUE""]"
"","","","","","audio-keyboard-response","151","661131","0.0-84.1-0.1-1.1","","null","audio_feedback/right/coin01.mp3","null","","","","","1","5","70","300","[""0062_N0300_K0070_CLIQUE"",""0052_N0300_K0070_NOCLIQUE""]"
"","","","","","canvas-keyboard-response","152","662187","0.0-85.0-0.0-0.0","","995","","arrowright","[123,173,68,277,40,250,90,183,24,190,113,13,53,6,217,29,194,273,132,37,236,87,125,188,253,74,23,233,266,249,246,106,265,45,134,158,8,89,49,104,128,166,42,229,220,203,160,61,263,71,154,67,26,140,167,180,0,58,270,136,3,50,135,124,145,288,295,259,22,257,239,168,278,206,86,235,18,7,10,121,59,119,94,78,72,205,100,187,63,226,75,230,17,152,70,79,285,62,64,175,156,216,268,199,4,241,245,232,252,225,73,244,163,19,112,95,200,126,28,234,80,276,290,48,247,120,51,238,30,287,36,142,179,165,191,20,114,85,46,138,161,284,186,258,92,143,172,280,148,34,212,38,110,267,177,204,117,25,43,215,2,286,83,44,189,81,251,224,137,155,289,297,118,88,14,146,101,218,256,184,1,96,264,242,159,196,255,144,111,210,130,102,5,294,57,178,133,170,219,139,198,181,272,283,82,197,293,231,60,98,248,299,228,15,47,33,55,77,240,207,227,237,122,274,27,153,296,261,84,35,169,260,115,202,221,9,223,262,56,271,39,282,93,116,66,185,76,97,254,151,157,176,31,54,69,32,182,209,281,149,279,214,193,141,192,12,99,211,127,174,213,147,105,291,108,65,243,162,222,269,298,164,109,16,91,129,195,131,292,171,150,208,103,11,107,52,201,275,21,41]","arrowright","","true","1","6","65","300","[""0096_N0300_K0065_NOCLIQUE"",""0037_N0300_K0065_CLIQUE""]"
"","","","","","audio-keyboard-response","153","662612","0.0-85.0-0.0-1.0","","null","audio_feedback/right/coin01.mp3","null","","","","","1","6","65","300","[""0096_N0300_K0065_NOCLIQUE"",""0037_N0300_K0065_CLIQUE""]"
"","","","","","canvas-keyboard-response","154","663381","0.0-86.0-0.0-0.0","","692","","arrowright","[245,292,30,242,76,248,246,106,121,2,235,152,39,19,272,203,206,104,42,78,114,63,227,124,244,35,149,155,169,288,237,69,25,214,236,8,289,92,64,196,80,112,179,115,38,241,0,231,175,9,31,84,88,44,283,260,271,32,262,66,230,202,150,225,274,95,144,209,157,264,20,267,29,160,51,282,100,284,216,172,111,82,174,21,233,23,67,113,123,96,192,163,90,199,148,57,93,128,33,181,164,105,86,299,77,135,219,34,273,139,58,165,1,109,102,185,4,266,167,293,74,27,279,65,136,287,141,250,50,291,118,75,62,68,153,187,10,195,186,178,207,254,17,171,265,101,176,151,140,221,83,89,126,182,268,212,45,281,119,295,48,120,252,197,156,5,28,72,73,24,276,183,125,11,16,142,15,91,146,18,191,60,269,53,294,210,263,127,166,217,133,290,138,12,215,103,116,180,130,211,285,257,258,220,132,259,228,110,184,173,277,97,278,222,198,59,213,296,193,99,85,143,154,238,22,61,158,251,275,297,240,208,249,94,13,177,145,70,205,229,46,194,49,26,3,161,159,71,253,6,98,162,87,226,41,56,37,218,43,188,270,298,14,36,79,107,81,108,204,234,189,117,131,147,232,286,223,280,190,256,224,200,201,134,243,239,129,122,47,261,168,54,40,137,255,7,170,52,247,55]","arrowright","","true","1","7","65","300","[""0075_N0300_K0065_NOCLIQUE"",""0040_N0300_K0065_CLIQUE""]"
"","","","","","audio-keyboard-response","155","663791","0.0-86.0-0.0-1.0","","null","audio_feedback/right/coin01.mp3","null","","","","","1","7","65","300","[""0075_N0300_K0065_NOCLIQUE"",""0040_N0300_K0065_CLIQUE""]"
"","","","","","canvas-keyboard-response","156","664870","0.0-87.0-0.0-0.0","","1013","","arrowright","[50,239,131,61,273,211,156,117,107,259,240,21,265,55,244,158,59,125,72,87,37,191,222,210,133,208,280,199,221,271,281,80,297,232,27,289,46,228,252,262,62,64,286,0,32,144,276,201,161,197,176,231,44,185,45,30,287,179,168,139,79,128,183,65,20,101,137,141,114,26,174,7,115,78,119,25,113,38,47,23,51,245,295,122,251,76,11,3,157,96,264,195,123,86,192,152,9,159,135,41,246,170,198,207,4,8,288,247,175,282,56,95,154,188,223,5,31,215,190,226,127,138,165,14,220,256,243,214,186,28,130,189,63,97,260,237,291,290,66,82,277,22,173,68,272,193,13,35,241,213,81,118,217,112,298,93,1,88,258,142,92,134,242,136,270,180,6,24,129,15,162,203,209,42,18,99,249,269,126,263,172,267,54,60,12,299,90,148,94,70,36,105,236,147,164,275,196,255,73,49,67,233,16,77,187,279,261,293,235,121,71,74,40,284,104,91,83,230,116,225,34,143,52,177,29,234,266,69,283,200,109,140,229,268,58,248,227,145,285,163,216,120,250,19,171,178,98,89,204,219,48,167,102,181,254,212,274,153,224,2,108,111,39,166,257,294,149,17,75,184,100,103,296,194,205,278,10,238,53,110,124,160,132,151,85,182,292,155,202,43,146,57,150,218,206,106,253,169,33,84]","arrowleft","","false","1","8","60","300","[""0092_N0300_K0060_CLIQUE"",""0041_N0300_K0060_NOCLIQUE""]"
"","","","","","audio-keyboard-response","157","665491","0.0-87.0-0.0-1.0","","null","audio_feedback/wrong/error01.mp3","null","","","","","1","8","60","300","[""0092_N0300_K0060_CLIQUE"",""0041_N0300_K0060_NOCLIQUE""]"
"","","","","","canvas-keyboard-response","158","667150","0.0-88.0-0.0-0.0","","1594","","arrowright","[139,158,252,61,32,205,174,265,30,165,235,18,195,15,66,26,278,53,297,164,76,78,54,80,211,50,27,228,281,147,40,141,294,65,4,167,25,145,189,72,64,8,55,295,202,229,96,255,35,208,60,110,190,233,83,12,22,185,240,29,136,28,69,59,220,254,144,236,132,232,24,63,203,88,269,215,45,275,133,259,126,113,92,98,279,1,105,13,47,154,222,179,152,284,20,166,5,224,118,117,206,6,263,62,74,225,43,57,149,71,109,157,115,226,213,150,239,116,148,68,0,73,212,112,199,123,260,87,163,291,36,280,261,223,234,221,187,34,207,287,46,42,274,156,70,131,77,67,9,186,41,209,56,153,256,184,51,124,44,250,200,100,7,267,168,90,182,272,296,102,192,138,173,94,155,82,258,21,37,81,218,107,93,108,251,245,285,178,91,253,198,217,16,244,270,52,137,97,216,277,289,151,75,248,111,266,85,193,86,276,219,114,140,292,161,3,191,299,298,194,162,106,249,2,237,129,273,11,130,33,257,230,49,175,171,95,39,286,121,238,135,159,290,17,271,210,197,262,204,227,169,196,146,201,119,48,176,242,293,101,31,89,172,122,214,104,19,99,14,128,84,142,127,243,283,160,246,143,134,170,231,79,282,58,120,288,23,183,125,188,268,103,10,181,180,241,38,247,264,177]","arrowleft","","false","1","9","60","300","[""0002_N0300_K0060_CLIQUE"",""0013_N0300_K0060_NOCLIQUE""]"
"","","","","","audio-keyboard-response","159","667751","0.0-88.0-0.0-1.0","","null","audio_feedback/wrong/error01.mp3","null","","","","","1","9","60","300","[""0002_N0300_K0060_CLIQUE"",""0013_N0300_K0060_NOCLIQUE""]"
"","","","","","canvas-keyboard-response","160","668702","0.0-89.0-0.0-0.0","","878",""," ","[46,177,262,189,112,8,144,150,77,102,292,193,154,195,40,48,141,100,152,53,101,76,90,34,273,216,267,232,243,271,37,274,270,69,257,208,218,166,68,204,75,99,74,250,23,231,233,210,126,29,16,295,260,81,254,164,225,217,221,52,32,224,238,65,255,199,1,184,156,0,36,67,104,182,103,84,284,71,109,26,169,121,12,196,155,18,15,190,265,226,80,7,41,263,39,58,179,230,96,111,253,22,167,294,276,215,278,280,146,33,9,296,61,258,181,244,242,85,185,27,134,11,245,227,47,299,266,228,92,25,50,131,180,107,153,132,114,82,268,281,194,168,149,148,119,122,223,66,44,162,249,127,165,116,73,59,161,98,186,124,142,187,172,147,173,279,297,51,14,200,176,78,136,192,28,6,113,138,174,143,240,282,239,171,88,206,264,151,95,72,205,21,229,241,42,19,234,197,212,235,219,106,125,261,145,283,60,57,130,159,202,55,236,140,213,97,170,4,54,163,298,285,93,175,91,31,293,287,286,291,211,105,13,24,209,135,86,30,70,272,256,5,79,198,290,2,259,63,246,188,123,183,178,269,120,252,247,62,275,49,128,289,115,87,191,137,38,139,89,110,207,214,64,157,158,201,203,117,220,3,17,20,277,129,10,83,237,160,248,35,43,222,288,56,45,94,118,133,108,251]","arrowleft","","","1","10","55","300","[""0010_N0300_K0055_CLIQUE"",""0021_N0300_K0055_NOCLIQUE""]"
"","","","","","audio-keyboard-response","161","669269","0.0-89.0-0.0-1.0","","null","audio_feedback/shuffles/shuffle01.mp3","null","","","","","1","10","55","300","[""0010_N0300_K0055_CLIQUE"",""0021_N0300_K0055_NOCLIQUE""]"
"","","","","","canvas-keyboard-response","162","670982","0.0-89.1-0.1-0.1","","1654","","arrowleft","[184,175,65,54,101,194,119,11,72,118,117,55,6,279,168,120,96,73,215,2,131,9,167,115,122,31,251,205,26,49,273,63,67,102,248,27,112,147,128,46,68,21,60,229,134,217,79,133,260,149,81,111,138,254,258,104,15,76,97,80,143,48,224,185,107,177,52,47,36,216,56,170,284,16,99,201,195,90,275,108,29,211,34,144,212,274,84,136,196,186,290,180,59,38,39,37,232,203,148,43,288,263,0,159,192,25,236,32,242,129,165,179,113,41,28,17,12,191,213,183,121,247,187,124,223,58,154,222,198,50,292,137,178,230,189,285,246,241,289,152,18,163,24,1,181,19,243,218,98,287,278,130,265,156,71,210,110,123,14,269,146,208,266,173,297,262,126,250,226,91,202,116,199,282,3,125,22,256,92,174,272,281,57,276,153,293,7,23,264,145,44,207,83,206,197,4,200,114,142,69,106,70,151,228,127,53,135,166,158,75,169,10,172,270,244,221,176,157,280,238,93,277,283,296,219,171,85,164,271,253,299,231,74,140,298,105,89,259,78,190,103,109,161,240,132,45,8,261,5,95,51,249,66,220,267,150,141,255,139,35,234,252,20,257,182,13,291,42,225,227,268,33,286,94,239,235,188,209,193,160,100,62,86,233,295,40,204,87,214,30,77,64,82,162,245,155,61,88,237,294]","arrowleft","","true","1","10","55","300","[""0010_N0300_K0055_CLIQUE"",""0021_N0300_K0055_NOCLIQUE""]"
"","","","","","audio-keyboard-response","163","671391","0.0-89.1-0.1-1.1","","null","audio_feedback/right/coin01.mp3","null","","","","","1","10","55","300","[""0010_N0300_K0055_CLIQUE"",""0021_N0300_K0055_NOCLIQUE""]"
