"success","timeout","failed_images","failed_audio","failed_video","trial_type","trial_index","time_elapsed","internal_node_id","view_history","rt","stimulus","response","nodes_order","correct_response","block_index","presentation_index","clique_size","graph_size","graphs_names","graphs_couple","accuracy"
"true","false","[]","[]","[]","preload","0","60","0.0-0.0","","","","","","","","","","","","",""
"","","","","","pavlovia","1","500","0.0-1.0","","","","","","","","","","","","",""
"","","","","","instructions","2","45737","0.0-2.0","[{""page_index"":0,""viewing_time"":5689},{""page_index"":1,""viewing_time"":39538}]","45227","","","","","","","","","","",""
"true","false","[]","[]","[]","preload","3","46430","0.0-3.0","","","","","","","","","","","","",""
"","","","","","instructions","4","334805","0.0-4.0","[{""page_index"":0,""viewing_time"":4341},{""page_index"":1,""viewing_time"":2640},{""page_index"":2,""viewing_time"":2416},{""page_index"":3,""viewing_time"":3600},{""page_index"":4,""viewing_time"":8224},{""page_index"":5,""viewing_time"":6401},{""page_index"":4,""viewing_time"":591},{""page_index"":5,""viewing_time"":480},{""page_index"":6,""viewing_time"":2176},{""page_index"":7,""viewing_time"":5199},{""page_index"":8,""viewing_time"":9745},{""page_index"":9,""viewing_time"":7024},{""page_index"":10,""viewing_time"":2384},{""page_index"":11,""viewing_time"":1695},{""page_index"":12,""viewing_time"":3200},{""page_index"":13,""viewing_time"":2017},{""page_index"":14,""viewing_time"":2751},{""page_index"":15,""viewing_time"":1440},{""page_index"":16,""viewing_time"":1296},{""page_index"":17,""viewing_time"":1873},{""page_index"":18,""viewing_time"":2287},{""page_index"":19,""viewing_time"":2384},{""page_index"":20,""viewing_time"":1248},{""page_index"":21,""viewing_time"":5328},{""page_index"":22,""viewing_time"":5152},{""page_index"":23,""viewing_time"":2160},{""page_index"":24,""viewing_time"":2512},{""page_index"":25,""viewing_time"":15745},{""page_index"":26,""viewing_time"":2543},{""page_index"":27,""viewing_time"":4640},{""page_index"":28,""viewing_time"":6416},{""page_index"":29,""viewing_time"":3632},{""page_index"":30,""viewing_time"":3985},{""page_index"":31,""viewing_time"":6079},{""page_index"":32,""viewing_time"":13969},{""page_index"":33,""viewing_time"":14416},{""page_index"":34,""viewing_time"":5199},{""page_index"":33,""viewing_time"":576},{""page_index"":34,""viewing_time"":1824},{""page_index"":33,""viewing_time"":3040},{""page_index"":34,""viewing_time"":1456},{""page_index"":33,""viewing_time"":3297},{""page_index"":34,""viewing_time"":2223},{""page_index"":33,""viewing_time"":1423},{""page_index"":34,""viewing_time"":336},{""page_index"":35,""viewing_time"":1840},{""page_index"":36,""viewing_time"":6001},{""page_index"":37,""viewing_time"":6352},{""page_index"":38,""viewing_time"":4688},{""page_index"":39,""viewing_time"":2928},{""page_index"":40,""viewing_time"":2288},{""page_index"":41,""viewing_time"":6017},{""page_index"":42,""viewing_time"":6111},{""page_index"":43,""viewing_time"":7088},{""page_index"":44,""viewing_time"":5616},{""page_index"":45,""viewing_time"":21808},{""page_index"":46,""viewing_time"":3568},{""page_index"":47,""viewing_time"":2752},{""page_index"":48,""viewing_time"":6720},{""page_index"":49,""viewing_time"":11105},{""page_index"":50,""viewing_time"":5120},{""page_index"":51,""viewing_time"":7007}]","288373","","","","","","","","","","",""
"","","","","","instructions","5","343237","0.0-5.0","[{""page_index"":0,""viewing_time"":8427}]","8427","","","","","","","","","","",""
"true","false","[]","[]","[]","preload","6","344016","0.0-6.0","","","","","","","","","","","","",""
"","","","","","image-keyboard-response","7","362836","0.0-7.0","","18798","tutorial/task_familiarization_images/part 1/01_N160_K90_cliqueRight_question1.PNG"," ","","","","","","","","",""
"","","","","","image-keyboard-response","8","365844","0.0-8.0","","2979","tutorial/task_familiarization_images/part 1/02_N160_K90_cliqueRight_question2.PNG"," ","","","","","","","","",""
"","","","","","image-keyboard-response","9","372084","0.0-9.0","","6213","tutorial/task_familiarization_images/part 1/03_N160_K90_cliqueRight_question3.PNG","arrowright","","","","","","","","",""
"","","","","","image-keyboard-response","10","374484","0.0-10.0","","2362","tutorial/task_familiarization_images/part 1/04_N160_K90_cliqueRight_solution.PNG"," ","","","","","","","","",""
"","","","","","image-keyboard-response","11","378451","0.0-11.0","","3934","tutorial/task_familiarization_images/part 1/05_N160_K65_cliqueRight_question1.PNG"," ","","","","","","","","",""
"","","","","","image-keyboard-response","12","381683","0.0-12.0","","3203","tutorial/task_familiarization_images/part 1/06_N160_K65_cliqueRight_question2.PNG"," ","","","","","","","","",""
"","","","","","image-keyboard-response","13","387876","0.0-13.0","","6157","tutorial/task_familiarization_images/part 1/07_N160_K65_cliqueRight_question3.PNG","arrowright","","","","","","","","",""
"","","","","","image-keyboard-response","14","389554","0.0-14.0","","1647","tutorial/task_familiarization_images/part 1/08_N160_K65_cliqueRight_solution.PNG"," ","","","","","","","","",""
"","","","","","image-keyboard-response","15","393571","0.0-15.0","","3979","tutorial/task_familiarization_images/part 1/09_N160_K50_cliqueLeft_question1.PNG"," ","","","","","","","","",""
"","","","","","image-keyboard-response","16","396292","0.0-16.0","","2684","tutorial/task_familiarization_images/part 1/10_N160_K50_cliqueLeft_question2.PNG"," ","","","","","","","","",""
"","","","","","image-keyboard-response","17","399060","0.0-17.0","","2738","tutorial/task_familiarization_images/part 1/11_N160_K50_cliqueLeft_question3.PNG","arrowleft","","","","","","","","",""
"","","","","","image-keyboard-response","18","402531","0.0-18.0","","3445","tutorial/task_familiarization_images/part 1/12_N160_K50_cliqueLeft_solution.PNG"," ","","","","","","","","",""
"","","","","","image-keyboard-response","19","405220","0.0-19.0","","2652","tutorial/task_familiarization_images/part 1/13_N160_K80_cliqueLeft_question1.PNG"," ","","","","","","","","",""
"","","","","","image-keyboard-response","20","407251","0.0-20.0","","2001","tutorial/task_familiarization_images/part 1/14_N160_K80_cliqueLeft_question2.PNG"," ","","","","","","","","",""
"","","","","","image-keyboard-response","21","409987","0.0-21.0","","2699","tutorial/task_familiarization_images/part 1/15_N160_K80_cliqueLeft_question3.PNG","arrowleft","","","","","","","","",""
"","","","","","image-keyboard-response","22","412132","0.0-22.0","","2109","tutorial/task_familiarization_images/part 1/16_N160_K80_cliqueLeft_solution.PNG"," ","","","","","","","","",""
"","","","","","image-keyboard-response","23","416707","0.0-23.0","","4543","tutorial/task_familiarization_images/part 1/17_N160_K40_cliqueRight_question1.PNG"," ","","","","","","","","",""
"","","","","","image-keyboard-response","24","420292","0.0-24.0","","3549","tutorial/task_familiarization_images/part 1/18_N160_K40_cliqueRight_question2.PNG"," ","","","","","","","","",""
"","","","","","image-keyboard-response","25","427299","0.0-25.0","","6972","tutorial/task_familiarization_images/part 1/19_N160_K40_cliqueRight_question3.PNG","arrowright","","","","","","","","",""
"","","","","","image-keyboard-response","26","429380","0.0-26.0","","2051","tutorial/task_familiarization_images/part 1/20_N160_K40_cliqueRight_solution.PNG"," ","","","","","","","","",""
"","","","","","image-keyboard-response","27","432276","0.0-27.0","","2866","tutorial/task_familiarization_images/part 1/21_N160_K70_cliqueLeft_question1.PNG"," ","","","","","","","","",""
"","","","","","image-keyboard-response","28","434900","0.0-28.0","","2604","tutorial/task_familiarization_images/part 1/22_N160_K70_cliqueLeft_question2.PNG"," ","","","","","","","","",""
"","","","","","image-keyboard-response","29","435875","0.0-29.0","","948","tutorial/task_familiarization_images/part 1/23_N160_K70_cliqueLeft_question3.PNG","arrowleft","","","","","","","","",""
"","","","","","image-keyboard-response","30","438068","0.0-30.0","","2158","tutorial/task_familiarization_images/part 1/24_N160_K70_cliqueLeft_solution.PNG"," ","","","","","","","","",""
"true","false","[]","[]","[]","preload","31","438713","0.0-31.0","","","","","","","","","","","","",""
"","","","","","image-keyboard-response","32","461172","0.0-32.0","","22432","tutorial/task_familiarization_images/part 2/01_160_80_cliqueLeft_withFeedback_1.PNG"," ","","","","","","","","",""
"","","","","","image-keyboard-response","33","464515","0.0-33.0","","3302","tutorial/task_familiarization_images/part 2/02_160_80_cliqueLeft_withFeedback_1.PNG"," ","","","","","","","","",""
"","","","","","image-keyboard-response","34","466355","0.0-34.0","","1800","tutorial/task_familiarization_images/part 2/03_160_80_cliqueLeft_withFeedback_3.PNG","arrowleft","","","","","","","","",""
"","","","","","image-keyboard-response","35","473700","0.0-35.0","","7299","tutorial/task_familiarization_images/part 2/04_160_80_cliqueLeft_withFeedback_correct.PNG"," ","","","","","","","","",""
"","","","","","image-keyboard-response","36","482424","0.0-36.0","","8678","tutorial/task_familiarization_images/part 2/05_160_55_cliqueRight_withFeedback_1.PNG"," ","","","","","","","","",""
"","","","","","image-keyboard-response","37","489940","0.0-37.0","","7473","tutorial/task_familiarization_images/part 2/06_160_55_cliqueRight_withFeedback_2.PNG"," ","","","","","","","","",""
"","","","","","image-keyboard-response","38","496564","0.0-38.0","","6583","tutorial/task_familiarization_images/part 2/07_160_55_cliqueRight_withFeedback_3.PNG","arrowright","","","","","","","","",""
"","","","","","image-keyboard-response","39","503924","0.0-39.0","","7319","tutorial/task_familiarization_images/part 2/08_160_55_cliqueRight_withFeedback_correct.PNG"," ","","","","","","","","",""
"","","","","","image-keyboard-response","40","512132","0.0-40.0","","8164","tutorial/task_familiarization_images/part 2/09_160_70_cliqueLeft_withFeedback_1.PNG"," ","","","","","","","","",""
"","","","","","image-keyboard-response","41","514964","0.0-41.0","","2788","tutorial/task_familiarization_images/part 2/10_160_70_cliqueLeft_withFeedback_2.PNG"," ","","","","","","","","",""
"","","","","","image-keyboard-response","42","516931","0.0-42.0","","1921","tutorial/task_familiarization_images/part 2/11_160_70_cliqueLeft_withFeedback_3.PNG","arrowleft","","","","","","","","",""
"","","","","","image-keyboard-response","43","522340","0.0-43.0","","5366","tutorial/task_familiarization_images/part 2/12_160_70_cliqueLeft_withFeedback_correct.PNG"," ","","","","","","","","",""
"","","","","","survey-html-form","44","532447","0.0-44.0","","10104","","{""gender"":""female"",""age"":""32""}","","","","","","","","",""
"","","","","","instructions","45","553704","0.0-45.0","[{""page_index"":0,""viewing_time"":21254}]","21255","","","","","","","","","","",""
"true","","","","","fullscreen","46","559088","0.0-47.0","","","","","","","","","","","","",""
"","","","","","canvas-keyboard-response","47","572052","0.0-48.0-0.0-0.0","","12661",""," ","[103,200,260,150,276,292,48,251,124,223,125,210,167,93,180,39,202,244,263,234,75,168,220,281,126,241,299,118,270,259,204,255,73,171,228,237,0,66,236,143,28,246,74,164,112,169,146,193,153,134,205,68,250,261,24,298,131,284,54,224,294,156,195,116,254,65,208,190,14,152,172,201,252,52,163,144,191,215,45,78,273,206,113,110,129,61,40,274,216,179,27,80,225,139,64,29,199,231,84,290,285,85,212,120,185,257,16,221,9,11,137,288,209,242,279,265,157,256,253,25,38,264,278,77,235,89,239,238,86,2,102,5,211,138,94,57,141,60,128,35,63,222,173,187,214,176,18,19,12,183,42,47,277,289,33,293,133,95,248,51,32,151,59,4,31,97,230,266,50,117,268,159,197,53,147,149,135,43,267,10,196,227,240,21,1,26,76,101,69,105,109,119,88,162,98,154,107,90,145,232,70,58,213,121,166,115,41,243,295,56,275,177,175,245,114,269,142,132,91,161,148,6,184,8,136,189,280,219,83,17,62,13,247,108,30,182,282,207,106,49,233,81,158,87,82,297,140,7,178,55,36,123,130,99,20,37,271,79,71,262,3,23,104,198,170,229,287,296,127,272,291,100,249,181,155,174,96,122,194,165,286,72,67,46,217,186,34,22,258,92,283,160,15,226,192,44,111,203,188,218]","arrowleft","0","0","90","300","[""0071_N0300_K0090_CLIQUE"",""0031_N0300_K0090_NOCLIQUE""]","",""
"","","","","","audio-keyboard-response","48","572753","0.0-48.0-0.0-1.0","","null","audio_feedback/shuffles/shuffle01.mp3","null","","","0","0","90","300","[""0071_N0300_K0090_CLIQUE"",""0031_N0300_K0090_NOCLIQUE""]","",""
"","","","","","canvas-keyboard-response","49","575766","0.0-48.1-0.1-0.1","","2729",""," ","[9,107,274,247,156,7,142,131,283,64,6,118,10,81,299,89,197,276,32,175,129,295,17,177,4,191,201,109,251,261,258,218,122,232,165,52,208,39,166,148,138,88,136,238,277,203,260,35,128,222,217,29,15,90,202,209,95,262,55,137,187,257,103,234,106,26,105,23,292,291,73,169,57,38,120,151,212,286,96,48,290,78,47,226,198,294,56,141,31,244,112,170,51,53,30,154,116,279,162,20,179,5,219,71,158,69,214,130,280,223,145,288,265,289,186,239,243,248,92,14,176,268,3,284,44,18,16,54,250,287,79,83,266,121,225,11,157,237,41,75,155,216,167,149,68,236,285,242,215,110,267,72,40,87,297,183,168,146,204,13,189,278,259,193,143,111,100,281,74,269,256,133,275,42,97,108,84,213,1,139,194,127,140,171,184,230,207,46,210,12,94,233,245,205,76,144,36,22,161,85,60,45,254,173,21,58,77,249,93,37,200,159,246,24,49,99,25,125,227,65,91,293,172,206,195,147,63,70,132,272,152,115,86,271,66,235,273,188,185,117,101,80,264,199,241,174,153,282,296,82,126,19,124,211,134,0,114,178,221,240,59,255,61,228,196,43,263,28,298,102,270,119,67,182,180,34,135,2,252,229,98,8,190,163,192,150,113,253,27,33,164,50,231,181,160,224,220,104,123,62]","arrowleft","0","0","90","300","[""0071_N0300_K0090_CLIQUE"",""0031_N0300_K0090_NOCLIQUE""]","",""
"","","","","","audio-keyboard-response","50","576425","0.0-48.1-0.1-1.1","","null","audio_feedback/shuffles/shuffle01.mp3","null","","","0","0","90","300","[""0071_N0300_K0090_CLIQUE"",""0031_N0300_K0090_NOCLIQUE""]","",""
"","","","","","canvas-keyboard-response","51","581044","0.0-48.2-0.2-0.2","","4345",""," ","[264,132,157,7,51,249,210,184,235,245,283,284,203,91,176,192,273,224,78,247,269,12,263,64,43,143,140,72,204,208,287,5,169,116,223,115,142,189,163,8,23,1,251,106,34,296,129,183,37,207,86,293,133,94,241,18,136,76,188,212,144,190,97,15,162,153,127,205,70,41,148,65,265,227,88,11,216,109,113,24,211,44,104,199,179,186,226,158,258,50,166,149,114,63,112,98,42,107,231,290,4,222,220,298,125,108,274,26,66,56,58,82,267,10,60,119,25,87,229,139,117,286,297,198,174,138,167,29,55,74,236,180,261,30,230,243,59,239,0,120,268,254,181,255,73,161,219,295,61,291,40,22,218,238,277,134,213,53,103,232,118,278,145,266,187,289,146,28,202,168,105,81,250,275,259,197,67,17,279,248,237,14,6,45,292,206,27,54,35,276,36,20,33,270,100,49,102,124,19,159,272,225,39,228,135,260,172,294,84,38,96,77,194,244,48,128,121,130,171,147,137,47,170,152,68,285,155,182,201,154,9,288,242,191,195,32,215,126,165,262,57,83,131,21,271,234,111,62,164,80,99,221,3,233,160,217,282,252,2,246,240,178,214,177,256,299,209,156,110,79,93,193,95,175,173,85,281,253,92,280,75,257,123,16,13,196,101,31,185,89,71,46,141,200,90,69,150,122,151,52]","arrowleft","0","0","90","300","[""0071_N0300_K0090_CLIQUE"",""0031_N0300_K0090_NOCLIQUE""]","",""
"","","","","","audio-keyboard-response","52","581703","0.0-48.2-0.2-1.2","","null","audio_feedback/shuffles/shuffle01.mp3","null","","","0","0","90","300","[""0071_N0300_K0090_CLIQUE"",""0031_N0300_K0090_NOCLIQUE""]","",""
"","","","","","canvas-keyboard-response","53","584804","0.0-48.3-0.3-0.3","","2823",""," ","[283,254,88,48,117,140,257,122,170,19,284,247,294,29,121,172,131,201,249,16,211,9,68,197,118,124,271,180,241,123,196,106,22,113,145,129,160,179,220,92,163,64,136,230,108,127,70,215,173,23,54,41,255,285,253,282,12,194,132,30,120,143,256,292,119,138,280,251,105,144,4,231,125,222,69,27,2,85,209,245,289,286,203,244,281,158,5,174,25,164,35,190,76,46,225,186,171,250,157,150,83,291,58,183,218,15,146,147,200,278,240,39,232,51,233,86,45,149,258,217,82,178,36,266,81,279,269,260,169,116,52,75,77,13,115,103,6,32,89,20,275,53,10,184,84,1,80,268,188,198,206,62,192,8,130,47,270,152,101,277,96,126,182,296,137,204,181,212,207,104,264,141,102,21,0,261,7,79,63,202,187,297,243,3,38,139,57,293,213,109,248,59,56,71,107,287,148,274,74,154,24,176,153,40,288,162,28,276,263,166,205,191,114,55,236,189,221,134,66,128,246,33,199,94,17,234,216,98,238,262,44,161,99,159,61,26,299,219,227,110,175,224,195,112,65,228,165,87,177,67,95,49,210,290,265,73,208,111,298,142,14,135,93,90,31,223,50,242,229,259,43,267,18,295,167,156,34,239,78,185,60,37,273,100,235,97,226,252,214,272,91,168,155,237,72,11,193,151,133,42]","arrowleft","0","0","90","300","[""0071_N0300_K0090_CLIQUE"",""0031_N0300_K0090_NOCLIQUE""]","",""
"","","","","","audio-keyboard-response","54","585462","0.0-48.3-0.3-1.3","","null","audio_feedback/shuffles/shuffle01.mp3","null","","","0","0","90","300","[""0071_N0300_K0090_CLIQUE"",""0031_N0300_K0090_NOCLIQUE""]","",""
"","","","","","canvas-keyboard-response","55","589331","0.0-48.4-0.4-0.4","","3590","","arrowleft","[279,182,92,32,94,135,4,75,164,107,197,126,116,18,252,162,186,47,70,149,177,85,67,238,109,174,168,219,121,200,163,165,245,204,192,84,285,24,60,258,146,237,232,205,35,266,151,220,244,170,292,225,154,127,124,90,120,249,277,139,62,123,97,158,7,52,89,299,17,93,289,23,140,222,255,240,21,206,191,281,3,282,290,208,270,259,261,129,114,118,227,61,217,43,19,231,275,181,136,119,13,178,56,198,248,193,271,27,110,83,246,99,95,6,226,218,169,106,66,212,98,166,130,55,180,214,68,41,128,134,253,46,137,101,0,12,296,14,254,242,74,185,257,31,284,263,79,221,195,273,216,1,171,64,147,276,115,103,236,73,286,88,28,175,184,230,272,295,264,152,287,235,167,20,241,213,250,176,215,159,233,132,40,102,268,199,108,8,161,155,33,260,72,265,288,141,247,297,160,111,96,209,36,117,179,157,51,267,58,228,63,138,76,203,37,187,207,274,298,71,150,112,100,251,22,143,9,229,144,291,283,269,86,53,145,78,113,10,256,196,30,54,69,57,77,202,201,183,48,280,211,50,133,82,25,44,210,80,91,172,153,188,156,173,42,224,16,34,81,190,262,65,293,194,131,87,125,223,234,59,122,189,5,104,15,11,243,38,239,45,105,2,278,26,294,49,142,148,29,39]","arrowleft","0","0","90","300","[""0071_N0300_K0090_CLIQUE"",""0031_N0300_K0090_NOCLIQUE""]","","true"
"","","","","","audio-keyboard-response","56","589825","0.0-48.4-0.4-1.4","","null","audio_feedback/right/coin01.mp3","null","","","0","0","90","300","[""0071_N0300_K0090_CLIQUE"",""0031_N0300_K0090_NOCLIQUE""]","",""
"","","","","","canvas-keyboard-response","57","597331","0.0-49.0-0.0-0.0","","7222",""," ","[63,286,170,146,65,142,95,254,241,90,214,191,218,37,227,105,43,285,150,139,137,249,17,134,97,77,164,101,163,70,299,42,287,54,197,232,28,124,179,87,219,30,228,200,252,41,261,7,74,107,29,207,138,118,144,55,46,253,282,250,278,158,258,16,38,199,8,132,182,283,136,168,145,52,183,190,49,156,226,82,26,11,211,208,296,242,27,284,235,221,128,61,20,291,259,140,222,117,187,133,290,72,103,274,71,50,173,35,266,160,176,256,216,196,141,121,112,120,195,143,245,175,205,236,203,193,48,4,19,262,31,174,59,194,298,12,5,181,96,81,263,275,33,15,201,167,272,153,84,248,98,57,40,161,189,268,100,119,0,172,79,83,80,93,91,34,114,237,180,131,135,225,6,110,154,271,289,126,113,148,229,202,58,23,123,288,251,69,159,260,122,257,21,68,166,89,130,220,171,280,297,184,217,162,108,239,106,25,147,223,295,210,36,206,244,149,238,209,92,230,157,24,155,109,267,115,129,185,1,102,66,246,76,177,243,192,64,73,294,270,13,293,255,224,99,247,53,39,231,56,22,18,234,151,269,213,265,78,204,94,215,169,125,165,116,14,86,212,51,276,111,44,85,188,9,104,45,240,75,60,88,178,264,233,3,152,292,2,47,279,277,281,10,67,62,127,198,273,32,186]","arrowleft","0","1","90","300","[""0026_N0300_K0090_CLIQUE"",""0001_N0300_K0090_NOCLIQUE""]","",""
"","","","","","audio-keyboard-response","58","597991","0.0-49.0-0.0-1.0","","null","audio_feedback/shuffles/shuffle01.mp3","null","","","0","1","90","300","[""0026_N0300_K0090_CLIQUE"",""0001_N0300_K0090_NOCLIQUE""]","",""
"","","","","","canvas-keyboard-response","59","599959","0.0-49.1-0.1-0.1","","1690",""," ","[70,52,272,50,135,299,246,147,111,129,289,241,95,107,252,283,275,34,2,37,207,20,265,58,184,26,15,267,126,148,292,68,198,264,191,121,221,263,75,92,25,5,156,171,11,113,295,239,276,90,22,235,84,178,29,212,112,109,215,74,18,103,64,63,214,115,101,189,193,185,284,262,219,44,237,100,176,217,163,218,270,173,96,209,43,61,249,116,168,38,223,120,86,144,146,245,206,91,211,138,177,155,224,131,36,282,94,71,190,13,60,89,118,41,280,102,228,231,28,188,254,281,238,105,186,158,159,204,151,273,99,210,125,240,80,1,133,134,181,39,139,23,175,213,110,199,65,229,222,290,277,169,208,259,258,234,180,51,260,88,288,42,32,205,141,202,220,153,122,76,132,57,183,53,49,197,104,287,233,119,9,98,83,149,130,255,154,97,269,227,14,21,203,257,73,296,271,232,187,286,19,253,67,172,266,200,79,298,291,4,128,0,285,145,142,31,161,7,167,179,72,108,82,174,16,201,182,114,136,66,3,152,123,24,230,170,244,87,6,10,40,297,150,162,243,56,143,77,251,226,294,27,93,54,48,160,46,106,261,55,192,45,248,225,124,216,12,35,117,33,165,47,62,195,78,194,268,8,196,85,256,166,30,247,140,81,164,236,17,278,137,59,250,293,242,127,279,274,69,157]","arrowleft","0","1","90","300","[""0026_N0300_K0090_CLIQUE"",""0001_N0300_K0090_NOCLIQUE""]","",""
"","","","","","audio-keyboard-response","60","600612","0.0-49.1-0.1-1.1","","null","audio_feedback/shuffles/shuffle01.mp3","null","","","0","1","90","300","[""0026_N0300_K0090_CLIQUE"",""0001_N0300_K0090_NOCLIQUE""]","",""
"","","","","","canvas-keyboard-response","61","604243","0.0-49.2-0.2-0.2","","3356","","arrowleft","[70,170,173,250,41,123,195,26,88,14,278,8,220,124,108,172,62,179,234,95,125,75,50,228,16,80,254,111,38,0,84,58,29,119,177,107,109,227,261,87,201,166,31,72,142,154,206,225,10,140,40,207,96,280,128,262,49,263,112,233,249,131,241,152,43,53,83,200,258,209,264,17,213,46,159,223,34,204,149,277,237,265,133,106,221,44,21,256,215,163,178,203,192,146,283,180,216,89,235,15,151,3,253,230,100,252,74,42,176,28,139,86,55,193,255,143,270,214,92,99,194,121,132,157,114,164,232,91,137,284,64,198,269,260,59,174,199,183,251,113,76,7,144,276,279,156,257,187,247,167,239,217,292,79,266,18,268,36,185,197,78,94,102,168,160,224,291,243,153,97,134,117,271,25,290,130,259,101,219,120,150,63,122,175,110,129,82,222,275,73,248,226,66,85,211,45,52,2,202,127,61,293,274,289,115,286,138,47,11,105,12,296,273,116,229,37,155,148,4,245,104,6,169,20,281,147,57,165,32,5,135,1,126,90,30,236,65,67,145,182,196,298,51,39,244,69,282,190,9,188,231,162,60,181,56,294,103,118,299,48,272,191,205,288,246,81,171,23,210,285,19,141,33,208,98,212,161,295,68,13,54,158,77,189,24,238,35,240,184,218,71,297,242,186,27,136,267,22,93,287]","arrowleft","0","1","90","300","[""0026_N0300_K0090_CLIQUE"",""0001_N0300_K0090_NOCLIQUE""]","","true"
"","","","","","audio-keyboard-response","62","604742","0.0-49.2-0.2-1.2","","null","audio_feedback/right/coin01.mp3","null","","","0","1","90","300","[""0026_N0300_K0090_CLIQUE"",""0001_N0300_K0090_NOCLIQUE""]","",""
"","","","","","canvas-keyboard-response","63","607219","0.0-50.0-0.0-0.0","","2199",""," ","[13,270,48,255,42,272,86,133,35,189,105,107,158,228,67,69,196,247,246,186,110,207,231,268,79,263,0,224,4,275,76,164,217,9,21,5,277,91,39,201,46,146,240,134,143,177,220,195,27,292,126,25,251,200,55,206,114,184,221,229,109,57,52,232,138,279,187,156,95,60,136,205,99,190,157,62,33,93,140,63,180,38,175,50,250,58,29,152,204,47,121,159,148,176,24,219,43,103,249,202,223,118,18,225,11,168,166,147,142,239,213,264,77,88,208,243,286,14,181,169,44,94,167,267,82,45,16,237,215,234,8,150,83,242,197,104,288,287,65,265,227,1,111,84,192,127,258,278,87,106,68,248,203,294,81,97,96,285,64,36,254,37,298,281,273,280,124,266,31,92,226,295,149,141,125,214,235,154,291,199,262,32,75,216,61,182,59,256,130,80,283,117,129,284,10,12,163,51,297,98,160,30,28,193,113,115,259,41,74,185,132,261,131,102,179,151,153,101,194,78,296,230,137,22,112,290,26,119,100,170,271,162,15,72,116,218,135,173,293,128,53,120,212,174,40,19,241,85,253,260,155,209,144,198,89,90,172,6,171,276,210,211,269,188,245,165,222,108,17,238,139,178,54,71,122,274,145,3,56,233,20,257,123,183,73,49,23,252,66,7,2,236,282,289,34,244,70,299,191,161]","arrowleft","0","2","80","300","[""0038_N0300_K0080_CLIQUE"",""0042_N0300_K0080_NOCLIQUE""]","",""
"","","","","","audio-keyboard-response","64","607867","0.0-50.0-0.0-1.0","","null","audio_feedback/shuffles/shuffle01.mp3","null","","","0","2","80","300","[""0038_N0300_K0080_CLIQUE"",""0042_N0300_K0080_NOCLIQUE""]","",""
"","","","","","canvas-keyboard-response","65","611507","0.0-50.1-0.1-0.1","","3362",""," ","[94,83,38,118,18,284,272,122,39,42,136,199,198,145,221,33,204,100,255,269,7,9,117,257,101,161,191,150,120,96,231,155,263,195,281,209,78,183,133,153,253,3,224,139,152,165,287,105,286,192,296,299,216,262,188,163,235,259,151,243,251,111,37,203,256,19,79,180,62,237,58,282,68,71,91,51,211,268,169,227,240,219,21,280,283,157,273,159,60,12,194,170,119,48,63,247,84,222,260,158,132,59,34,285,252,156,14,112,56,242,176,109,46,114,29,212,86,64,154,182,104,179,135,277,249,168,87,116,160,110,98,69,193,75,298,130,164,67,292,121,124,0,25,127,44,197,278,76,173,35,293,22,8,228,167,77,266,190,73,129,201,123,66,233,36,254,85,275,187,258,181,103,274,172,149,27,138,4,230,17,225,215,50,186,205,208,174,189,291,82,108,175,106,295,5,137,61,264,88,207,214,90,99,20,81,16,70,271,72,147,30,26,294,148,265,234,238,52,177,239,128,97,226,290,54,143,24,178,93,80,102,28,185,131,41,241,134,217,279,53,15,261,92,107,246,229,31,113,141,210,202,74,13,10,40,297,144,115,142,125,23,57,49,270,248,89,213,95,288,1,218,250,32,65,140,126,11,166,206,232,289,43,200,6,267,184,45,236,162,196,47,223,55,245,244,146,2,276,220,171]","arrowleft","0","2","80","300","[""0038_N0300_K0080_CLIQUE"",""0042_N0300_K0080_NOCLIQUE""]","",""
"","","","","","audio-keyboard-response","66","612166","0.0-50.1-0.1-1.1","","null","audio_feedback/shuffles/shuffle01.mp3","null","","","0","2","80","300","[""0038_N0300_K0080_CLIQUE"",""0042_N0300_K0080_NOCLIQUE""]","",""
"","","","","","canvas-keyboard-response","67","615700","0.0-50.2-0.2-0.2","","3255",""," ","[176,222,32,219,63,87,156,119,209,296,11,151,117,130,216,91,231,206,256,67,232,15,103,147,158,73,69,9,201,120,199,273,293,89,46,217,75,31,175,78,248,272,137,129,247,45,47,26,12,29,41,134,298,64,66,204,177,126,128,100,6,157,148,230,17,261,249,61,290,167,0,282,284,259,125,233,82,239,165,25,198,187,188,192,168,271,54,237,140,122,212,5,40,186,108,180,274,171,59,79,13,161,8,38,86,252,52,77,190,21,270,113,283,39,145,112,49,202,35,162,80,150,84,94,93,285,71,124,257,135,289,266,83,109,14,23,118,115,213,269,48,57,183,154,72,85,127,218,200,116,132,70,260,174,53,281,254,184,288,265,101,107,111,178,121,210,215,74,228,194,166,242,243,58,131,191,163,258,149,299,229,18,179,287,104,44,205,42,114,193,246,10,106,195,7,95,62,76,267,294,159,279,33,139,142,1,275,102,155,244,236,278,98,3,141,277,90,189,245,224,280,37,297,240,250,60,28,160,144,4,207,143,214,92,234,241,185,182,27,227,19,173,164,36,55,225,238,253,22,169,153,97,196,197,172,99,138,235,220,264,181,268,30,65,96,133,152,221,81,262,203,110,50,2,170,88,146,286,223,105,211,20,136,68,51,291,292,24,295,251,226,43,16,34,123,276,56,263,255,208]","arrowleft","0","2","80","300","[""0038_N0300_K0080_CLIQUE"",""0042_N0300_K0080_NOCLIQUE""]","",""
"","","","","","audio-keyboard-response","68","616349","0.0-50.2-0.2-1.2","","null","audio_feedback/shuffles/shuffle01.mp3","null","","","0","2","80","300","[""0038_N0300_K0080_CLIQUE"",""0042_N0300_K0080_NOCLIQUE""]","",""
"","","","","","canvas-keyboard-response","69","619827","0.0-50.3-0.3-0.3","","3196",""," ","[252,219,159,116,152,102,4,157,164,29,127,99,220,68,69,2,51,153,213,210,202,189,14,119,36,65,256,231,272,30,287,149,243,52,67,103,115,192,41,295,70,186,177,270,6,228,18,193,173,214,32,3,42,83,57,215,95,93,180,114,183,274,0,278,178,143,101,200,217,188,244,154,201,133,280,123,291,168,197,285,257,224,238,263,56,194,260,234,55,226,145,233,122,100,239,74,218,81,191,250,66,59,15,246,253,176,112,26,71,207,258,282,261,181,84,155,298,277,166,179,58,105,33,48,241,11,242,46,165,86,223,205,251,236,146,104,144,63,163,290,128,247,22,139,255,196,221,281,34,158,111,289,296,23,162,135,5,148,85,124,141,198,54,248,13,97,240,88,299,109,113,254,73,266,140,182,161,96,132,156,24,204,75,7,80,271,292,222,92,12,21,232,19,76,8,121,117,288,87,106,265,169,209,286,216,269,38,167,64,187,79,264,90,78,195,107,53,150,170,147,229,190,273,91,259,129,284,136,267,245,27,137,40,160,9,61,225,293,276,20,60,43,212,125,208,249,45,262,268,138,25,203,185,206,175,174,10,50,77,118,98,16,35,31,283,184,279,72,94,110,130,171,151,172,37,134,17,275,44,142,47,126,120,297,62,235,227,294,237,39,89,49,199,28,1,230,131,82,108,211]","arrowleft","0","2","80","300","[""0038_N0300_K0080_CLIQUE"",""0042_N0300_K0080_NOCLIQUE""]","",""
"","","","","","audio-keyboard-response","70","620484","0.0-50.3-0.3-1.3","","null","audio_feedback/shuffles/shuffle01.mp3","null","","","0","2","80","300","[""0038_N0300_K0080_CLIQUE"",""0042_N0300_K0080_NOCLIQUE""]","",""
"","","","","","canvas-keyboard-response","71","623076","0.0-50.4-0.4-0.4","","2311","","arrowleft","[145,117,242,96,44,8,159,211,279,248,119,191,79,287,190,12,225,202,124,100,121,139,229,69,94,265,24,4,256,270,282,183,148,19,254,29,260,179,192,76,216,263,180,210,160,250,208,240,26,7,93,84,284,274,269,36,230,246,133,167,103,1,236,97,166,63,89,220,213,65,20,239,109,161,218,82,58,99,78,95,72,132,86,193,14,81,10,54,238,253,53,273,90,122,178,62,101,102,296,237,177,77,147,87,125,199,80,47,170,60,15,185,251,13,266,71,126,197,203,164,286,136,156,289,135,262,40,5,106,35,217,34,187,137,114,146,249,209,111,23,259,52,169,141,271,129,165,85,92,276,6,66,105,104,16,207,290,158,120,181,198,142,189,231,39,235,57,162,150,258,288,221,115,299,59,224,200,144,168,149,227,30,245,157,252,17,131,128,297,134,33,215,186,42,46,257,143,113,123,298,37,267,275,0,151,155,174,73,112,138,195,67,107,61,22,234,68,268,38,264,127,272,56,212,291,171,295,140,153,130,223,294,74,154,32,116,75,232,205,49,285,278,50,175,98,2,31,196,41,11,204,206,243,28,45,88,222,108,188,247,219,64,83,226,182,283,214,91,51,184,25,43,293,228,173,241,21,244,70,48,172,281,255,3,261,27,176,194,163,280,152,233,110,118,277,9,292,18,55,201]","arrowleft","0","2","80","300","[""0038_N0300_K0080_CLIQUE"",""0042_N0300_K0080_NOCLIQUE""]","","true"
"","","","","","audio-keyboard-response","72","623568","0.0-50.4-0.4-1.4","","null","audio_feedback/right/coin01.mp3","null","","","0","2","80","300","[""0038_N0300_K0080_CLIQUE"",""0042_N0300_K0080_NOCLIQUE""]","",""
"","","","","","canvas-keyboard-response","73","628467","0.0-51.0-0.0-0.0","","4623",""," ","[8,292,34,132,27,121,56,41,183,283,171,190,128,276,133,130,191,101,22,77,113,108,215,36,3,51,49,0,194,123,131,4,48,254,98,159,222,236,75,88,124,228,154,280,231,58,18,192,20,227,259,64,234,105,60,247,201,57,119,277,279,282,94,271,15,29,256,139,200,217,146,265,109,184,9,157,287,204,207,290,137,66,103,267,220,173,209,46,31,135,252,299,251,268,89,116,266,248,107,214,144,193,172,12,203,230,188,212,223,189,293,65,232,52,6,47,79,70,289,164,54,17,226,85,96,233,269,177,237,273,218,185,288,257,81,23,260,161,261,275,235,90,50,180,80,182,127,63,84,245,68,122,150,145,97,61,39,83,14,1,114,120,163,13,78,196,216,71,221,156,44,138,37,241,43,294,295,240,286,140,125,92,141,168,93,91,187,281,242,166,213,297,272,143,5,162,149,10,126,110,274,158,26,169,106,16,115,87,250,35,112,147,243,25,100,42,205,118,33,142,202,186,59,111,246,74,258,255,285,73,199,179,262,55,174,244,210,2,136,219,45,249,238,270,129,263,178,32,160,284,7,155,152,195,176,99,296,67,28,82,151,211,208,198,21,167,298,95,165,224,19,102,72,239,76,206,53,24,253,30,278,264,69,148,104,62,153,225,181,170,11,197,117,134,86,229,291,40,175,38]","arrowright","0","3","80","300","[""0063_N0300_K0080_NOCLIQUE"",""0071_N0300_K0080_CLIQUE""]","",""
"","","","","","audio-keyboard-response","74","629125","0.0-51.0-0.0-1.0","","null","audio_feedback/shuffles/shuffle01.mp3","null","","","0","3","80","300","[""0063_N0300_K0080_NOCLIQUE"",""0071_N0300_K0080_CLIQUE""]","",""
"","","","","","canvas-keyboard-response","75","634355","0.0-51.1-0.1-0.1","","4927",""," ","[165,188,33,150,160,73,178,66,2,283,60,143,200,36,142,27,149,32,21,141,82,192,113,230,252,180,286,130,43,168,108,187,6,78,139,57,294,49,202,217,245,212,263,91,104,54,196,17,8,51,268,248,227,29,46,265,170,254,229,266,218,126,278,147,85,22,5,131,190,14,270,277,219,99,242,288,19,81,274,211,102,204,203,224,35,42,295,101,166,181,40,53,75,250,31,64,25,154,4,279,136,87,182,41,207,264,208,184,59,292,206,253,276,28,10,45,169,280,9,26,198,112,237,3,234,83,140,162,251,177,173,20,65,122,118,194,132,226,174,152,201,77,223,128,158,189,214,16,125,235,255,271,228,232,80,186,179,37,293,262,161,62,133,145,0,123,209,199,299,105,157,67,220,120,221,289,231,216,63,290,284,114,30,239,50,70,93,144,55,11,38,23,7,88,275,84,269,58,159,256,175,185,106,56,89,273,243,68,257,146,137,291,153,225,76,34,18,155,135,97,100,79,109,197,164,287,272,191,138,210,247,215,74,167,260,95,92,103,241,259,298,24,116,39,61,129,47,261,124,134,121,222,267,285,249,163,151,193,282,111,281,238,297,117,44,12,13,71,86,156,107,96,48,233,98,213,72,115,52,246,15,296,110,240,171,183,172,119,94,205,1,148,176,244,236,90,258,127,195,69]","arrowright","0","3","80","300","[""0063_N0300_K0080_NOCLIQUE"",""0071_N0300_K0080_CLIQUE""]","",""
"","","","","","audio-keyboard-response","76","635014","0.0-51.1-0.1-1.1","","null","audio_feedback/shuffles/shuffle01.mp3","null","","","0","3","80","300","[""0063_N0300_K0080_NOCLIQUE"",""0071_N0300_K0080_CLIQUE""]","",""
"","","","","","canvas-keyboard-response","77","636870","0.0-51.2-0.2-0.2","","1579","","arrowright","[107,182,115,76,36,217,166,52,142,127,194,30,95,91,218,214,124,112,299,157,26,132,282,189,294,262,25,49,141,46,156,19,41,184,147,60,200,139,74,205,154,148,229,252,84,66,17,274,284,223,20,296,130,192,251,149,227,61,276,97,239,256,255,206,10,275,272,40,215,29,187,134,195,188,23,128,254,83,212,169,32,165,250,207,82,99,0,68,94,236,86,96,69,72,59,196,193,286,261,113,118,131,13,27,73,129,79,28,144,247,110,243,253,4,298,175,267,235,280,159,170,171,81,8,136,277,177,104,15,22,55,146,233,77,288,158,90,101,9,210,258,191,150,290,204,137,179,64,289,34,93,143,178,186,53,78,126,168,201,234,293,220,87,241,209,7,242,248,2,259,109,44,173,51,163,62,102,125,295,57,31,63,164,133,123,6,181,260,221,266,21,270,33,153,269,47,88,160,240,231,213,237,226,16,100,45,292,135,54,121,257,216,122,279,219,273,271,11,208,43,116,48,12,18,145,50,75,140,283,117,42,297,89,167,180,92,35,176,1,232,246,225,291,111,185,190,103,3,58,98,245,278,249,238,70,85,56,37,119,106,264,161,174,285,39,183,114,71,281,268,287,211,203,162,198,244,5,265,228,14,105,65,120,230,138,151,222,80,202,197,108,67,38,152,199,263,224,172,24,155]","arrowright","0","3","80","300","[""0063_N0300_K0080_NOCLIQUE"",""0071_N0300_K0080_CLIQUE""]","","true"
"","","","","","audio-keyboard-response","78","637359","0.0-51.2-0.2-1.2","","null","audio_feedback/right/coin01.mp3","null","","","0","3","80","300","[""0063_N0300_K0080_NOCLIQUE"",""0071_N0300_K0080_CLIQUE""]","",""
"","","","","","canvas-keyboard-response","79","642244","0.0-52.0-0.0-0.0","","4603",""," ","[180,72,52,202,77,168,167,40,69,164,165,274,134,81,183,175,14,295,161,219,143,192,204,83,230,239,116,86,186,201,141,114,120,13,128,5,111,75,298,28,6,84,244,41,18,271,215,9,108,191,198,29,237,137,264,258,193,234,55,45,218,242,269,115,216,181,33,171,272,96,148,266,97,277,214,196,190,145,91,24,162,90,105,71,135,293,240,54,70,212,15,43,225,247,263,23,276,243,35,117,267,7,153,64,147,169,94,144,60,156,257,268,256,11,31,12,195,136,282,178,68,203,222,139,27,47,106,285,146,130,66,252,231,65,124,22,188,238,228,262,275,74,229,129,3,189,159,100,95,157,233,34,284,299,61,121,133,291,131,297,220,76,160,223,232,113,185,142,260,177,80,62,85,138,270,209,206,207,123,154,249,265,173,250,93,32,158,283,226,200,49,132,166,50,99,110,118,251,25,163,98,246,89,287,1,184,37,48,51,245,151,149,38,26,289,10,63,224,255,21,227,254,102,210,292,294,46,199,152,248,56,286,221,197,8,88,125,211,92,58,53,42,290,78,176,217,20,172,109,182,296,280,87,241,79,57,259,236,101,59,278,73,213,140,119,0,104,261,281,19,187,2,194,82,126,122,127,205,235,279,36,170,208,103,150,273,16,4,112,39,44,67,107,155,179,17,288,174,253,30]","arrowright","0","4","70","300","[""0074_N0300_K0070_NOCLIQUE"",""0033_N0300_K0070_CLIQUE""]","",""
"","","","","","audio-keyboard-response","80","642902","0.0-52.0-0.0-1.0","","null","audio_feedback/shuffles/shuffle01.mp3","null","","","0","4","70","300","[""0074_N0300_K0070_NOCLIQUE"",""0033_N0300_K0070_CLIQUE""]","",""
"","","","","","canvas-keyboard-response","81","645315","0.0-52.1-0.1-0.1","","2126",""," ","[54,237,207,26,185,74,213,87,101,221,236,116,112,50,192,285,259,214,161,282,287,209,189,188,61,145,11,246,168,49,261,142,190,277,55,117,127,205,217,298,238,98,163,25,72,7,295,253,263,6,226,118,146,200,120,186,91,274,52,194,65,56,227,160,17,51,110,293,57,292,140,68,210,269,159,59,75,291,53,22,275,247,228,271,82,123,284,212,94,283,81,137,177,178,46,278,24,147,84,21,198,156,71,18,88,170,223,99,154,23,272,78,219,245,58,158,129,27,119,225,268,150,152,299,173,70,265,184,122,179,262,267,107,16,138,33,199,183,141,45,41,8,171,257,273,249,19,64,143,222,252,77,254,95,281,121,294,76,182,289,105,20,0,135,296,108,83,266,153,43,130,1,155,100,125,102,255,211,229,276,144,234,36,201,235,85,232,157,176,67,10,3,151,248,162,38,40,132,133,124,35,106,208,290,224,258,288,286,37,148,15,34,29,181,175,62,92,260,241,242,93,80,139,39,131,113,191,97,79,30,218,69,48,13,63,180,128,231,251,167,14,73,90,270,169,264,89,114,115,104,230,31,60,250,244,204,2,32,297,239,164,136,172,149,66,240,233,202,195,187,216,111,86,4,256,103,166,215,197,44,220,174,165,203,280,126,5,9,12,279,42,196,134,243,96,47,206,193,28,109]","arrowright","0","4","70","300","[""0074_N0300_K0070_NOCLIQUE"",""0033_N0300_K0070_CLIQUE""]","",""
"","","","","","audio-keyboard-response","82","645975","0.0-52.1-0.1-1.1","","null","audio_feedback/shuffles/shuffle01.mp3","null","","","0","4","70","300","[""0074_N0300_K0070_NOCLIQUE"",""0033_N0300_K0070_CLIQUE""]","",""
"","","","","","canvas-keyboard-response","83","649251","0.0-52.2-0.2-0.2","","2995",""," ","[81,215,37,165,237,45,107,82,88,119,105,69,47,292,265,117,228,299,23,73,190,162,189,167,46,131,103,186,106,244,38,42,298,49,134,183,63,211,98,202,278,52,39,56,285,286,85,72,118,0,247,226,294,120,155,6,133,243,168,8,147,92,29,153,173,116,34,227,61,138,48,86,129,12,65,200,206,7,132,26,15,76,149,295,221,111,170,241,156,217,157,238,212,195,152,236,290,41,171,297,91,218,123,291,201,240,140,68,245,178,99,164,196,128,31,84,108,270,96,268,3,256,83,71,154,274,169,253,33,122,296,184,175,272,121,187,35,77,205,124,14,54,258,101,159,179,51,142,145,18,50,252,5,66,4,74,264,89,197,27,266,214,289,293,90,233,21,102,273,213,75,130,199,239,126,194,251,232,225,166,93,220,20,2,249,137,288,11,25,30,279,44,36,87,235,13,53,267,22,177,255,260,180,188,280,246,97,19,57,163,16,64,135,78,259,115,277,146,161,250,283,70,144,261,224,198,139,127,193,125,257,10,95,158,40,229,219,271,210,104,172,222,109,80,275,287,174,269,263,230,192,160,276,67,209,136,182,94,150,79,60,151,191,113,203,284,58,281,282,148,223,100,114,141,207,208,32,59,254,262,28,43,176,110,231,248,24,9,181,185,17,242,143,204,112,216,1,62,234,55]","arrowright","0","4","70","300","[""0074_N0300_K0070_NOCLIQUE"",""0033_N0300_K0070_CLIQUE""]","",""
"","","","","","audio-keyboard-response","84","649910","0.0-52.2-0.2-1.2","","null","audio_feedback/shuffles/shuffle01.mp3","null","","","0","4","70","300","[""0074_N0300_K0070_NOCLIQUE"",""0033_N0300_K0070_CLIQUE""]","",""
"","","","","","canvas-keyboard-response","85","651923","0.0-52.3-0.3-0.3","","1730","","arrowright","[260,117,221,213,286,196,60,24,164,92,240,160,149,56,223,55,93,34,194,225,263,261,215,168,37,125,170,13,144,159,85,173,12,11,9,119,63,197,76,32,231,273,74,21,7,219,102,127,288,186,26,234,249,298,266,202,203,136,287,96,252,267,294,246,31,148,166,2,110,91,195,28,176,89,122,10,257,297,1,292,5,182,129,123,108,23,254,169,226,52,282,206,281,278,77,75,181,295,130,233,54,58,124,87,80,205,171,20,106,214,99,35,224,204,94,238,188,4,38,83,27,285,40,19,274,61,84,210,79,258,17,228,154,200,66,113,153,244,50,44,189,45,115,178,49,155,46,107,216,146,187,236,42,100,183,201,62,293,57,296,235,193,151,134,78,135,95,30,43,41,3,190,29,299,277,51,143,112,82,268,227,265,150,90,251,259,199,97,247,36,243,220,198,262,86,245,139,81,174,163,191,271,103,222,217,156,165,140,239,280,71,289,272,275,157,16,126,65,121,253,179,101,209,116,283,72,158,212,291,185,132,105,279,229,18,73,167,276,237,250,33,264,88,256,142,133,6,118,120,70,290,67,211,145,39,192,98,241,162,68,184,22,53,64,8,147,248,0,111,175,25,207,141,270,14,104,48,255,59,128,269,161,138,180,242,137,177,208,230,172,284,15,114,218,47,152,232,131,69,109]","arrowright","0","4","70","300","[""0074_N0300_K0070_NOCLIQUE"",""0033_N0300_K0070_CLIQUE""]","","true"
"","","","","","audio-keyboard-response","86","652415","0.0-52.3-0.3-1.3","","null","audio_feedback/right/coin01.mp3","null","","","0","4","70","300","[""0074_N0300_K0070_NOCLIQUE"",""0033_N0300_K0070_CLIQUE""]","",""
"","","","","","canvas-keyboard-response","87","655251","0.0-53.0-0.0-0.0","","2554",""," ","[131,117,179,14,163,68,113,189,51,233,279,217,7,256,238,107,37,63,216,49,128,151,252,170,153,6,255,34,208,4,259,25,81,86,263,112,41,174,35,146,101,98,299,56,47,75,71,241,181,132,143,148,69,70,141,121,110,275,94,96,124,73,127,261,209,165,62,105,5,135,291,169,33,16,58,265,247,160,95,36,80,176,97,223,42,64,177,82,144,22,27,54,236,184,183,50,214,230,207,224,57,206,283,267,294,272,65,268,109,162,38,278,155,92,44,191,250,29,249,130,290,156,3,115,171,154,187,119,222,248,284,178,60,89,152,273,99,31,213,13,253,229,198,102,106,1,269,100,45,243,139,39,280,257,297,142,103,288,167,28,0,134,147,231,266,166,26,298,193,145,111,226,48,245,140,221,186,15,84,150,118,157,281,161,126,23,227,74,210,159,204,200,196,274,9,108,271,137,83,78,211,292,258,164,61,202,173,67,188,289,254,46,66,17,276,197,244,287,59,239,182,168,215,19,195,192,285,203,40,293,21,232,262,12,205,122,225,116,114,212,120,88,218,190,219,18,53,85,277,136,87,240,270,180,228,138,251,43,282,125,24,172,133,8,158,242,104,234,264,90,79,246,237,129,286,2,260,220,149,20,296,77,52,55,194,11,295,76,30,32,201,123,10,235,175,185,91,199,72,93]","arrowleft","0","5","70","300","[""0065_N0300_K0070_CLIQUE"",""0079_N0300_K0070_NOCLIQUE""]","",""
"","","","","","audio-keyboard-response","88","655901","0.0-53.0-0.0-1.0","","null","audio_feedback/shuffles/shuffle01.mp3","null","","","0","5","70","300","[""0065_N0300_K0070_CLIQUE"",""0079_N0300_K0070_NOCLIQUE""]","",""
"","","","","","canvas-keyboard-response","89","657587","0.0-53.1-0.1-0.1","","1427",""," ","[3,287,122,233,117,135,229,49,113,51,19,100,10,217,143,153,231,111,27,64,281,263,258,175,211,269,37,74,219,107,13,160,48,199,92,59,73,293,264,161,298,295,56,166,18,195,288,204,7,116,249,266,105,289,189,148,246,98,68,180,292,91,29,155,276,69,197,235,140,104,28,40,208,210,87,244,274,31,134,52,255,163,154,110,54,286,202,183,21,248,273,77,112,257,254,8,82,90,216,118,261,71,145,114,65,147,239,201,46,234,205,60,139,185,14,170,30,125,80,158,238,270,115,144,106,228,169,6,129,285,225,177,20,236,190,213,196,26,33,200,150,79,84,253,128,224,95,16,223,103,124,70,101,278,17,277,4,283,198,88,58,191,72,76,284,50,0,120,173,34,172,93,5,108,96,149,291,296,174,268,119,168,250,214,35,62,194,109,220,11,227,260,193,132,275,184,83,15,176,267,203,226,23,252,47,188,1,2,182,272,245,242,280,81,259,55,25,156,265,271,43,222,192,186,232,157,78,299,53,243,218,162,230,38,142,247,171,133,12,137,102,262,89,297,127,282,131,167,151,24,237,187,45,97,209,146,212,86,66,39,22,240,121,85,181,141,279,164,99,215,294,206,241,126,179,251,221,75,178,44,130,63,159,42,165,67,32,9,152,207,36,123,41,57,256,94,290,61,138,136]","arrowleft","0","5","70","300","[""0065_N0300_K0070_CLIQUE"",""0079_N0300_K0070_NOCLIQUE""]","",""
"","","","","","audio-keyboard-response","90","658232","0.0-53.1-0.1-1.1","","null","audio_feedback/shuffles/shuffle01.mp3","null","","","0","5","70","300","[""0065_N0300_K0070_CLIQUE"",""0079_N0300_K0070_NOCLIQUE""]","",""
"","","","","","canvas-keyboard-response","91","660227","0.0-53.2-0.2-0.2","","1711","","arrowleft","[215,71,75,185,194,59,279,43,168,123,179,204,201,95,207,52,118,84,15,133,33,298,281,114,40,214,82,152,228,134,289,180,233,19,256,147,70,232,278,277,181,21,17,258,121,97,117,210,31,124,176,155,292,174,261,198,193,54,170,156,115,264,20,229,25,51,158,6,60,61,108,35,290,88,83,270,13,99,191,66,171,24,45,149,245,212,129,93,1,18,3,81,90,200,253,42,259,226,39,5,57,91,26,48,284,106,105,92,22,111,188,112,242,231,213,165,285,199,68,216,237,153,239,49,150,262,80,89,255,142,67,250,159,116,283,41,275,218,65,32,280,78,287,173,177,254,227,127,58,64,148,36,29,293,85,72,297,267,269,151,47,77,203,197,157,162,222,294,241,257,291,145,73,260,160,110,196,217,247,140,296,144,183,130,104,266,55,135,14,138,141,167,44,221,205,251,286,192,101,182,295,79,96,189,56,23,86,53,69,224,12,209,276,7,178,244,128,137,161,288,184,230,98,126,166,202,169,246,206,30,164,299,195,87,175,190,268,119,274,252,4,16,113,131,249,122,240,76,238,220,172,62,37,146,132,94,234,265,263,154,187,272,28,223,139,243,50,236,0,225,273,120,100,9,63,34,235,248,102,74,2,282,136,8,163,11,208,109,125,219,103,143,107,27,271,10,46,186,38,211]","arrowleft","0","5","70","300","[""0065_N0300_K0070_CLIQUE"",""0079_N0300_K0070_NOCLIQUE""]","","true"
"","","","","","audio-keyboard-response","92","660720","0.0-53.2-0.2-1.2","","null","audio_feedback/right/coin01.mp3","null","","","0","5","70","300","[""0065_N0300_K0070_CLIQUE"",""0079_N0300_K0070_NOCLIQUE""]","",""
"","","","","","canvas-keyboard-response","93","666243","0.0-54.0-0.0-0.0","","5232",""," ","[49,217,226,296,101,176,70,214,187,33,175,245,2,152,84,22,58,262,195,132,261,47,105,280,4,89,151,180,232,169,147,236,66,59,241,174,138,266,96,205,182,54,107,75,242,237,143,276,281,80,165,264,119,173,181,45,61,193,50,21,90,222,117,233,200,154,235,110,199,234,67,37,295,137,12,126,30,298,279,92,68,77,1,57,183,17,87,284,125,297,163,268,270,134,219,11,220,227,213,263,218,221,114,146,20,28,216,142,31,211,224,85,179,71,109,254,97,133,292,225,283,258,111,15,215,106,44,272,204,27,18,34,42,212,24,255,188,178,197,91,64,10,285,208,43,249,6,0,278,95,247,35,289,158,277,287,79,145,194,8,23,112,271,223,78,231,136,81,257,26,128,282,29,191,16,250,153,251,76,210,14,167,269,252,9,256,129,88,48,159,293,274,184,94,5,141,32,99,130,116,46,265,113,100,206,122,86,230,186,38,196,115,60,171,74,203,139,157,63,253,102,198,299,69,82,248,83,73,144,13,244,62,259,25,104,207,190,51,156,275,209,65,108,166,291,170,120,189,185,246,260,201,168,52,39,40,103,294,229,240,192,131,3,177,149,98,148,55,127,243,273,93,150,290,121,140,19,202,53,155,135,124,239,228,172,288,123,238,118,162,160,164,267,56,36,161,72,41,286,7]","arrowright","0","6","65","300","[""0096_N0300_K0065_NOCLIQUE"",""0001_N0300_K0065_CLIQUE""]","",""
"","","","","","audio-keyboard-response","94","666901","0.0-54.0-0.0-1.0","","null","audio_feedback/shuffles/shuffle01.mp3","null","","","0","6","65","300","[""0096_N0300_K0065_NOCLIQUE"",""0001_N0300_K0065_CLIQUE""]","",""
"","","","","","canvas-keyboard-response","95","669779","0.0-54.1-0.1-0.1","","2606",""," ","[45,169,32,241,48,183,42,59,296,248,130,89,122,211,60,116,68,266,115,293,231,142,207,18,213,268,2,152,210,132,33,220,147,135,194,263,161,34,49,133,198,193,222,95,172,54,149,283,173,163,90,190,150,287,235,209,155,158,208,214,20,137,139,4,281,286,53,187,215,13,12,160,94,79,185,83,26,114,261,232,239,25,199,108,57,180,269,264,10,118,255,159,262,124,230,74,6,205,290,297,225,61,148,63,120,237,67,84,7,134,87,203,224,91,19,249,81,189,128,99,175,16,164,66,72,256,24,162,176,97,170,14,217,181,131,212,23,105,44,299,244,8,265,219,69,121,37,246,126,58,62,9,171,182,157,242,21,36,113,15,295,272,202,221,178,154,292,284,186,153,223,166,77,174,47,227,197,27,35,191,277,273,144,41,55,56,136,179,226,76,100,196,106,206,82,111,247,278,71,31,195,70,165,80,127,259,146,107,22,188,201,143,73,289,110,50,200,129,38,294,0,28,52,245,279,3,125,271,104,298,51,101,140,267,260,141,233,234,92,145,253,243,274,240,216,204,11,29,64,75,43,85,282,39,236,168,250,98,40,252,167,103,192,285,229,254,78,17,65,251,30,184,93,275,258,86,288,123,228,218,88,138,5,112,257,280,109,102,119,156,151,270,291,117,276,238,46,96,1,177]","arrowright","0","6","65","300","[""0096_N0300_K0065_NOCLIQUE"",""0001_N0300_K0065_CLIQUE""]","",""
"","","","","","audio-keyboard-response","96","670438","0.0-54.1-0.1-1.1","","null","audio_feedback/shuffles/shuffle01.mp3","null","","","0","6","65","300","[""0096_N0300_K0065_NOCLIQUE"",""0001_N0300_K0065_CLIQUE""]","",""
"","","","","","canvas-keyboard-response","97","673715","0.0-54.2-0.2-0.2","","3008",""," ","[201,270,287,25,290,199,269,175,133,78,48,204,75,70,177,22,258,234,131,109,203,126,181,122,102,155,188,243,23,64,263,249,283,81,276,114,296,224,31,54,137,227,256,35,39,255,245,280,235,41,262,53,172,272,251,220,182,196,29,69,230,219,295,208,92,229,82,0,44,212,214,139,33,225,76,141,180,134,46,73,19,164,147,170,190,197,236,165,129,72,289,20,254,125,279,55,163,241,105,260,248,144,15,205,108,51,67,94,116,200,210,282,154,179,97,106,80,34,156,267,274,240,152,213,273,32,185,151,12,28,247,68,45,140,288,43,128,71,117,27,195,136,110,112,173,187,207,223,242,237,56,14,16,171,30,268,119,286,198,261,186,294,189,266,132,77,246,9,209,169,91,284,168,281,4,216,50,292,238,87,278,299,239,244,111,183,264,38,3,167,193,153,85,60,146,159,104,143,178,291,174,84,202,6,265,259,194,222,257,40,118,158,42,61,211,10,95,157,18,228,233,47,96,2,150,206,8,90,127,124,100,226,191,217,5,162,120,253,63,93,275,135,130,88,99,13,101,7,107,83,184,65,298,215,21,58,74,49,232,17,149,11,277,36,161,252,79,218,138,176,57,231,145,26,142,121,62,192,89,166,293,37,1,59,285,115,86,123,103,24,221,297,250,113,98,160,52,148,271,66]","arrowright","0","6","65","300","[""0096_N0300_K0065_NOCLIQUE"",""0001_N0300_K0065_CLIQUE""]","",""
"","","","","","audio-keyboard-response","98","674365","0.0-54.2-0.2-1.2","","null","audio_feedback/shuffles/shuffle01.mp3","null","","","0","6","65","300","[""0096_N0300_K0065_NOCLIQUE"",""0001_N0300_K0065_CLIQUE""]","",""
"","","","","","canvas-keyboard-response","99","677475","0.0-54.3-0.3-0.3","","2844",""," ","[77,142,68,193,83,150,175,112,47,179,271,162,186,122,65,267,51,215,89,218,123,190,99,163,223,158,279,91,246,256,151,127,166,207,2,205,165,149,233,87,124,20,257,21,32,146,281,240,245,85,227,289,294,183,102,104,59,133,222,94,224,113,195,230,41,206,189,55,79,212,168,40,16,232,120,178,239,38,167,56,297,225,185,196,136,118,293,276,9,134,140,19,286,202,264,181,101,220,126,58,119,228,203,174,130,226,80,164,208,29,273,98,4,172,235,100,251,292,64,250,17,244,141,115,84,23,187,86,109,152,145,177,241,236,262,160,219,275,28,288,231,299,125,298,252,261,210,253,270,234,197,44,129,148,75,259,266,243,171,198,43,161,70,287,45,95,15,194,180,31,209,25,274,14,114,90,173,76,97,138,258,10,254,139,26,284,13,46,255,74,277,291,6,3,192,188,34,61,191,182,111,217,82,73,221,117,247,176,283,265,237,110,62,0,184,132,103,170,147,121,249,131,7,88,81,154,54,263,200,143,18,22,66,272,5,157,69,12,116,8,60,201,135,30,53,159,71,295,260,169,199,155,35,78,24,108,137,248,106,37,278,50,36,42,48,49,268,290,63,153,229,1,128,57,204,67,238,52,285,96,211,27,72,296,214,280,33,11,156,39,107,92,269,242,105,93,213,216,144,282]","arrowright","0","6","65","300","[""0096_N0300_K0065_NOCLIQUE"",""0001_N0300_K0065_CLIQUE""]","",""
"","","","","","audio-keyboard-response","100","678121","0.0-54.3-0.3-1.3","","null","audio_feedback/shuffles/shuffle01.mp3","null","","","0","6","65","300","[""0096_N0300_K0065_NOCLIQUE"",""0001_N0300_K0065_CLIQUE""]","",""
"","","","","","canvas-keyboard-response","101","679859","0.0-54.4-0.4-0.4","","1461","","arrowright","[258,7,35,199,256,79,279,141,183,56,287,40,283,246,39,175,89,187,172,58,45,159,208,90,185,50,41,222,292,228,112,170,44,196,83,21,142,105,249,284,245,101,247,28,68,102,82,60,148,78,166,22,81,165,188,224,276,67,291,259,30,74,194,152,275,53,98,215,238,63,268,43,282,225,149,8,109,96,61,130,32,113,243,205,48,211,158,91,75,137,116,248,271,92,233,189,192,254,212,167,221,123,13,206,52,131,173,99,103,179,38,46,223,133,239,147,17,171,118,168,273,140,87,169,277,122,127,121,114,280,3,23,264,209,93,55,51,298,86,12,285,64,29,49,296,227,293,18,230,134,274,33,231,108,242,77,198,241,37,214,203,106,97,236,186,14,251,181,263,229,150,119,128,47,10,232,146,281,42,16,27,156,182,129,252,15,6,107,260,11,153,244,110,250,190,210,76,270,218,261,143,9,193,265,135,4,160,59,70,66,289,34,164,200,257,36,267,197,266,0,191,253,73,219,295,125,177,237,136,217,288,145,115,84,240,26,5,31,299,72,184,120,85,174,255,178,132,226,95,278,151,104,202,24,62,144,19,154,294,94,180,139,201,207,286,216,163,2,20,71,213,1,25,117,204,54,235,157,124,176,161,262,297,269,88,126,138,162,220,57,155,100,69,290,80,195,111,234,65,272]","arrowright","0","6","65","300","[""0096_N0300_K0065_NOCLIQUE"",""0001_N0300_K0065_CLIQUE""]","","true"
"","","","","","audio-keyboard-response","102","680342","0.0-54.4-0.4-1.4","","null","audio_feedback/right/coin01.mp3","null","","","0","6","65","300","[""0096_N0300_K0065_NOCLIQUE"",""0001_N0300_K0065_CLIQUE""]","",""
"","","","","","canvas-keyboard-response","103","682211","0.0-55.0-0.0-0.0","","1593",""," ","[77,68,61,299,105,171,156,149,246,178,91,65,47,297,3,41,45,264,144,100,154,253,276,51,231,78,184,66,191,116,132,37,89,197,198,85,206,179,298,62,88,256,161,278,57,82,115,70,233,201,139,270,28,99,13,50,126,12,43,215,260,279,19,93,163,6,49,145,39,36,281,225,275,16,133,209,212,177,38,127,232,148,227,228,262,251,292,60,141,106,286,135,103,8,274,5,168,102,53,75,229,84,71,14,29,220,242,192,195,258,7,33,107,4,241,2,121,239,113,223,130,140,129,59,166,32,136,112,56,72,244,202,216,176,118,240,67,249,180,167,27,108,234,221,17,46,193,31,214,97,92,207,111,153,266,52,247,83,273,211,271,137,120,245,255,267,48,200,119,104,79,30,204,95,134,40,165,269,123,159,155,181,280,15,203,55,190,230,235,76,288,20,222,10,54,186,189,152,259,218,252,124,125,34,0,226,63,248,210,224,199,147,80,172,196,277,282,257,290,35,158,9,284,58,22,160,87,21,205,94,23,213,122,98,74,128,272,261,42,109,151,182,293,110,164,73,294,238,183,138,81,287,64,254,250,96,243,175,208,101,187,291,24,86,188,117,289,146,162,296,44,170,236,265,173,114,11,142,26,217,1,150,169,219,237,185,194,263,285,157,18,283,295,268,143,25,90,131,174,69]","arrowleft","0","7","65","300","[""0071_N0300_K0065_CLIQUE"",""0048_N0300_K0065_NOCLIQUE""]","",""
"","","","","","audio-keyboard-response","104","682860","0.0-55.0-0.0-1.0","","null","audio_feedback/shuffles/shuffle01.mp3","null","","","0","7","65","300","[""0071_N0300_K0065_CLIQUE"",""0048_N0300_K0065_NOCLIQUE""]","",""
"","","","","","canvas-keyboard-response","105","684755","0.0-55.1-0.1-0.1","","1620",""," ","[267,246,84,202,135,93,55,243,139,71,145,102,111,88,212,129,115,140,168,206,86,5,94,260,235,143,10,85,90,51,291,181,279,132,209,248,188,273,268,164,87,112,228,185,266,155,77,219,32,233,22,11,187,66,50,215,252,21,190,270,262,95,149,220,174,63,4,123,217,298,237,259,148,161,178,152,18,24,296,37,249,297,216,19,108,64,204,119,200,16,250,257,72,17,295,3,15,225,101,9,73,294,280,275,278,20,118,240,230,254,45,201,74,193,242,153,277,171,163,281,69,107,238,244,44,286,285,34,29,253,207,38,180,127,232,196,120,82,179,56,42,199,136,229,239,169,81,61,218,175,2,167,103,31,177,104,7,130,293,46,165,271,172,142,48,109,133,222,192,146,27,205,290,157,231,208,221,214,122,186,162,110,113,43,1,261,78,159,58,47,166,54,114,6,223,53,183,191,282,138,65,97,76,227,14,194,121,92,272,236,264,23,269,274,156,75,160,241,67,98,197,154,137,49,170,224,150,99,141,80,30,263,26,184,125,116,213,292,134,117,198,12,283,210,284,176,173,68,124,147,226,251,245,33,287,59,276,100,41,128,70,79,247,89,189,57,211,35,182,234,39,151,52,255,144,40,91,25,8,258,36,265,203,289,106,195,28,13,256,126,0,96,105,299,83,288,131,62,60,158]","arrowleft","0","7","65","300","[""0071_N0300_K0065_CLIQUE"",""0048_N0300_K0065_NOCLIQUE""]","",""
"","","","","","audio-keyboard-response","106","685403","0.0-55.1-0.1-1.1","","null","audio_feedback/shuffles/shuffle01.mp3","null","","","0","7","65","300","[""0071_N0300_K0065_CLIQUE"",""0048_N0300_K0065_NOCLIQUE""]","",""
"","","","","","canvas-keyboard-response","107","687491","0.0-55.2-0.2-0.2","","1804",""," ","[119,28,224,188,141,218,66,269,53,87,93,50,223,23,6,156,243,298,167,232,111,215,140,201,222,15,78,187,39,193,239,44,195,162,237,86,285,113,8,297,56,234,163,296,242,42,293,284,55,46,5,192,80,262,267,68,168,160,211,132,84,92,249,133,175,149,35,216,73,122,4,161,71,136,25,278,229,214,125,34,209,281,22,61,265,236,98,254,268,246,220,238,206,173,155,159,283,126,106,21,280,81,115,123,29,275,227,127,144,110,212,225,143,43,261,152,14,270,32,99,253,97,69,174,256,210,165,130,235,290,203,219,244,288,63,202,153,100,183,276,17,103,30,109,199,7,54,299,182,70,10,18,289,185,37,204,114,49,94,96,101,241,186,258,166,189,120,116,294,245,190,266,105,83,112,286,177,1,260,104,176,134,0,51,139,231,277,2,57,247,95,72,207,259,213,291,128,47,158,41,240,184,31,169,16,124,77,221,151,82,154,91,79,263,60,20,24,198,264,45,129,62,205,164,170,172,38,181,102,117,250,282,85,287,11,200,196,138,191,3,226,255,135,131,257,107,271,12,74,36,208,274,75,147,52,76,228,48,90,180,252,146,230,194,251,118,178,179,108,292,13,197,89,88,279,9,65,171,248,295,157,142,150,64,272,273,40,137,233,59,217,145,58,148,121,19,33,67,26,27]","arrowleft","0","7","65","300","[""0071_N0300_K0065_CLIQUE"",""0048_N0300_K0065_NOCLIQUE""]","",""
"","","","","","audio-keyboard-response","108","688140","0.0-55.2-0.2-1.2","","null","audio_feedback/shuffles/shuffle01.mp3","null","","","0","7","65","300","[""0071_N0300_K0065_CLIQUE"",""0048_N0300_K0065_NOCLIQUE""]","",""
"","","","","","canvas-keyboard-response","109","691331","0.0-55.3-0.3-0.3","","2885",""," ","[283,89,52,231,239,31,253,48,77,261,172,157,79,244,266,36,225,191,130,193,195,229,236,291,174,57,159,9,166,214,103,117,215,66,125,107,177,114,173,262,251,71,165,35,42,2,200,131,51,223,278,84,85,272,267,33,61,140,27,96,53,171,99,238,100,95,14,206,255,232,161,237,162,176,17,147,150,181,123,115,292,168,32,144,280,299,188,59,118,6,63,39,110,207,189,218,167,111,11,277,83,154,227,139,211,106,270,81,296,105,158,252,230,148,50,143,43,290,187,93,102,274,16,222,286,293,109,226,184,82,289,60,47,45,15,233,205,4,55,153,179,155,186,192,295,258,76,104,24,284,8,5,78,260,228,178,219,44,80,198,196,282,34,92,97,152,21,23,180,12,64,281,234,0,146,250,160,127,149,87,170,245,269,145,62,129,94,141,112,25,201,73,13,224,86,185,263,246,151,46,88,128,297,124,190,68,136,19,169,285,208,41,298,249,74,275,56,98,69,1,91,134,265,122,132,90,217,288,254,213,119,235,204,256,3,138,287,279,273,108,212,241,65,135,203,209,29,54,268,20,18,116,242,199,137,49,101,247,182,133,216,259,220,30,37,264,142,164,28,183,202,22,75,294,248,243,271,120,126,10,26,72,121,194,175,240,113,58,67,257,276,156,221,70,40,38,197,163,7,210]","arrowleft","0","7","65","300","[""0071_N0300_K0065_CLIQUE"",""0048_N0300_K0065_NOCLIQUE""]","",""
"","","","","","audio-keyboard-response","110","691984","0.0-55.3-0.3-1.3","","null","audio_feedback/shuffles/shuffle01.mp3","null","","","0","7","65","300","[""0071_N0300_K0065_CLIQUE"",""0048_N0300_K0065_NOCLIQUE""]","",""
"","","","","","canvas-keyboard-response","111","695750","0.0-55.4-0.4-0.4","","3494",""," ","[254,84,166,63,0,180,284,242,120,269,49,130,21,90,173,27,247,152,35,71,161,145,154,170,104,99,280,263,199,174,14,78,72,53,188,34,207,229,239,108,298,253,45,165,137,47,273,133,148,114,13,111,110,59,98,67,195,175,25,215,153,167,287,124,122,276,89,250,92,185,196,95,151,212,112,164,206,279,119,285,117,194,290,17,283,30,28,182,11,54,142,221,55,241,222,262,264,176,85,81,208,249,42,257,115,29,230,101,190,163,4,157,140,144,223,103,268,20,160,267,292,16,132,82,93,270,74,36,240,41,231,107,139,138,171,3,131,44,198,12,149,168,121,141,109,288,184,200,294,79,15,211,205,73,100,5,296,244,69,256,238,32,236,169,46,261,7,57,243,281,6,40,274,125,155,129,156,94,210,65,136,289,232,134,66,192,275,146,26,187,227,162,245,278,286,203,202,219,64,193,22,61,159,158,87,39,220,68,80,60,147,126,143,248,24,123,233,8,83,209,56,297,237,127,70,299,216,201,91,295,291,105,191,224,97,172,18,293,50,19,48,9,197,234,228,181,271,52,178,213,106,204,265,33,218,51,77,259,251,150,217,177,266,88,76,226,10,246,189,252,23,96,1,225,179,38,214,86,255,43,235,258,31,62,37,277,2,116,135,272,282,58,113,128,118,183,186,102,75,260]","arrowleft","0","7","65","300","[""0071_N0300_K0065_CLIQUE"",""0048_N0300_K0065_NOCLIQUE""]","",""
"","","","","","audio-keyboard-response","112","696395","0.0-55.4-0.4-1.4","","null","audio_feedback/shuffles/shuffle01.mp3","null","","","0","7","65","300","[""0071_N0300_K0065_CLIQUE"",""0048_N0300_K0065_NOCLIQUE""]","",""
"","","","","","canvas-keyboard-response","113","698995","0.0-55.5-0.5-0.5","","2311","","arrowleft","[268,182,254,80,132,253,67,35,92,169,194,203,99,112,219,134,270,73,278,239,236,288,296,104,137,233,214,110,8,131,156,147,292,290,238,255,188,186,189,199,63,43,34,272,124,266,174,262,167,26,243,10,165,234,78,83,85,36,135,96,179,114,291,91,38,198,264,23,193,129,247,287,141,16,88,220,273,231,61,259,68,197,77,293,140,25,213,146,123,52,45,32,201,271,183,57,142,5,69,150,230,113,263,54,97,0,175,101,242,17,184,267,27,29,117,212,53,221,185,170,177,48,225,152,14,172,44,206,70,13,160,33,151,12,20,224,107,252,128,65,281,195,245,204,40,161,87,298,171,284,217,111,3,55,41,274,62,297,258,299,208,42,95,154,277,28,256,84,143,21,64,200,7,153,241,237,46,72,120,47,218,276,232,285,223,126,11,145,108,133,71,122,51,24,210,79,102,168,257,222,279,60,106,251,261,265,260,31,166,4,82,216,30,90,144,176,282,89,178,180,181,157,289,202,81,19,163,228,209,173,109,248,250,18,119,37,249,139,159,235,155,246,125,215,93,190,138,280,74,76,229,59,94,98,158,192,39,103,1,164,130,58,227,187,22,148,100,115,211,226,127,136,2,66,196,6,149,116,15,105,244,295,162,75,269,191,121,50,49,283,86,205,118,240,275,9,286,294,56,207]","arrowleft","0","7","65","300","[""0071_N0300_K0065_CLIQUE"",""0048_N0300_K0065_NOCLIQUE""]","","true"
"","","","","","audio-keyboard-response","114","699492","0.0-55.5-0.5-1.5","","null","audio_feedback/right/coin01.mp3","null","","","0","7","65","300","[""0071_N0300_K0065_CLIQUE"",""0048_N0300_K0065_NOCLIQUE""]","",""
"","","","","","canvas-keyboard-response","115","703507","0.0-56.0-0.0-0.0","","3720",""," ","[233,96,246,97,28,104,38,23,47,115,85,1,72,241,238,288,22,19,220,243,297,45,110,75,175,10,298,222,74,138,205,103,94,42,158,294,269,161,153,226,150,209,39,44,195,31,283,13,174,182,14,252,57,69,239,256,102,260,120,284,90,83,126,171,84,230,111,196,146,193,66,152,177,54,281,299,163,88,295,77,221,172,151,52,229,106,259,122,76,215,62,63,286,257,235,87,282,274,114,178,272,65,25,55,133,224,275,255,240,232,194,16,167,185,268,50,162,89,189,198,67,128,27,2,105,293,236,20,148,273,170,18,200,15,218,291,93,212,248,49,125,254,213,107,95,117,33,262,249,4,181,231,98,225,32,34,80,201,183,131,251,46,179,219,279,271,245,21,210,265,119,109,159,121,124,113,140,217,17,59,8,266,227,9,3,176,92,188,78,173,37,64,5,202,129,142,132,160,199,40,184,86,276,180,118,29,149,155,156,237,79,186,204,144,169,112,203,164,250,73,214,24,165,192,81,6,101,290,58,145,157,143,187,197,108,228,267,166,247,26,70,41,61,130,253,141,36,216,53,0,68,208,100,223,48,147,35,137,127,154,287,168,211,190,278,277,60,91,285,136,263,82,206,258,12,234,43,99,123,289,296,242,11,270,7,135,56,139,71,292,244,207,51,280,134,116,261,30,264,191]","arrowleft","0","8","60","300","[""0072_N0300_K0060_CLIQUE"",""0098_N0300_K0060_NOCLIQUE""]","",""
"","","","","","audio-keyboard-response","116","704166","0.0-56.0-0.0-1.0","","null","audio_feedback/shuffles/shuffle01.mp3","null","","","0","8","60","300","[""0072_N0300_K0060_CLIQUE"",""0098_N0300_K0060_NOCLIQUE""]","",""
"","","","","","canvas-keyboard-response","117","707556","0.0-56.1-0.1-0.1","","3097",""," ","[151,36,20,184,94,62,0,54,259,69,154,210,12,246,38,137,196,34,124,195,91,245,16,3,61,144,89,178,35,37,209,197,24,222,86,207,118,198,136,235,117,121,208,270,4,236,237,281,276,240,142,290,23,31,102,226,273,241,182,88,213,159,112,261,162,82,164,277,232,187,225,14,64,298,22,190,244,256,253,258,242,227,48,108,173,51,166,221,211,199,194,155,286,180,218,220,177,115,113,135,28,233,230,264,249,289,179,265,243,53,98,174,228,80,201,202,100,84,21,60,59,25,39,90,288,114,83,248,156,169,291,79,128,268,63,181,224,110,97,129,168,145,6,68,56,132,133,11,147,42,49,139,296,9,175,193,295,75,257,192,140,219,163,260,161,32,283,252,96,149,176,152,217,125,287,26,81,58,271,76,200,10,299,105,71,43,30,116,215,188,292,85,216,189,158,73,285,146,250,275,203,40,50,15,47,2,191,55,74,106,8,274,231,185,282,72,126,44,131,223,170,267,171,148,293,214,229,263,205,183,123,1,27,7,57,5,172,66,87,255,280,127,212,157,165,150,130,204,119,247,93,101,70,279,111,294,41,234,254,92,45,138,278,167,77,297,52,143,272,269,134,153,284,141,19,160,186,33,46,266,99,18,17,107,67,120,262,206,122,65,238,109,251,95,104,78,239,29,103,13]","arrowleft","0","8","60","300","[""0072_N0300_K0060_CLIQUE"",""0098_N0300_K0060_NOCLIQUE""]","",""
"","","","","","audio-keyboard-response","118","708210","0.0-56.1-0.1-1.1","","null","audio_feedback/shuffles/shuffle01.mp3","null","","","0","8","60","300","[""0072_N0300_K0060_CLIQUE"",""0098_N0300_K0060_NOCLIQUE""]","",""
"","","","","","canvas-keyboard-response","119","711619","0.0-56.2-0.2-0.2","","3126",""," ","[162,48,283,10,154,29,292,3,39,227,161,42,191,194,78,27,76,186,140,279,25,17,254,291,97,213,176,132,174,65,187,168,59,248,193,137,118,281,101,175,85,273,68,37,0,83,4,214,201,70,38,298,62,115,124,240,230,72,49,244,63,75,130,67,108,222,106,22,105,122,262,284,34,177,61,274,277,111,41,151,60,26,159,235,247,224,43,192,127,294,6,173,88,275,66,117,171,226,178,102,30,44,271,286,208,73,270,163,197,269,216,107,96,252,299,20,91,79,54,116,90,167,95,40,142,204,237,56,206,33,55,14,143,263,148,93,80,8,251,220,293,181,77,147,164,188,46,23,123,9,139,103,51,267,15,249,144,18,155,272,255,256,12,110,100,285,52,257,260,35,203,69,112,120,152,11,211,241,145,250,28,121,104,182,233,276,297,215,16,36,261,282,133,264,149,217,265,19,238,131,184,289,50,253,295,225,232,190,2,136,170,259,94,5,183,13,153,71,58,99,210,82,84,109,87,223,31,290,209,81,92,287,219,243,53,229,200,128,198,205,157,185,172,280,218,158,146,221,246,166,138,196,98,245,278,258,266,180,113,134,32,47,24,242,179,57,150,64,119,296,114,141,169,228,195,45,129,1,7,21,236,126,212,199,160,202,239,189,86,268,288,125,74,231,234,207,89,135,156,165]","arrowleft","0","8","60","300","[""0072_N0300_K0060_CLIQUE"",""0098_N0300_K0060_NOCLIQUE""]","",""
"","","","","","audio-keyboard-response","120","712266","0.0-56.2-0.2-1.2","","null","audio_feedback/shuffles/shuffle01.mp3","null","","","0","8","60","300","[""0072_N0300_K0060_CLIQUE"",""0098_N0300_K0060_NOCLIQUE""]","",""
"","","","","","canvas-keyboard-response","121","716259","0.0-56.3-0.3-0.3","","3719",""," ","[87,73,75,263,15,155,252,35,13,175,91,151,77,121,25,84,124,81,268,199,281,132,56,76,214,285,123,255,116,20,144,115,235,258,238,93,234,128,254,208,3,291,94,161,141,71,187,0,171,237,179,186,162,113,245,27,227,122,60,54,259,251,101,52,181,278,292,48,156,69,183,257,58,207,10,209,290,230,287,195,247,96,119,32,2,97,269,212,111,50,243,169,24,68,1,64,61,210,275,264,136,222,59,176,157,188,14,138,228,226,86,224,43,189,39,140,7,196,6,190,49,100,5,296,12,270,289,172,117,46,22,267,218,223,173,219,265,103,135,241,55,92,206,120,231,82,4,280,246,205,150,239,98,44,30,42,114,38,160,202,127,168,143,70,8,62,240,11,85,142,37,95,184,110,57,286,63,18,193,203,236,137,250,261,79,45,108,215,299,158,192,293,41,51,53,129,112,139,149,273,40,34,271,47,166,23,126,147,152,134,256,148,232,266,78,16,225,204,177,26,283,297,253,65,36,99,9,106,159,284,276,67,118,131,277,154,180,198,165,217,167,105,197,298,274,182,185,288,33,130,29,260,194,88,170,244,66,220,248,282,174,216,191,89,21,262,19,83,153,279,294,74,200,295,146,145,178,133,272,109,201,242,221,17,102,107,72,211,28,249,80,163,104,233,213,229,31,164,125,90]","arrowleft","0","8","60","300","[""0072_N0300_K0060_CLIQUE"",""0098_N0300_K0060_NOCLIQUE""]","",""
"","","","","","audio-keyboard-response","122","716919","0.0-56.3-0.3-1.3","","null","audio_feedback/shuffles/shuffle01.mp3","null","","","0","8","60","300","[""0072_N0300_K0060_CLIQUE"",""0098_N0300_K0060_NOCLIQUE""]","",""
"","","","","","canvas-keyboard-response","123","718819","0.0-56.4-0.4-0.4","","1620","","arrowleft","[131,55,222,158,71,13,138,258,56,275,160,272,247,35,81,201,128,291,142,51,246,228,154,281,197,262,223,125,257,252,190,290,182,177,4,289,97,250,188,299,151,49,221,39,21,42,204,40,205,145,61,111,185,46,181,213,64,274,156,124,63,279,240,187,118,232,218,68,209,284,43,34,22,235,47,170,294,102,208,5,116,146,267,20,199,69,123,62,165,57,129,58,52,159,37,70,278,229,137,144,6,26,16,110,88,150,85,121,270,119,203,261,112,216,3,268,93,133,65,1,193,75,207,2,288,169,253,224,45,173,167,82,18,32,215,44,239,171,104,149,230,91,260,277,100,244,59,211,189,33,183,161,166,164,200,11,95,141,115,78,259,41,7,48,219,94,67,287,206,96,66,195,296,50,184,162,176,276,89,238,283,76,113,271,14,198,130,152,265,109,103,217,153,105,53,233,8,27,143,237,186,175,263,19,31,255,180,24,168,178,101,108,225,231,254,148,30,192,29,297,73,117,84,248,9,172,92,220,242,134,114,23,0,139,266,212,298,179,54,98,120,136,90,280,10,292,107,249,132,174,127,72,163,83,210,227,282,36,295,86,17,126,80,191,155,79,12,202,74,106,243,15,286,60,273,87,236,99,256,25,245,38,293,140,135,264,234,241,269,122,196,77,194,214,147,285,157,28,226,251]","arrowleft","0","8","60","300","[""0072_N0300_K0060_CLIQUE"",""0098_N0300_K0060_NOCLIQUE""]","","true"
"","","","","","audio-keyboard-response","124","719307","0.0-56.4-0.4-1.4","","null","audio_feedback/right/coin01.mp3","null","","","0","8","60","300","[""0072_N0300_K0060_CLIQUE"",""0098_N0300_K0060_NOCLIQUE""]","",""
"","","","","","canvas-keyboard-response","125","722851","0.0-57.0-0.0-0.0","","3259",""," ","[82,68,197,168,296,141,20,17,97,121,176,101,26,251,253,272,156,110,277,297,225,74,212,9,3,103,230,122,66,86,1,216,245,36,134,201,50,184,213,77,73,2,154,109,255,236,284,282,243,32,5,76,98,15,88,49,257,91,70,55,92,194,57,186,270,220,159,288,247,218,268,153,291,79,27,281,51,266,6,64,152,8,294,83,209,60,65,84,165,181,259,4,56,136,261,148,298,198,275,263,178,241,273,25,115,75,139,133,149,264,144,37,131,244,135,183,38,48,258,271,124,10,256,106,246,99,160,102,286,239,248,278,129,123,107,132,177,90,203,111,143,44,142,114,190,33,262,205,199,94,260,219,172,164,13,191,221,269,173,242,127,276,16,240,231,69,250,95,116,280,224,193,163,78,24,162,62,105,265,28,252,117,161,234,200,217,63,196,166,289,7,137,147,189,285,29,93,42,31,120,18,195,157,85,229,232,267,81,145,40,202,41,215,72,188,171,130,59,126,22,254,227,67,293,287,11,14,223,182,47,119,180,228,104,112,299,30,295,35,21,58,290,113,34,54,138,279,235,118,174,237,71,167,0,150,226,140,146,207,179,238,23,204,283,210,249,192,53,185,214,170,274,222,52,151,155,175,208,187,169,46,43,89,45,292,100,80,108,96,158,125,233,211,87,19,128,12,39,61,206]","arrowright","0","9","60","300","[""0030_N0300_K0060_NOCLIQUE"",""0097_N0300_K0060_CLIQUE""]","",""
"","","","","","audio-keyboard-response","126","723509","0.0-57.0-0.0-1.0","","null","audio_feedback/shuffles/shuffle01.mp3","null","","","0","9","60","300","[""0030_N0300_K0060_NOCLIQUE"",""0097_N0300_K0060_CLIQUE""]","",""
"","","","","","canvas-keyboard-response","127","726947","0.0-57.1-0.1-0.1","","3156",""," ","[296,6,224,79,194,249,248,150,283,271,158,108,193,179,221,130,5,23,216,117,196,204,43,74,94,95,126,253,231,173,293,243,191,19,122,163,260,177,68,25,96,167,280,230,255,178,66,139,148,60,109,238,267,214,114,281,176,250,33,113,11,42,132,62,202,35,9,171,127,258,186,168,160,31,169,218,119,159,73,219,157,41,192,55,266,259,162,187,279,170,21,86,220,183,244,141,236,227,32,123,2,257,58,134,102,140,48,136,89,64,104,245,38,128,161,70,185,133,222,206,294,65,225,84,87,289,120,208,46,144,263,106,175,269,152,16,34,146,290,213,26,124,29,215,125,8,241,15,188,273,82,88,254,115,101,63,200,252,10,111,116,18,93,143,59,284,278,251,298,4,56,49,272,20,155,129,217,277,14,209,190,39,107,261,184,287,103,247,77,44,75,154,207,137,285,151,288,92,149,240,229,28,76,99,24,67,37,131,145,57,210,0,226,265,147,299,246,72,197,97,164,232,295,78,12,234,13,22,275,237,291,85,297,180,172,292,181,195,201,110,282,189,7,40,17,274,51,138,61,54,81,91,27,50,223,156,166,98,100,90,45,71,1,36,30,199,142,165,270,47,3,235,105,262,53,80,153,182,83,239,256,112,205,286,264,211,203,135,198,212,242,276,233,118,174,228,69,121,52,268]","arrowright","0","9","60","300","[""0030_N0300_K0060_NOCLIQUE"",""0097_N0300_K0060_CLIQUE""]","",""
"","","","","","audio-keyboard-response","128","727607","0.0-57.1-0.1-1.1","","null","audio_feedback/shuffles/shuffle01.mp3","null","","","0","9","60","300","[""0030_N0300_K0060_NOCLIQUE"",""0097_N0300_K0060_CLIQUE""]","",""
"","","","","","canvas-keyboard-response","129","730679","0.0-57.2-0.2-0.2","","2782",""," ","[282,218,52,265,168,222,46,275,287,277,45,167,122,7,70,261,47,286,244,125,194,12,137,153,293,59,83,236,298,190,73,163,177,246,288,268,131,254,136,172,206,175,0,147,160,138,126,39,217,9,105,109,221,118,3,48,192,60,140,296,251,78,197,260,1,151,169,232,255,24,278,29,17,158,279,15,87,156,145,239,133,85,65,94,179,215,82,238,154,170,186,213,271,242,259,86,66,157,270,276,13,245,253,21,185,38,72,57,150,269,182,128,31,139,166,28,212,100,183,95,228,4,80,101,32,98,203,198,234,55,104,164,142,141,120,58,63,6,219,289,191,121,30,107,135,266,292,68,248,97,216,281,199,27,188,181,129,71,26,252,102,10,240,113,273,173,93,226,210,8,103,84,110,56,76,36,20,162,165,285,112,272,264,50,67,130,69,174,91,263,280,5,90,53,23,274,223,195,34,250,178,74,75,99,187,79,49,149,117,267,144,18,220,214,159,124,189,19,61,205,184,51,202,62,132,235,193,283,146,290,294,258,249,16,119,2,127,35,89,196,42,201,108,115,208,88,11,209,291,43,134,233,237,44,295,143,243,229,114,64,92,25,33,96,54,161,37,207,257,224,155,123,111,152,256,230,77,200,262,176,14,211,227,247,180,148,41,106,299,171,204,81,116,241,297,284,40,231,22,225]","arrowright","0","9","60","300","[""0030_N0300_K0060_NOCLIQUE"",""0097_N0300_K0060_CLIQUE""]","",""
"","","","","","audio-keyboard-response","130","731345","0.0-57.2-0.2-1.2","","null","audio_feedback/shuffles/shuffle01.mp3","null","","","0","9","60","300","[""0030_N0300_K0060_NOCLIQUE"",""0097_N0300_K0060_CLIQUE""]","",""
"","","","","","canvas-keyboard-response","131","734452","0.0-57.3-0.3-0.3","","2827",""," ","[51,119,215,76,160,266,152,293,132,191,111,169,145,66,4,288,204,112,101,228,229,190,193,29,173,299,223,208,207,143,260,24,117,1,163,234,237,45,239,3,179,32,121,156,95,34,192,238,261,248,19,258,64,157,279,59,149,292,22,107,242,187,186,269,217,58,297,136,44,189,284,202,8,108,218,89,142,139,140,287,214,17,147,283,198,68,110,130,232,123,277,63,60,69,102,28,98,39,197,91,41,83,175,245,148,126,195,203,182,220,290,47,53,84,247,209,273,99,235,174,94,109,200,295,7,16,166,10,219,120,155,93,138,252,162,184,256,210,86,216,14,116,230,268,92,265,298,42,65,153,134,114,165,281,67,43,87,224,124,181,257,286,176,23,57,105,26,222,103,55,259,250,144,272,146,294,61,241,263,226,27,172,164,154,180,236,274,82,177,30,90,227,50,73,81,54,244,246,249,205,212,106,6,77,262,49,21,38,141,251,70,115,188,13,52,275,18,15,104,289,85,46,161,206,225,25,199,194,48,213,151,56,270,282,278,88,264,97,253,72,80,280,75,285,196,221,183,33,118,291,267,0,211,167,79,31,100,129,233,276,201,243,296,37,255,12,178,133,40,96,36,150,254,185,113,125,78,168,9,240,231,11,137,74,158,2,35,170,20,62,271,128,71,127,5,131,171,135,159,122]","arrowright","0","9","60","300","[""0030_N0300_K0060_NOCLIQUE"",""0097_N0300_K0060_CLIQUE""]","",""
"","","","","","audio-keyboard-response","132","735110","0.0-57.3-0.3-1.3","","null","audio_feedback/shuffles/shuffle01.mp3","null","","","0","9","60","300","[""0030_N0300_K0060_NOCLIQUE"",""0097_N0300_K0060_CLIQUE""]","",""
"","","","","","canvas-keyboard-response","133","737427","0.0-57.4-0.4-0.4","","2028","","arrowright","[166,157,191,221,39,264,58,299,88,59,1,182,118,107,80,144,174,53,176,37,73,278,263,125,171,233,249,116,93,202,44,259,254,175,180,170,194,286,81,239,296,20,257,13,252,284,3,173,164,76,208,4,203,100,11,155,91,292,87,244,71,49,211,161,229,66,250,69,238,10,169,52,28,9,24,74,79,262,210,225,215,26,64,95,30,204,235,265,291,72,8,57,132,106,154,114,185,261,242,195,148,165,102,126,122,179,75,135,289,97,205,145,96,133,141,51,167,269,186,232,236,121,288,277,86,297,89,162,248,120,201,139,131,82,32,189,147,42,275,219,25,23,200,70,77,230,197,138,149,163,285,124,12,143,140,213,110,293,123,246,295,220,55,98,222,243,237,40,184,54,274,298,127,63,270,0,33,241,129,7,90,183,47,247,192,150,283,112,5,168,214,43,50,256,34,178,56,83,258,151,62,268,142,172,153,113,279,231,218,21,2,137,48,290,282,255,130,111,276,35,85,36,187,60,108,6,115,41,29,287,207,217,16,188,280,19,94,267,136,224,177,104,101,193,14,260,156,38,206,251,119,109,45,68,61,67,117,27,245,160,199,128,198,78,223,159,272,273,266,134,228,105,65,18,253,146,22,181,190,240,226,99,196,152,281,84,31,212,216,271,46,15,294,17,158,227,209,92,234,103]","arrowright","0","9","60","300","[""0030_N0300_K0060_NOCLIQUE"",""0097_N0300_K0060_CLIQUE""]","","true"
"","","","","","audio-keyboard-response","134","737921","0.0-57.4-0.4-1.4","","null","audio_feedback/right/coin01.mp3","null","","","0","9","60","300","[""0030_N0300_K0060_NOCLIQUE"",""0097_N0300_K0060_CLIQUE""]","",""
"","","","","","canvas-keyboard-response","135","741347","0.0-58.0-0.0-0.0","","3133",""," ","[165,297,251,68,119,296,80,293,48,190,158,179,250,136,288,90,113,98,274,171,62,131,108,272,185,16,114,184,148,96,46,227,2,70,144,135,4,286,82,93,7,13,294,207,117,47,193,192,292,284,105,73,257,127,214,223,142,66,67,276,0,290,126,128,57,99,72,261,65,52,36,204,147,85,203,262,188,224,228,145,54,206,115,175,38,60,259,275,255,132,210,134,55,61,256,51,236,169,213,253,237,200,205,59,63,42,282,15,280,146,239,155,215,8,84,198,29,197,129,139,69,97,176,24,35,242,32,116,283,183,279,107,281,160,298,270,243,230,287,220,6,9,267,64,56,88,232,43,229,152,34,150,199,76,156,186,87,125,181,157,154,244,75,103,40,153,20,159,226,110,44,50,23,138,12,19,170,233,124,264,247,31,89,123,268,248,79,196,266,277,149,102,39,235,246,11,111,249,78,92,258,143,83,1,137,41,167,260,45,191,71,106,91,58,222,81,278,95,22,77,271,225,254,141,140,49,163,118,219,177,101,100,202,133,151,121,291,25,86,33,273,182,3,30,208,187,240,172,164,53,18,174,168,37,178,17,166,14,122,173,241,221,162,130,120,10,299,194,21,218,295,289,238,109,112,216,5,94,74,211,201,231,26,28,212,234,263,104,265,189,252,27,245,180,161,285,217,195,269,209]","arrowright","0","10","55","300","[""0026_N0300_K0055_NOCLIQUE"",""0041_N0300_K0055_CLIQUE""]","",""
"","","","","","audio-keyboard-response","136","742002","0.0-58.0-0.0-1.0","","null","audio_feedback/shuffles/shuffle01.mp3","null","","","0","10","55","300","[""0026_N0300_K0055_NOCLIQUE"",""0041_N0300_K0055_CLIQUE""]","",""
"","","","","","canvas-keyboard-response","137","744275","0.0-58.1-0.1-0.1","","1991",""," ","[97,206,14,246,202,238,295,32,289,291,134,5,74,11,299,7,122,230,211,4,282,217,160,93,190,255,231,268,164,114,189,133,137,35,75,25,159,107,102,24,29,219,116,120,125,209,226,50,92,10,250,192,157,26,187,118,79,55,127,117,60,112,136,258,146,170,251,76,109,269,288,30,85,18,95,273,218,89,61,44,106,28,8,132,52,83,172,90,65,257,201,193,43,22,81,240,177,144,205,34,15,47,275,220,129,23,0,69,165,73,86,63,244,196,80,130,155,216,121,38,203,3,105,210,78,212,176,71,213,278,94,6,174,59,70,98,184,42,110,12,21,225,188,277,36,243,150,84,66,162,113,254,222,274,88,72,191,279,142,101,19,259,99,298,82,135,68,293,147,200,152,131,181,263,2,242,173,161,234,87,143,262,48,197,128,62,33,56,175,272,96,138,9,239,39,237,100,249,16,271,45,148,252,223,67,104,266,41,108,51,233,194,163,287,40,149,285,260,253,292,31,124,204,178,214,141,265,186,229,126,111,224,276,154,17,156,297,283,139,91,236,64,207,267,1,180,145,261,294,227,235,284,77,185,103,169,183,290,256,46,168,198,153,264,247,179,115,296,167,182,27,20,171,208,215,57,58,151,13,241,286,248,270,245,37,54,158,195,49,140,228,281,232,166,221,123,199,280,119,53]","arrowright","0","10","55","300","[""0026_N0300_K0055_NOCLIQUE"",""0041_N0300_K0055_CLIQUE""]","",""
"","","","","","audio-keyboard-response","138","744926","0.0-58.1-0.1-1.1","","null","audio_feedback/shuffles/shuffle01.mp3","null","","","0","10","55","300","[""0026_N0300_K0055_NOCLIQUE"",""0041_N0300_K0055_CLIQUE""]","",""
"","","","","","canvas-keyboard-response","139","747652","0.0-58.2-0.2-0.2","","2448",""," ","[219,133,94,70,226,108,5,236,148,52,127,72,45,82,145,200,121,100,61,151,62,217,176,110,154,46,165,168,192,212,254,155,199,122,22,4,273,175,50,93,270,184,19,9,213,106,170,56,238,249,142,171,203,159,78,243,242,80,162,167,141,183,0,158,41,272,241,137,73,218,258,282,256,18,198,135,119,189,36,209,157,116,194,10,287,53,267,40,113,104,128,99,89,208,47,293,79,112,260,30,227,207,177,279,294,297,169,91,223,233,12,49,245,74,81,14,178,232,263,271,95,124,228,16,166,280,195,255,239,15,76,54,146,85,261,111,23,281,224,44,259,65,268,130,43,234,117,264,88,134,153,229,186,25,235,7,11,48,126,35,266,115,13,68,147,120,138,246,58,202,34,248,173,17,51,75,118,295,144,237,288,205,276,149,289,27,59,190,63,71,185,114,140,77,125,109,107,3,105,57,87,278,132,129,215,252,32,139,298,257,188,123,103,42,20,33,101,163,39,69,98,60,221,286,131,262,211,156,84,220,6,265,143,225,96,204,244,284,253,37,64,290,274,193,97,291,160,38,250,55,292,197,196,28,206,150,214,283,2,216,1,179,180,285,21,230,191,92,102,66,201,231,251,222,161,164,172,247,31,26,269,152,86,29,187,83,174,90,8,67,275,299,136,24,182,296,240,210,277,181]","arrowright","0","10","55","300","[""0026_N0300_K0055_NOCLIQUE"",""0041_N0300_K0055_CLIQUE""]","",""
"","","","","","audio-keyboard-response","140","748311","0.0-58.2-0.2-1.2","","null","audio_feedback/shuffles/shuffle01.mp3","null","","","0","10","55","300","[""0026_N0300_K0055_NOCLIQUE"",""0041_N0300_K0055_CLIQUE""]","",""
"","","","","","canvas-keyboard-response","141","751171","0.0-58.3-0.3-0.3","","2580",""," ","[194,118,64,116,185,109,25,133,158,121,205,134,294,228,95,69,41,283,241,166,71,120,287,57,147,79,144,88,20,217,137,160,67,245,216,125,244,285,63,292,78,243,171,219,143,74,4,296,231,31,196,12,100,214,162,281,117,75,99,272,106,33,257,0,1,9,265,252,255,29,6,267,177,208,297,43,280,2,274,130,268,256,237,174,157,286,151,128,248,80,183,200,66,103,152,48,112,207,10,77,282,150,251,52,115,291,129,279,250,127,114,209,246,161,135,154,17,24,86,192,203,227,242,58,94,141,113,108,234,34,284,21,101,72,126,105,218,91,221,288,107,276,140,186,264,262,259,28,193,139,188,299,148,7,19,168,16,45,176,54,68,204,15,290,56,211,46,213,96,110,132,145,44,76,206,261,226,47,5,223,22,229,164,26,266,236,122,222,11,277,253,173,175,275,220,199,254,153,298,97,247,84,249,73,149,159,82,179,224,232,93,212,198,142,230,27,210,235,165,3,39,102,167,269,35,195,156,240,124,14,178,191,42,90,136,258,111,53,51,181,60,89,49,36,8,30,238,189,138,92,59,182,85,263,50,87,55,197,293,40,13,260,225,273,215,81,169,202,32,239,172,233,123,23,61,155,180,119,83,270,201,38,289,184,62,104,271,65,98,18,146,131,187,278,190,70,163,295,37,170]","arrowright","0","10","55","300","[""0026_N0300_K0055_NOCLIQUE"",""0041_N0300_K0055_CLIQUE""]","",""
"","","","","","audio-keyboard-response","142","751824","0.0-58.3-0.3-1.3","","null","audio_feedback/shuffles/shuffle01.mp3","null","","","0","10","55","300","[""0026_N0300_K0055_NOCLIQUE"",""0041_N0300_K0055_CLIQUE""]","",""
"","","","","","canvas-keyboard-response","143","753283","0.0-58.4-0.4-0.4","","1179","","arrowright","[74,164,116,268,157,115,51,193,296,255,23,287,264,68,65,188,209,50,158,216,240,92,289,54,26,90,155,247,221,279,260,95,76,210,134,232,225,246,110,144,156,40,244,112,126,61,248,292,87,152,89,113,21,205,230,31,176,179,206,105,231,96,293,104,227,149,252,86,269,141,298,84,11,184,101,277,201,77,4,35,291,83,72,60,6,266,91,45,163,263,22,44,286,257,228,88,108,212,3,233,117,64,29,190,199,42,139,7,283,207,159,81,1,93,165,261,262,295,10,238,235,265,187,181,80,143,122,288,70,85,82,97,57,183,71,249,198,285,237,109,127,173,270,170,25,180,294,5,47,150,194,2,98,32,220,33,272,175,229,196,49,38,36,151,102,251,78,189,297,223,120,241,69,274,147,284,140,169,9,278,254,259,131,20,145,192,276,103,177,280,135,185,226,191,73,130,18,148,161,186,299,59,67,281,236,275,174,133,79,200,224,119,168,195,16,43,53,154,142,121,178,202,124,253,94,211,136,213,30,48,12,58,14,242,41,217,111,0,166,8,197,114,290,27,203,107,123,24,153,52,267,222,129,56,160,171,37,137,204,63,34,218,62,55,132,146,17,128,214,215,118,182,46,234,258,271,106,162,75,208,39,15,239,250,256,282,66,219,273,125,100,243,245,13,138,99,28,172,167,19]","arrowright","0","10","55","300","[""0026_N0300_K0055_NOCLIQUE"",""0041_N0300_K0055_CLIQUE""]","","true"
"","","","","","audio-keyboard-response","144","753766","0.0-58.4-0.4-1.4","","null","audio_feedback/right/coin01.mp3","null","","","0","10","55","300","[""0026_N0300_K0055_NOCLIQUE"",""0041_N0300_K0055_CLIQUE""]","",""
"","","","","","canvas-keyboard-response","145","756404","0.0-59.0-0.0-0.0","","2359",""," ","[273,184,115,281,126,247,16,168,93,223,176,194,59,278,60,53,187,262,222,50,27,58,299,96,259,146,282,220,68,118,81,167,181,48,129,43,251,70,193,66,131,153,207,255,138,12,169,26,244,3,104,38,136,119,127,158,165,182,224,105,122,25,78,149,145,269,180,54,87,97,109,89,295,284,185,186,132,256,205,266,218,86,211,32,15,137,221,4,192,275,297,170,94,285,124,216,219,178,82,111,141,291,101,90,195,13,188,249,235,135,125,108,14,197,179,28,250,240,190,44,18,114,130,55,154,160,47,173,0,10,242,277,226,204,62,175,267,171,45,245,252,98,212,292,85,161,1,92,151,246,225,150,112,253,63,254,117,74,56,264,95,52,49,24,232,9,140,261,40,73,77,106,257,61,113,191,206,102,189,210,274,230,265,241,290,80,42,65,236,166,33,156,286,75,21,128,2,110,46,67,88,51,288,116,30,19,199,152,157,279,233,162,123,83,177,39,36,234,202,99,200,196,258,243,198,20,8,120,64,215,296,268,298,237,139,107,57,76,209,72,35,172,294,147,79,31,280,134,29,231,270,23,248,7,164,159,272,217,214,121,263,289,229,41,201,91,227,287,143,103,144,163,238,69,148,155,271,84,208,37,133,260,276,71,11,183,174,100,293,213,22,5,239,34,228,283,17,203,142,6]","arrowright","0","11","55","300","[""0091_N0300_K0055_NOCLIQUE"",""0020_N0300_K0055_CLIQUE""]","",""
"","","","","","audio-keyboard-response","146","757064","0.0-59.0-0.0-1.0","","null","audio_feedback/shuffles/shuffle01.mp3","null","","","0","11","55","300","[""0091_N0300_K0055_NOCLIQUE"",""0020_N0300_K0055_CLIQUE""]","",""
"","","","","","canvas-keyboard-response","147","761587","0.0-59.1-0.1-0.1","","4250",""," ","[213,170,159,72,3,222,121,197,260,173,74,219,77,172,198,185,243,48,286,175,144,44,187,279,145,91,204,163,0,247,129,158,18,183,124,184,27,79,135,98,192,114,53,252,82,60,92,238,299,103,292,194,214,131,101,178,68,128,190,136,249,100,150,138,26,140,133,108,37,146,61,259,273,42,95,47,288,182,94,223,33,7,218,224,291,31,167,216,85,115,277,65,205,228,188,161,64,203,73,263,143,244,295,16,207,67,196,283,89,40,8,200,139,226,290,271,272,134,43,126,2,20,208,76,113,50,120,212,265,245,296,86,137,15,78,93,195,32,106,90,227,6,236,256,23,66,155,189,104,248,63,166,105,250,179,232,24,293,80,1,297,71,266,87,46,111,165,19,49,278,294,154,177,233,142,285,141,253,5,21,231,164,30,261,70,268,9,156,116,180,109,96,29,160,123,52,262,57,242,220,25,229,193,230,162,17,267,55,255,240,264,10,13,153,221,254,298,118,97,130,281,282,199,62,99,234,56,284,276,11,83,132,51,171,84,59,275,225,122,38,191,202,209,270,22,269,148,54,241,169,257,289,274,157,168,36,251,110,235,258,34,280,102,239,107,174,112,186,45,287,181,41,176,210,39,147,206,35,149,217,119,152,211,28,14,127,69,4,81,237,117,151,246,201,58,88,75,125,12,215]","arrowright","0","11","55","300","[""0091_N0300_K0055_NOCLIQUE"",""0020_N0300_K0055_CLIQUE""]","",""
"","","","","","audio-keyboard-response","148","762244","0.0-59.1-0.1-1.1","","null","audio_feedback/shuffles/shuffle01.mp3","null","","","0","11","55","300","[""0091_N0300_K0055_NOCLIQUE"",""0020_N0300_K0055_CLIQUE""]","",""
"","","","","","canvas-keyboard-response","149","764019","0.0-59.2-0.2-0.2","","1491","","arrowright","[63,273,203,65,102,155,218,239,274,254,164,10,174,175,161,184,277,139,163,31,289,190,93,47,157,135,153,38,251,80,100,224,182,83,181,124,50,183,81,125,29,9,0,12,206,132,149,34,136,128,286,243,272,33,186,204,232,271,85,3,249,14,137,59,142,144,275,296,86,234,22,199,97,121,188,27,214,167,256,117,268,242,269,99,57,169,89,107,278,156,112,62,133,159,165,299,46,7,166,140,105,82,253,36,191,160,20,108,228,158,76,150,260,237,258,225,30,194,103,138,238,55,84,171,106,220,73,241,41,115,58,230,257,69,196,45,79,248,64,187,189,170,151,208,226,266,127,280,18,2,111,19,209,35,213,263,26,210,118,75,270,235,131,279,16,130,40,28,143,212,49,264,229,6,267,276,288,24,25,255,67,32,72,44,221,211,219,200,91,126,114,87,223,11,247,147,120,290,60,236,265,88,98,145,244,8,172,146,233,216,240,66,74,252,246,70,178,195,77,217,292,154,94,215,205,56,17,71,245,193,52,48,197,96,176,179,281,222,259,54,1,95,283,293,110,285,90,231,37,291,173,39,13,250,261,15,168,92,141,104,43,61,295,177,148,5,162,42,68,129,78,123,202,122,185,287,134,152,227,119,262,23,51,4,116,284,192,198,101,297,294,53,21,113,298,201,207,282,109,180]","arrowright","0","11","55","300","[""0091_N0300_K0055_NOCLIQUE"",""0020_N0300_K0055_CLIQUE""]","","true"
"","","","","","audio-keyboard-response","150","764513","0.0-59.2-0.2-1.2","","null","audio_feedback/right/coin01.mp3","null","","","0","11","55","300","[""0091_N0300_K0055_NOCLIQUE"",""0020_N0300_K0055_CLIQUE""]","",""
"","","","","","canvas-keyboard-response","151","767171","0.0-60.0-0.0-0.0","","2372",""," ","[216,97,16,12,153,92,120,14,105,151,173,119,67,272,281,257,275,135,86,108,62,265,263,56,258,222,199,163,50,251,103,13,118,116,287,230,241,294,200,4,87,254,268,132,172,204,129,236,253,122,83,15,55,243,137,166,27,207,115,220,96,255,213,297,156,217,232,296,2,274,24,277,19,73,165,170,5,76,227,63,212,176,188,250,171,152,38,30,286,28,102,26,193,195,270,71,203,249,123,140,79,58,175,169,91,111,180,33,64,246,162,32,181,283,52,164,215,40,282,157,125,84,61,201,184,99,224,88,94,133,74,7,208,190,260,291,248,37,183,93,45,187,68,89,31,81,113,57,44,43,54,18,161,209,53,39,185,259,107,154,110,78,214,146,98,139,192,228,22,47,158,51,242,138,128,266,29,244,269,60,106,177,298,143,221,198,109,237,206,196,178,144,90,21,20,114,179,104,77,239,233,75,34,65,121,289,23,280,186,80,41,231,174,66,276,238,72,6,160,35,100,0,48,197,149,155,293,234,82,247,223,42,182,10,46,202,141,101,226,167,271,159,130,288,264,256,218,292,25,145,11,284,211,245,285,279,219,252,3,229,273,150,225,136,134,189,8,95,127,262,59,147,191,148,278,17,299,205,235,261,69,131,124,126,49,112,290,168,240,85,142,267,36,9,295,70,210,117,194,1]","arrowright","0","12","50","300","[""0095_N0300_K0050_NOCLIQUE"",""0039_N0300_K0050_CLIQUE""]","",""
"","","","","","audio-keyboard-response","152","767817","0.0-60.0-0.0-1.0","","null","audio_feedback/shuffles/shuffle01.mp3","null","","","0","12","50","300","[""0095_N0300_K0050_NOCLIQUE"",""0039_N0300_K0050_CLIQUE""]","",""
"","","","","","canvas-keyboard-response","153","770003","0.0-60.1-0.1-0.1","","1904",""," ","[256,1,225,209,32,145,15,275,197,39,175,267,278,96,135,154,95,192,203,217,40,182,170,226,180,235,113,65,134,184,49,195,117,123,266,202,6,297,163,146,279,165,181,151,42,271,100,13,244,274,140,162,249,254,125,258,94,124,63,29,74,106,67,268,148,84,59,83,25,290,131,149,224,132,98,156,62,153,229,48,231,17,128,263,178,171,107,143,160,152,21,205,220,167,121,260,78,12,127,118,51,114,76,238,179,270,245,214,281,261,26,126,46,7,66,213,53,58,44,255,287,37,251,218,101,295,294,157,45,50,47,208,173,257,277,89,136,284,276,79,210,31,111,272,204,108,93,166,242,234,299,86,23,286,72,293,223,97,189,273,57,112,241,193,38,198,61,186,0,109,233,137,243,16,81,105,207,87,190,289,5,285,82,116,120,199,43,75,70,159,130,91,56,115,55,139,187,240,150,230,206,227,247,282,34,69,292,147,164,2,200,219,283,19,259,232,85,138,265,64,27,77,133,141,169,296,129,20,168,33,4,236,60,68,3,250,174,104,36,41,155,11,188,253,103,73,291,176,183,102,24,196,211,269,298,201,177,80,185,252,10,54,22,246,262,122,228,99,9,90,191,212,222,172,119,158,288,88,52,92,30,216,8,142,221,14,161,248,18,35,280,71,110,264,144,28,239,215,237,194]","arrowright","0","12","50","300","[""0095_N0300_K0050_NOCLIQUE"",""0039_N0300_K0050_CLIQUE""]","",""
"","","","","","audio-keyboard-response","154","770659","0.0-60.1-0.1-1.1","","null","audio_feedback/shuffles/shuffle01.mp3","null","","","0","12","50","300","[""0095_N0300_K0050_NOCLIQUE"",""0039_N0300_K0050_CLIQUE""]","",""
"","","","","","canvas-keyboard-response","155","773587","0.0-60.2-0.2-0.2","","2643",""," ","[217,271,22,202,40,52,129,32,71,274,292,56,148,181,23,142,98,15,146,251,171,206,183,134,21,34,108,237,235,122,163,137,138,227,152,250,289,16,187,133,80,151,245,35,229,123,175,10,277,28,295,294,191,256,131,195,120,264,196,83,41,48,159,279,160,179,252,282,114,27,165,174,285,242,8,62,265,266,139,90,273,26,177,169,203,239,127,89,4,50,218,25,5,215,30,144,204,150,74,238,162,155,112,276,141,223,49,205,147,212,18,79,209,299,290,244,272,111,297,57,230,119,106,168,184,130,72,59,3,211,45,296,287,214,0,208,267,225,188,281,241,263,86,53,97,135,73,1,67,29,109,110,128,197,36,193,153,284,31,198,63,233,156,222,224,116,157,66,261,270,19,47,194,9,113,37,234,219,20,54,136,24,201,6,164,161,257,143,243,78,81,268,254,172,226,2,124,64,104,93,236,275,228,213,210,99,255,121,65,95,46,232,231,132,51,117,105,7,190,288,262,240,125,259,77,14,166,84,70,260,82,101,33,154,192,107,94,216,221,280,58,43,176,126,185,39,220,248,69,145,269,258,253,167,38,182,61,249,170,103,278,178,44,180,298,115,173,87,247,199,12,286,11,75,85,76,186,88,189,140,92,100,91,68,102,118,13,158,96,42,283,293,55,149,291,207,200,246,17,60]","arrowright","0","12","50","300","[""0095_N0300_K0050_NOCLIQUE"",""0039_N0300_K0050_CLIQUE""]","",""
"","","","","","audio-keyboard-response","156","774245","0.0-60.2-0.2-1.2","","null","audio_feedback/shuffles/shuffle01.mp3","null","","","0","12","50","300","[""0095_N0300_K0050_NOCLIQUE"",""0039_N0300_K0050_CLIQUE""]","",""
"","","","","","canvas-keyboard-response","157","776467","0.0-60.3-0.3-0.3","","1944",""," ","[261,30,0,280,125,112,81,233,217,91,243,151,275,159,92,9,131,170,113,256,272,297,137,114,183,103,187,244,135,109,290,259,271,220,250,99,289,40,214,196,203,156,157,167,35,169,270,11,173,111,104,107,191,48,61,192,34,269,43,278,21,148,295,96,138,262,276,210,232,95,201,265,76,178,122,248,121,143,123,88,37,291,236,133,65,254,194,227,44,273,139,66,177,83,219,162,153,124,16,63,41,238,134,86,4,33,15,279,229,224,242,77,54,237,223,2,234,8,263,46,39,288,10,49,90,190,73,205,282,105,197,84,294,12,231,268,52,257,222,126,149,87,186,179,267,85,206,142,94,24,166,252,18,72,28,225,89,163,215,175,284,202,226,56,281,266,260,182,70,98,158,129,101,17,299,193,58,67,216,298,108,207,240,29,180,128,255,38,69,22,152,110,204,165,141,97,68,120,102,168,130,13,164,246,171,80,241,172,32,212,71,253,199,75,119,145,36,213,188,55,161,245,274,57,100,6,62,5,287,93,296,132,185,74,3,146,176,251,286,27,221,79,7,283,14,247,47,106,249,20,218,78,198,154,53,50,184,64,45,174,60,26,1,195,59,258,285,115,292,200,181,235,228,293,277,82,116,31,264,127,147,208,51,160,230,209,118,189,42,150,144,19,23,140,136,211,25,117,155,239]","arrowright","0","12","50","300","[""0095_N0300_K0050_NOCLIQUE"",""0039_N0300_K0050_CLIQUE""]","",""
"","","","","","audio-keyboard-response","158","777126","0.0-60.3-0.3-1.3","","null","audio_feedback/shuffles/shuffle01.mp3","null","","","0","12","50","300","[""0095_N0300_K0050_NOCLIQUE"",""0039_N0300_K0050_CLIQUE""]","",""
"","","","","","canvas-keyboard-response","159","779762","0.0-60.4-0.4-0.4","","2363",""," ","[56,27,169,235,33,87,273,295,253,47,37,42,29,91,190,84,219,114,2,139,171,32,188,129,6,297,214,151,162,48,230,250,298,107,180,196,30,130,110,58,49,26,252,165,156,121,204,140,243,251,288,228,135,261,71,97,286,111,175,240,137,278,100,202,20,57,184,138,177,19,161,153,22,35,77,248,12,72,134,205,126,237,183,109,69,290,128,263,193,4,262,73,43,82,200,90,267,76,115,231,167,292,98,289,294,118,74,155,24,172,299,86,1,247,143,117,272,116,229,80,270,89,218,293,217,124,13,108,160,163,149,182,276,220,236,249,227,259,206,174,99,148,212,23,275,274,36,125,10,179,209,213,281,197,104,146,112,271,225,192,120,15,11,285,170,239,208,141,41,269,245,119,127,3,52,211,34,17,103,101,195,198,159,242,256,132,25,166,203,105,226,131,50,66,60,83,185,93,238,70,210,284,254,88,241,145,63,176,5,16,157,51,232,46,39,173,53,28,246,296,234,199,244,268,61,62,133,64,68,260,283,279,18,181,85,144,81,280,258,78,79,123,0,186,152,187,7,257,92,233,201,158,21,164,191,102,178,54,189,44,287,215,59,136,216,150,194,168,55,45,9,221,207,40,154,122,8,31,224,142,265,277,95,282,65,94,106,75,291,67,96,14,255,113,147,222,264,38,223,266]","arrowright","0","12","50","300","[""0095_N0300_K0050_NOCLIQUE"",""0039_N0300_K0050_CLIQUE""]","",""
"","","","","","audio-keyboard-response","160","780423","0.0-60.4-0.4-1.4","","null","audio_feedback/shuffles/shuffle01.mp3","null","","","0","12","50","300","[""0095_N0300_K0050_NOCLIQUE"",""0039_N0300_K0050_CLIQUE""]","",""
"","","","","","canvas-keyboard-response","161","782787","0.0-60.5-0.5-0.5","","2084","","arrowright","[118,258,129,269,102,28,1,268,63,25,3,74,178,83,297,277,224,8,293,24,209,191,2,79,152,219,114,6,132,108,146,21,103,279,80,110,136,70,237,55,101,40,204,107,47,73,194,67,196,282,158,263,4,137,184,291,170,68,104,255,206,145,122,169,274,147,84,227,51,111,250,207,143,236,116,113,174,162,195,247,138,203,198,105,78,181,61,133,33,199,166,245,159,239,179,154,225,149,229,231,87,188,215,280,242,124,13,75,44,289,112,157,265,109,9,294,186,221,7,46,161,66,134,244,119,241,261,210,295,34,246,257,100,180,201,172,212,76,298,211,213,266,197,92,29,243,262,290,183,141,26,5,37,230,98,288,182,94,81,95,205,53,18,96,156,16,175,15,130,52,19,193,65,177,273,82,223,0,32,58,86,163,148,238,185,292,89,41,287,153,254,69,85,12,60,252,139,56,226,121,284,286,165,38,189,72,30,218,248,35,135,49,208,267,42,200,283,90,144,77,106,99,36,285,50,39,59,214,192,173,164,97,23,240,142,187,171,126,270,278,131,10,259,217,48,31,160,264,123,272,64,220,91,62,117,22,233,11,232,249,93,43,54,168,271,140,27,281,45,256,260,88,155,228,128,150,222,235,14,167,115,57,17,253,71,202,190,176,216,234,125,251,275,296,127,20,299,276,151,120]","arrowright","0","12","50","300","[""0095_N0300_K0050_NOCLIQUE"",""0039_N0300_K0050_CLIQUE""]","","true"
"","","","","","audio-keyboard-response","162","783282","0.0-60.5-0.5-1.5","","null","audio_feedback/right/coin01.mp3","null","","","0","12","50","300","[""0095_N0300_K0050_NOCLIQUE"",""0039_N0300_K0050_CLIQUE""]","",""
