"success","timeout","failed_images","failed_audio","failed_video","trial_type","trial_index","time_elapsed","internal_node_id","view_history","rt","stimulus","response","nodes_order","correct_response","graphs_couple","accuracy","block_index","presentation_index","clique_size","graph_size","graphs_names"
"true","false","[]","[]","[]","preload","0","390","0.0-0.0","","","","","","","","","","","","",""
"","","","","","pavlovia","1","867","0.0-1.0","","","","","","","","","","","","",""
"","","","","","instructions","2","50534","0.0-2.0","[{""page_index"":0,""viewing_time"":3448},{""page_index"":1,""viewing_time"":46211}]","49659","","","","","","","","","","",""
"true","false","[]","[]","[]","preload","3","50828","0.0-3.0","","","","","","","","","","","","",""
"","","","","","instructions","4","295591","0.0-4.0","[{""page_index"":0,""viewing_time"":2389},{""page_index"":1,""viewing_time"":2183},{""page_index"":2,""viewing_time"":1184},{""page_index"":3,""viewing_time"":2328},{""page_index"":4,""viewing_time"":5728},{""page_index"":5,""viewing_time"":2450},{""page_index"":6,""viewing_time"":1168},{""page_index"":7,""viewing_time"":2556},{""page_index"":8,""viewing_time"":1877},{""page_index"":9,""viewing_time"":3960},{""page_index"":10,""viewing_time"":2946},{""page_index"":11,""viewing_time"":1104},{""page_index"":12,""viewing_time"":1298},{""page_index"":13,""viewing_time"":1593},{""page_index"":14,""viewing_time"":1225},{""page_index"":15,""viewing_time"":771},{""page_index"":16,""viewing_time"":1197},{""page_index"":17,""viewing_time"":1213},{""page_index"":18,""viewing_time"":681},{""page_index"":19,""viewing_time"":2198},{""page_index"":20,""viewing_time"":6665},{""page_index"":21,""viewing_time"":2677},{""page_index"":22,""viewing_time"":5522},{""page_index"":23,""viewing_time"":1799},{""page_index"":24,""viewing_time"":790},{""page_index"":25,""viewing_time"":1088},{""page_index"":26,""viewing_time"":1641},{""page_index"":27,""viewing_time"":2514},{""page_index"":28,""viewing_time"":3345},{""page_index"":29,""viewing_time"":1539},{""page_index"":30,""viewing_time"":1026},{""page_index"":31,""viewing_time"":2510},{""page_index"":32,""viewing_time"":36008},{""page_index"":33,""viewing_time"":4221},{""page_index"":34,""viewing_time"":8528},{""page_index"":35,""viewing_time"":2823},{""page_index"":36,""viewing_time"":1643},{""page_index"":37,""viewing_time"":30833},{""page_index"":38,""viewing_time"":3105},{""page_index"":39,""viewing_time"":6368},{""page_index"":40,""viewing_time"":3847},{""page_index"":41,""viewing_time"":3021},{""page_index"":42,""viewing_time"":3301},{""page_index"":43,""viewing_time"":5878},{""page_index"":44,""viewing_time"":3010},{""page_index"":45,""viewing_time"":8739},{""page_index"":46,""viewing_time"":3949},{""page_index"":45,""viewing_time"":6770},{""page_index"":44,""viewing_time"":431},{""page_index"":45,""viewing_time"":597},{""page_index"":46,""viewing_time"":783},{""page_index"":47,""viewing_time"":1550},{""page_index"":48,""viewing_time"":10294},{""page_index"":49,""viewing_time"":11966},{""page_index"":50,""viewing_time"":9912},{""page_index"":51,""viewing_time"":6020}]","244762","","","","","","","","","","",""
"","","","","","instructions","5","301516","0.0-5.0","[{""page_index"":0,""viewing_time"":5924}]","5924","","","","","","","","","","",""
"true","false","[]","[]","[]","preload","6","302031","0.0-6.0","","","","","","","","","","","","",""
"","","","","","image-keyboard-response","7","310948","0.0-7.0","","8877","tutorial/task_familiarization_images/part 1/01_N160_K90_cliqueRight_question1.PNG"," ","","","","","","","","",""
"","","","","","image-keyboard-response","8","312271","0.0-8.0","","1284","tutorial/task_familiarization_images/part 1/02_N160_K90_cliqueRight_question2.PNG"," ","","","","","","","","",""
"","","","","","image-keyboard-response","9","316852","0.0-9.0","","4546","tutorial/task_familiarization_images/part 1/03_N160_K90_cliqueRight_question3.PNG","arrowright","","","","","","","","",""
"","","","","","image-keyboard-response","10","319263","0.0-10.0","","2394","tutorial/task_familiarization_images/part 1/04_N160_K90_cliqueRight_solution.PNG"," ","","","","","","","","",""
"","","","","","image-keyboard-response","11","323854","0.0-11.0","","4554","tutorial/task_familiarization_images/part 1/05_N160_K65_cliqueRight_question1.PNG"," ","","","","","","","","",""
"","","","","","image-keyboard-response","12","325895","0.0-12.0","","2005","tutorial/task_familiarization_images/part 1/06_N160_K65_cliqueRight_question2.PNG"," ","","","","","","","","",""
"","","","","","image-keyboard-response","13","328560","0.0-13.0","","2627","tutorial/task_familiarization_images/part 1/07_N160_K65_cliqueRight_question3.PNG","arrowright","","","","","","","","",""
"","","","","","image-keyboard-response","14","329597","0.0-14.0","","1019","tutorial/task_familiarization_images/part 1/08_N160_K65_cliqueRight_solution.PNG"," ","","","","","","","","",""
"","","","","","image-keyboard-response","15","332739","0.0-15.0","","3119","tutorial/task_familiarization_images/part 1/09_N160_K50_cliqueLeft_question1.PNG"," ","","","","","","","","",""
"","","","","","image-keyboard-response","16","333839","0.0-16.0","","1066","tutorial/task_familiarization_images/part 1/10_N160_K50_cliqueLeft_question2.PNG"," ","","","","","","","","",""
"","","","","","image-keyboard-response","17","335296","0.0-17.0","","1432","tutorial/task_familiarization_images/part 1/11_N160_K50_cliqueLeft_question3.PNG","arrowleft","","","","","","","","",""
"","","","","","image-keyboard-response","18","336589","0.0-18.0","","1260","tutorial/task_familiarization_images/part 1/12_N160_K50_cliqueLeft_solution.PNG"," ","","","","","","","","",""
"","","","","","image-keyboard-response","19","338337","0.0-19.0","","1729","tutorial/task_familiarization_images/part 1/13_N160_K80_cliqueLeft_question1.PNG"," ","","","","","","","","",""
"","","","","","image-keyboard-response","20","338924","0.0-20.0","","550","tutorial/task_familiarization_images/part 1/14_N160_K80_cliqueLeft_question2.PNG"," ","","","","","","","","",""
"","","","","","image-keyboard-response","21","339633","0.0-21.0","","676","tutorial/task_familiarization_images/part 1/15_N160_K80_cliqueLeft_question3.PNG","arrowleft","","","","","","","","",""
"","","","","","image-keyboard-response","22","340488","0.0-22.0","","825","tutorial/task_familiarization_images/part 1/16_N160_K80_cliqueLeft_solution.PNG"," ","","","","","","","","",""
"","","","","","image-keyboard-response","23","345974","0.0-23.0","","5452","tutorial/task_familiarization_images/part 1/17_N160_K40_cliqueRight_question1.PNG"," ","","","","","","","","",""
"","","","","","image-keyboard-response","24","346809","0.0-24.0","","798","tutorial/task_familiarization_images/part 1/18_N160_K40_cliqueRight_question2.PNG"," ","","","","","","","","",""
"","","","","","image-keyboard-response","25","347700","0.0-25.0","","855","tutorial/task_familiarization_images/part 1/19_N160_K40_cliqueRight_question3.PNG","arrowleft","","","","","","","","",""
"","","","","","image-keyboard-response","26","349267","0.0-26.0","","1531","tutorial/task_familiarization_images/part 1/20_N160_K40_cliqueRight_solution.PNG"," ","","","","","","","","",""
"","","","","","image-keyboard-response","27","352343","0.0-27.0","","3040","tutorial/task_familiarization_images/part 1/21_N160_K70_cliqueLeft_question1.PNG"," ","","","","","","","","",""
"","","","","","image-keyboard-response","28","352983","0.0-28.0","","603","tutorial/task_familiarization_images/part 1/22_N160_K70_cliqueLeft_question2.PNG"," ","","","","","","","","",""
"","","","","","image-keyboard-response","29","353626","0.0-29.0","","608","tutorial/task_familiarization_images/part 1/23_N160_K70_cliqueLeft_question3.PNG","arrowleft","","","","","","","","",""
"","","","","","image-keyboard-response","30","354335","0.0-30.0","","675","tutorial/task_familiarization_images/part 1/24_N160_K70_cliqueLeft_solution.PNG"," ","","","","","","","","",""
"true","false","[]","[]","[]","preload","31","354582","0.0-31.0","","","","","","","","","","","","",""
"","","","","","image-keyboard-response","32","364097","0.0-32.0","","9488","tutorial/task_familiarization_images/part 2/01_160_80_cliqueLeft_withFeedback_1.PNG"," ","","","","","","","","",""
"","","","","","image-keyboard-response","33","371238","0.0-33.0","","7091","tutorial/task_familiarization_images/part 2/02_160_80_cliqueLeft_withFeedback_1.PNG"," ","","","","","","","","",""
"","","","","","image-keyboard-response","34","374633","0.0-34.0","","3351","tutorial/task_familiarization_images/part 2/03_160_80_cliqueLeft_withFeedback_3.PNG","arrowleft","","","","","","","","",""
"","","","","","image-keyboard-response","35","377403","0.0-35.0","","2720","tutorial/task_familiarization_images/part 2/04_160_80_cliqueLeft_withFeedback_correct.PNG"," ","","","","","","","","",""
"","","","","","image-keyboard-response","36","385720","0.0-36.0","","8288","tutorial/task_familiarization_images/part 2/05_160_55_cliqueRight_withFeedback_1.PNG"," ","","","","","","","","",""
"","","","","","image-keyboard-response","37","392652","0.0-37.0","","6883","tutorial/task_familiarization_images/part 2/06_160_55_cliqueRight_withFeedback_2.PNG"," ","","","","","","","","",""
"","","","","","image-keyboard-response","38","393690","0.0-38.0","","988","tutorial/task_familiarization_images/part 2/07_160_55_cliqueRight_withFeedback_3.PNG","arrowright","","","","","","","","",""
"","","","","","image-keyboard-response","39","395616","0.0-39.0","","1896","tutorial/task_familiarization_images/part 2/08_160_55_cliqueRight_withFeedback_correct.PNG"," ","","","","","","","","",""
"","","","","","image-keyboard-response","40","398943","0.0-40.0","","3274","tutorial/task_familiarization_images/part 2/09_160_70_cliqueLeft_withFeedback_1.PNG"," ","","","","","","","","",""
"","","","","","image-keyboard-response","41","399449","0.0-41.0","","452","tutorial/task_familiarization_images/part 2/10_160_70_cliqueLeft_withFeedback_2.PNG"," ","","","","","","","","",""
"","","","","","image-keyboard-response","42","400102","0.0-42.0","","625","tutorial/task_familiarization_images/part 2/11_160_70_cliqueLeft_withFeedback_3.PNG","arrowleft","","","","","","","","",""
"","","","","","image-keyboard-response","43","400847","0.0-43.0","","695","tutorial/task_familiarization_images/part 2/12_160_70_cliqueLeft_withFeedback_correct.PNG"," ","","","","","","","","",""
"","","","","","survey-html-form","44","407514","0.0-44.0","","6667","","{""gender"":""female"",""age"":""26""}","","","","","","","","",""
"","","","","","instructions","45","438083","0.0-45.0","[{""page_index"":0,""viewing_time"":30566}]","30566","","","","","","","","","","",""
"true","","","","","fullscreen","46","441596","0.0-47.0","","","","","","","","","","","","",""
"","","","","","canvas-keyboard-response","47","444382","0.0-48.0-0.0-0.0","","2677","","arrowleft","[41,114,235,209,255,222,105,239,251,129,85,240,125,61,35,189,62,286,32,121,6,34,289,7,199,18,194,78,107,55,169,99,140,88,80,93,155,19,44,112,97,163,141,205,299,165,91,272,159,292,285,16,263,152,188,36,181,37,257,201,144,190,157,266,210,275,39,293,76,43,230,8,21,175,198,134,219,223,60,111,232,244,161,92,254,102,71,176,115,265,229,116,162,13,174,79,221,86,110,168,259,5,215,128,273,30,48,57,200,28,82,67,216,50,260,130,236,143,94,242,288,238,25,217,202,197,11,283,270,206,146,182,135,126,246,264,75,56,233,171,148,109,245,164,137,63,10,180,139,284,123,231,89,237,98,256,154,281,191,262,227,250,47,185,241,220,226,196,294,166,23,77,274,207,279,26,1,118,147,17,297,95,149,31,106,100,211,247,277,14,87,249,133,15,195,64,22,73,280,173,51,253,150,268,170,4,46,267,167,228,282,177,138,271,127,214,184,258,183,66,269,70,9,234,65,218,208,27,52,136,153,261,96,172,193,108,58,203,81,122,83,117,145,224,20,74,156,160,12,179,90,40,290,59,151,287,49,54,186,243,187,212,296,113,2,42,119,213,101,3,69,124,132,104,120,72,278,84,298,248,103,24,295,158,225,68,192,33,276,252,0,131,204,291,142,38,29,45,178,53]","arrowleft","","true","0","0","90","300","[""0090_N0300_K0090_CLIQUE"",""0098_N0300_K0090_NOCLIQUE""]"
"","","","","","audio-keyboard-response","48","445565","0.0-48.0-0.0-1.0","","null","audio_feedback/right/coin01.mp3","null","","","","","0","0","90","300","[""0090_N0300_K0090_CLIQUE"",""0098_N0300_K0090_NOCLIQUE""]"
"","","","","","canvas-keyboard-response","49","448895","0.0-49.0-0.0-0.0","","3234","","arrowright","[66,289,186,79,127,230,47,246,185,87,68,163,265,133,227,255,275,290,89,109,247,140,41,166,150,187,50,190,273,135,188,137,238,18,204,292,282,183,19,175,11,214,129,33,295,156,233,117,22,224,184,170,217,46,259,17,143,39,234,252,200,111,21,36,147,189,178,7,182,62,30,268,207,59,229,103,104,193,270,132,240,146,251,196,299,60,206,267,112,220,242,118,141,37,88,84,139,226,74,92,43,10,296,57,287,159,42,65,83,280,210,6,128,199,281,285,232,286,44,225,93,95,2,38,201,61,148,153,213,253,76,243,24,80,101,219,262,288,236,126,174,107,105,293,194,254,29,77,63,257,64,110,291,51,218,130,124,26,123,73,8,99,115,263,162,58,198,75,250,106,136,283,55,260,48,212,180,192,138,278,142,102,16,70,108,122,100,82,116,223,52,266,279,272,176,14,277,31,72,120,172,96,235,203,81,167,276,258,4,177,274,228,209,245,56,119,244,160,40,67,179,249,231,114,215,86,237,211,5,297,32,9,134,165,298,164,144,202,181,216,157,34,15,145,131,13,0,85,151,12,284,1,195,261,173,27,94,49,171,3,25,91,152,191,221,208,20,256,90,98,168,269,45,113,241,248,149,205,271,23,169,294,161,197,121,264,97,78,154,125,239,158,28,35,71,222,69,53,155,54]","arrowright","","true","0","1","90","300","[""0014_N0300_K0090_NOCLIQUE"",""0018_N0300_K0090_CLIQUE""]"
"","","","","","audio-keyboard-response","50","449627","0.0-49.0-0.0-1.0","","null","audio_feedback/right/coin01.mp3","null","","","","","0","1","90","300","[""0014_N0300_K0090_NOCLIQUE"",""0018_N0300_K0090_CLIQUE""]"
"","","","","","canvas-keyboard-response","51","453308","0.0-50.0-0.0-0.0","","3586","","arrowright","[122,185,54,270,38,71,184,205,83,251,130,170,255,62,52,77,110,43,44,76,214,34,9,14,190,48,206,118,258,171,283,189,30,220,179,174,47,15,173,261,203,167,20,202,11,284,97,153,196,265,65,0,25,212,175,158,168,18,211,32,155,40,27,16,3,208,165,78,268,46,137,207,272,85,63,23,149,233,57,249,264,226,209,254,37,123,10,49,69,188,241,222,58,281,277,221,68,126,237,42,273,143,246,235,234,8,29,177,263,50,224,103,145,164,125,105,161,152,35,157,178,81,6,219,186,210,285,280,290,60,115,192,160,183,199,107,28,22,182,19,217,117,135,96,193,292,131,229,231,132,172,93,225,223,89,154,278,187,166,197,274,5,31,121,194,228,181,2,240,139,253,138,61,21,286,4,151,156,262,92,298,26,248,100,227,238,141,33,257,109,134,243,66,176,242,87,67,232,73,147,180,133,79,260,98,287,36,295,56,236,101,256,82,113,53,75,119,128,91,127,252,159,84,267,250,271,245,259,129,95,39,7,239,201,275,291,74,106,213,114,247,17,276,12,195,1,299,80,215,269,104,88,94,108,279,282,140,204,55,142,289,218,230,198,59,72,45,191,296,64,163,120,41,294,297,24,144,162,244,200,102,70,116,99,169,216,90,146,150,51,111,293,266,288,148,136,86,112,124,13]","arrowright","","true","0","2","80","300","[""0040_N0300_K0080_NOCLIQUE"",""0074_N0300_K0080_CLIQUE""]"
"","","","","","audio-keyboard-response","52","454041","0.0-50.0-0.0-1.0","","null","audio_feedback/right/coin01.mp3","null","","","","","0","2","80","300","[""0040_N0300_K0080_NOCLIQUE"",""0074_N0300_K0080_CLIQUE""]"
"","","","","","canvas-keyboard-response","53","458570","0.0-51.0-0.0-0.0","","4429","","arrowleft","[270,4,196,70,43,49,175,147,133,273,26,87,22,180,264,5,64,11,173,18,151,78,96,109,215,266,8,157,204,51,162,153,191,137,107,48,276,257,231,280,55,114,234,116,283,265,94,188,263,237,216,71,134,125,13,177,295,35,261,86,122,289,214,37,169,228,207,291,185,292,95,103,24,108,145,0,186,164,219,140,190,129,135,166,56,32,163,179,286,254,12,150,65,159,296,60,260,52,14,126,112,101,222,53,278,3,139,79,170,27,84,203,221,262,192,121,218,171,272,15,232,274,6,223,132,29,181,148,42,161,100,284,73,123,72,208,34,210,242,57,230,233,299,197,282,244,275,241,279,247,213,16,88,92,38,118,194,21,249,89,69,238,97,131,45,236,183,142,267,176,251,41,156,30,248,141,195,28,227,99,146,271,178,93,245,66,20,199,19,154,128,59,119,224,201,75,91,136,36,144,39,160,98,293,187,165,297,235,143,167,74,83,76,105,68,44,124,47,217,120,243,127,63,81,46,281,211,294,130,90,200,113,67,206,149,239,115,7,202,225,212,285,287,168,31,258,277,104,106,111,61,226,77,155,290,158,189,102,182,205,54,259,269,2,253,23,58,80,252,1,193,40,220,10,82,240,198,152,298,117,138,250,50,229,172,209,184,9,255,256,85,246,33,174,25,110,288,62,268,17]","arrowleft","","true","0","3","80","300","[""0011_N0300_K0080_CLIQUE"",""0067_N0300_K0080_NOCLIQUE""]"
"","","","","","audio-keyboard-response","54","459311","0.0-51.0-0.0-1.0","","null","audio_feedback/right/coin01.mp3","null","","","","","0","3","80","300","[""0011_N0300_K0080_CLIQUE"",""0067_N0300_K0080_NOCLIQUE""]"
"","","","","","canvas-keyboard-response","55","461637","0.0-52.0-0.0-0.0","","2225",""," ","[88,138,230,39,85,11,154,34,159,125,158,290,157,121,67,145,160,164,33,246,59,219,15,220,281,46,283,92,126,259,223,26,294,261,122,56,57,146,271,111,198,50,112,93,51,237,58,43,102,279,296,27,127,174,179,48,206,104,186,211,192,169,194,287,242,167,212,144,299,109,105,6,97,42,54,195,185,77,152,13,255,82,289,148,203,187,284,100,106,89,263,17,119,91,266,1,81,227,267,222,188,177,278,61,2,247,250,256,18,113,282,178,114,156,7,272,132,248,47,162,224,245,225,292,275,140,201,235,204,181,66,293,200,262,143,193,252,288,298,171,53,9,149,4,10,226,170,233,276,44,168,115,161,101,5,107,218,297,52,214,215,234,166,151,251,264,229,117,79,236,70,273,94,217,207,196,241,269,210,231,29,253,22,36,191,150,95,84,37,221,139,130,69,24,175,98,202,268,129,20,254,87,76,182,155,83,244,55,118,239,73,110,285,199,14,180,134,28,35,277,16,189,147,216,72,96,280,265,260,173,184,41,19,137,128,108,131,123,49,209,208,135,3,228,90,40,65,63,86,205,74,295,103,31,165,163,183,116,30,78,62,8,153,270,258,12,32,136,172,257,190,141,80,99,286,124,38,238,75,274,240,68,142,45,176,213,197,291,120,249,0,71,25,23,21,60,243,64,232,133]","arrowright","","","0","4","70","300","[""0051_N0300_K0070_NOCLIQUE"",""0075_N0300_K0070_CLIQUE""]"
"","","","","","audio-keyboard-response","56","462620","0.0-52.0-0.0-1.0","","null","audio_feedback/shuffles/shuffle01.mp3","null","","","","","0","4","70","300","[""0051_N0300_K0070_NOCLIQUE"",""0075_N0300_K0070_CLIQUE""]"
"","","","","","canvas-keyboard-response","57","464487","0.0-52.1-0.1-0.1","","1762",""," ","[250,168,157,119,270,253,175,278,207,208,42,64,52,39,51,63,158,100,287,277,265,107,247,124,23,197,79,86,227,214,49,169,188,263,55,72,238,251,201,150,91,21,1,90,105,28,134,268,190,32,222,67,65,132,193,241,24,274,82,235,223,267,87,166,244,155,273,291,245,68,283,194,246,284,7,264,192,176,94,220,151,170,239,147,29,292,290,4,74,191,9,282,203,11,126,204,183,272,141,182,199,118,80,116,117,177,115,44,299,27,3,35,78,232,297,20,77,112,289,185,71,75,122,266,133,16,281,279,84,92,57,240,26,259,252,136,261,143,248,200,15,162,45,142,53,154,216,14,195,178,294,255,196,73,275,104,167,88,258,236,83,101,139,249,30,285,276,171,5,189,40,256,6,179,280,165,156,288,18,152,298,225,140,224,130,123,8,95,234,184,262,76,17,60,41,98,230,121,22,2,228,218,260,102,12,120,129,106,93,286,148,56,186,212,114,295,219,243,205,215,164,48,96,127,46,33,153,66,293,213,172,180,25,37,43,211,70,217,229,160,113,233,226,61,10,47,50,161,137,149,62,146,271,237,210,89,34,242,138,187,221,81,99,125,163,69,97,38,159,145,269,206,58,257,181,36,59,31,135,13,109,111,131,209,202,19,103,174,128,108,144,254,173,198,231,54,0,110,85,296]","arrowright","","","0","4","70","300","[""0051_N0300_K0070_NOCLIQUE"",""0075_N0300_K0070_CLIQUE""]"
"","","","","","audio-keyboard-response","58","465475","0.0-52.1-0.1-1.1","","null","audio_feedback/shuffles/shuffle01.mp3","null","","","","","0","4","70","300","[""0051_N0300_K0070_NOCLIQUE"",""0075_N0300_K0070_CLIQUE""]"
"","","","","","canvas-keyboard-response","59","466199","0.0-52.2-0.2-0.2","","623","","arrowleft","[261,72,151,46,198,228,291,105,219,84,292,64,184,79,262,48,279,102,43,239,94,22,247,53,133,142,196,226,295,111,60,298,114,256,100,168,131,208,206,110,200,26,276,35,19,254,34,132,124,73,232,120,221,251,271,67,192,81,137,180,249,21,134,87,146,93,42,119,31,12,241,10,59,285,233,58,2,288,280,245,153,68,139,75,161,37,57,39,29,36,107,178,147,202,182,51,227,235,191,154,140,148,78,150,296,97,211,82,181,66,210,214,18,255,287,243,77,170,109,231,156,244,165,263,0,190,13,240,269,259,193,194,290,209,242,135,117,125,17,171,118,23,28,277,121,30,237,9,33,158,106,282,99,163,83,56,252,281,283,74,20,278,6,50,217,144,164,27,157,80,223,253,166,25,55,3,104,61,32,162,4,185,11,183,112,167,257,186,273,8,47,218,234,250,90,169,63,71,41,95,101,24,160,220,70,266,216,286,270,145,268,15,14,122,159,188,152,225,103,69,179,224,173,289,65,88,222,258,299,264,199,213,7,215,294,98,1,172,207,275,238,230,54,115,5,91,38,297,248,272,143,108,96,174,204,129,197,187,126,267,136,155,265,246,175,113,76,16,89,130,149,195,86,212,44,274,85,138,293,123,52,229,45,201,260,141,128,49,189,176,116,127,205,62,284,40,92,203,236,177]","arrowright","","false","0","4","70","300","[""0051_N0300_K0070_NOCLIQUE"",""0075_N0300_K0070_CLIQUE""]"
"","","","","","audio-keyboard-response","60","467193","0.0-52.2-0.2-1.2","","null","audio_feedback/wrong/error01.mp3","null","","","","","0","4","70","300","[""0051_N0300_K0070_NOCLIQUE"",""0075_N0300_K0070_CLIQUE""]"
"","","","","","canvas-keyboard-response","61","468560","0.0-53.0-0.0-0.0","","1267","","arrowright","[219,85,277,39,84,78,149,30,185,191,132,262,16,214,186,221,293,172,20,32,188,192,117,111,82,252,255,268,35,60,286,26,9,194,63,54,178,44,177,141,27,131,197,125,163,261,69,3,34,108,79,223,162,37,270,289,73,267,139,33,25,254,280,154,90,21,29,271,235,109,193,161,253,282,189,49,126,18,264,236,99,64,59,290,260,159,65,250,23,57,207,218,128,245,297,222,274,284,190,142,40,225,181,165,12,153,11,263,121,56,174,168,208,243,170,51,1,129,296,38,61,13,83,155,237,298,15,118,75,233,91,92,58,66,251,122,124,220,50,160,167,211,103,89,213,8,104,212,182,240,228,133,123,203,72,97,94,147,158,145,249,242,134,47,279,110,269,140,265,53,6,36,136,115,171,130,238,299,275,241,127,169,294,41,112,175,106,273,288,292,146,28,81,202,276,200,164,42,224,183,143,205,247,4,24,232,67,148,278,120,5,71,173,217,76,107,187,239,102,101,196,45,17,295,204,77,68,248,114,176,70,285,184,231,48,266,19,100,209,291,157,93,74,52,87,226,144,166,234,258,113,156,10,287,210,7,0,150,135,256,227,119,55,152,151,216,272,283,195,257,201,31,137,14,198,22,46,105,86,230,138,244,180,2,206,98,179,229,116,80,96,215,95,88,281,246,199,62,259,43]","arrowright","","true","0","5","70","300","[""0092_N0300_K0070_NOCLIQUE"",""0029_N0300_K0070_CLIQUE""]"
"","","","","","audio-keyboard-response","62","469296","0.0-53.0-0.0-1.0","","null","audio_feedback/right/coin01.mp3","null","","","","","0","5","70","300","[""0092_N0300_K0070_NOCLIQUE"",""0029_N0300_K0070_CLIQUE""]"
"","","","","","canvas-keyboard-response","63","472041","0.0-54.0-0.0-0.0","","2647","","arrowright","[53,11,205,142,135,163,188,128,145,84,106,275,97,258,218,155,17,10,113,169,213,214,228,299,157,99,170,44,295,70,194,273,268,207,177,64,114,291,212,62,63,81,149,216,226,243,131,180,120,38,8,241,265,67,132,108,13,247,181,107,257,249,162,237,195,259,18,35,219,292,255,22,148,193,242,168,166,0,225,240,36,66,76,101,189,96,285,50,65,45,82,78,48,49,206,161,123,89,267,244,51,144,183,269,152,77,90,124,27,9,88,203,293,182,270,102,40,153,151,210,129,289,173,201,25,39,191,208,274,290,238,5,91,209,266,112,276,37,176,122,196,137,272,56,282,52,103,158,192,72,4,138,118,251,19,253,140,254,156,15,121,187,147,185,57,298,256,141,100,171,172,178,21,261,165,54,283,29,127,287,60,95,199,61,294,26,55,80,115,24,85,232,109,186,217,86,229,41,74,83,284,263,277,133,68,297,110,211,154,286,221,139,198,146,1,222,250,136,174,204,223,190,119,87,33,246,31,3,30,94,175,280,143,98,104,252,134,2,234,164,23,59,278,279,262,34,130,16,92,117,281,126,14,71,179,260,125,236,75,42,296,245,28,235,69,32,79,6,159,58,43,150,230,215,111,288,239,264,200,47,105,271,248,93,167,233,160,224,231,46,73,227,20,220,202,116,7,184,197,12]","arrowright","","true","0","6","65","300","[""0001_N0300_K0065_NOCLIQUE"",""0016_N0300_K0065_CLIQUE""]"
"","","","","","audio-keyboard-response","64","472754","0.0-54.0-0.0-1.0","","null","audio_feedback/right/coin01.mp3","null","","","","","0","6","65","300","[""0001_N0300_K0065_NOCLIQUE"",""0016_N0300_K0065_CLIQUE""]"
"","","","","","canvas-keyboard-response","65","474696","0.0-55.0-0.0-0.0","","1840","","arrowleft","[33,267,297,235,169,257,206,115,180,189,17,194,164,107,84,133,43,140,216,185,26,167,4,34,114,184,93,11,162,298,250,7,163,289,52,173,29,279,253,141,155,251,191,18,239,270,105,46,158,21,188,83,138,159,112,176,88,179,24,277,254,182,89,242,113,243,272,60,256,233,36,231,69,237,0,145,160,258,103,91,287,144,50,246,203,296,72,14,197,248,109,65,28,8,200,116,181,227,280,199,94,1,47,282,70,154,212,32,202,49,222,97,265,142,288,78,38,232,139,276,245,201,135,262,283,211,125,111,56,42,63,240,12,214,120,48,30,59,127,128,130,225,263,269,80,37,247,281,61,134,22,284,210,74,278,292,66,121,58,41,51,123,286,95,148,79,170,76,106,218,39,67,195,291,172,156,178,25,241,186,64,149,71,193,295,273,204,54,108,119,126,207,85,187,5,228,174,177,161,259,53,294,224,217,100,192,101,90,175,110,44,129,266,57,55,196,215,147,16,153,264,10,132,168,209,77,229,255,213,3,223,104,19,9,73,131,23,35,205,221,62,13,137,157,268,98,136,190,122,118,27,299,208,87,92,165,220,236,260,171,68,40,2,261,219,81,244,230,102,285,226,166,274,99,75,234,96,151,183,152,6,45,117,146,86,82,15,290,252,124,150,271,238,275,293,20,143,249,198,31]","arrowleft","","true","0","7","65","300","[""0095_N0300_K0065_CLIQUE"",""0072_N0300_K0065_NOCLIQUE""]"
"","","","","","audio-keyboard-response","66","475425","0.0-55.0-0.0-1.0","","null","audio_feedback/right/coin01.mp3","null","","","","","0","7","65","300","[""0095_N0300_K0065_CLIQUE"",""0072_N0300_K0065_NOCLIQUE""]"
"","","","","","canvas-keyboard-response","67","657758","0.0-56.0-0.0-0.0","","182227","","arrowleft","[251,192,200,62,55,281,226,216,264,193,155,237,40,290,245,186,47,175,286,3,65,195,177,246,63,262,288,28,140,152,260,183,194,50,198,102,117,19,1,129,218,220,61,108,208,82,276,83,203,273,209,110,76,101,151,94,224,248,187,35,231,105,81,196,96,166,238,124,265,46,20,266,240,156,121,11,13,298,153,252,116,59,131,89,107,9,91,44,221,253,71,292,49,271,159,78,130,250,295,99,52,115,207,58,223,132,2,34,168,211,143,138,236,255,267,135,258,181,242,85,120,106,30,234,189,53,222,70,284,172,293,125,39,150,259,41,136,217,227,118,37,100,263,247,29,205,182,111,103,191,66,114,16,161,36,257,73,146,23,256,206,282,169,254,0,201,179,104,15,171,280,165,294,139,188,230,164,43,244,261,278,109,199,134,202,84,285,215,133,57,80,167,45,274,12,8,68,160,214,21,95,279,291,97,56,170,128,197,162,210,113,7,51,79,72,176,142,269,31,185,60,86,297,54,235,163,173,127,90,145,225,289,69,249,275,212,287,148,137,92,154,299,22,5,25,126,283,38,233,112,93,178,229,18,239,32,149,228,75,27,77,296,270,33,157,119,123,17,10,67,144,272,213,147,204,24,141,184,14,98,232,190,174,64,74,180,241,268,122,158,219,87,26,277,243,88,4,6,48,42]","arrowleft","","true","0","8","60","300","[""0077_N0300_K0060_CLIQUE"",""0082_N0300_K0060_NOCLIQUE""]"
"","","","","","audio-keyboard-response","68","658515","0.0-56.0-0.0-1.0","","null","audio_feedback/right/coin01.mp3","null","","","","","0","8","60","300","[""0077_N0300_K0060_CLIQUE"",""0082_N0300_K0060_NOCLIQUE""]"
"","","","","","canvas-keyboard-response","69","660213","0.0-57.0-0.0-0.0","","1614","","arrowleft","[221,167,32,149,264,208,39,289,242,250,202,241,28,2,104,162,1,49,180,207,237,59,199,166,246,72,143,232,118,204,257,80,92,260,132,19,297,71,200,182,120,89,284,252,210,219,53,198,131,271,94,134,213,150,106,24,187,114,13,50,67,103,215,173,255,74,14,197,102,154,66,189,82,129,10,133,122,137,206,160,273,51,205,36,7,73,95,38,46,175,286,298,15,123,42,75,87,96,191,181,111,128,276,228,126,98,91,247,108,40,233,23,158,148,30,18,235,229,45,37,245,140,266,239,275,147,8,100,93,21,165,112,155,48,179,201,299,185,220,79,9,171,56,223,64,196,5,195,203,253,144,136,249,256,267,254,261,41,268,212,141,63,153,188,99,83,3,169,293,236,283,130,186,90,240,145,178,101,263,127,243,97,58,27,265,190,47,81,227,234,116,142,146,193,174,86,248,159,291,251,183,117,194,11,161,280,26,225,262,216,88,218,285,222,84,269,224,209,110,44,33,163,52,35,6,138,238,259,192,288,278,295,258,157,211,124,170,282,34,279,16,61,31,230,214,135,54,77,68,29,226,107,231,177,121,274,152,292,17,217,20,60,115,294,4,151,176,287,55,0,105,164,156,125,296,76,290,25,70,43,168,184,62,270,12,277,78,57,272,172,109,139,65,113,22,85,69,281,244,119]","arrowleft","","true","0","9","60","300","[""0084_N0300_K0060_CLIQUE"",""0019_N0300_K0060_NOCLIQUE""]"
"","","","","","audio-keyboard-response","70","660930","0.0-57.0-0.0-1.0","","null","audio_feedback/right/coin01.mp3","null","","","","","0","9","60","300","[""0084_N0300_K0060_CLIQUE"",""0019_N0300_K0060_NOCLIQUE""]"
"","","","","","canvas-keyboard-response","71","663645","0.0-58.0-0.0-0.0","","2631",""," ","[214,72,123,101,294,171,11,102,240,19,9,229,297,228,107,202,146,124,227,6,152,109,136,267,162,255,155,200,254,27,179,36,138,211,298,3,235,291,26,177,193,272,256,251,148,185,262,230,117,158,147,206,238,84,217,94,106,41,133,232,270,82,70,150,282,253,186,122,44,129,49,166,239,134,289,286,25,198,79,37,180,263,108,118,205,71,258,142,296,38,87,204,249,265,43,280,88,257,34,223,273,85,132,252,81,207,264,56,164,52,225,271,140,112,131,23,187,141,73,299,278,144,157,277,15,93,110,116,154,165,222,156,221,190,10,175,192,31,125,92,191,236,181,76,287,113,61,218,276,58,176,78,29,143,137,74,86,224,268,51,288,250,66,259,57,16,95,293,269,195,189,68,97,243,284,153,14,292,260,67,279,128,245,163,168,40,45,248,183,2,233,60,12,63,4,0,196,121,46,170,32,197,244,90,126,242,114,151,231,33,199,53,172,135,184,127,237,203,216,247,80,178,119,120,77,226,105,8,139,20,246,62,261,69,174,290,219,48,220,47,18,65,35,17,209,208,161,42,149,130,103,99,75,173,54,212,275,22,210,234,266,104,55,50,241,1,111,295,159,160,7,167,215,283,115,91,169,98,100,201,188,64,5,30,274,21,281,13,285,83,24,145,28,213,39,182,59,194,89,96]","arrowright","","","0","10","55","300","[""0058_N0300_K0055_NOCLIQUE"",""0076_N0300_K0055_CLIQUE""]"
"","","","","","audio-keyboard-response","72","664609","0.0-58.0-0.0-1.0","","null","audio_feedback/shuffles/shuffle01.mp3","null","","","","","0","10","55","300","[""0058_N0300_K0055_NOCLIQUE"",""0076_N0300_K0055_CLIQUE""]"
"","","","","","canvas-keyboard-response","73","667082","0.0-58.1-0.1-0.1","","2388",""," ","[233,85,48,218,213,187,16,106,293,163,2,276,3,158,122,204,128,253,283,230,155,138,52,278,200,88,56,42,4,137,30,267,254,268,151,49,217,13,279,113,188,140,239,222,32,199,99,33,229,264,90,228,83,177,234,31,36,192,225,139,263,226,55,244,54,78,29,60,209,165,118,97,232,6,80,63,174,291,131,198,162,146,134,84,21,295,282,261,62,43,67,70,259,246,262,94,173,102,236,25,211,223,136,69,98,247,92,183,130,148,103,71,22,281,12,81,50,91,149,182,8,164,129,19,161,127,9,66,294,168,256,110,201,251,57,147,190,93,68,197,207,159,270,242,179,72,178,152,74,20,210,166,240,112,176,142,18,196,40,150,45,65,216,175,133,298,119,73,47,144,170,28,23,212,100,185,289,191,219,104,193,214,215,115,156,208,51,206,265,299,269,64,35,1,241,117,245,125,121,17,277,248,271,231,157,53,143,27,77,89,79,0,123,124,280,296,101,11,290,172,108,255,272,38,26,95,75,5,114,145,249,285,169,86,24,250,132,37,59,14,154,160,180,258,76,266,275,184,189,46,235,260,7,126,274,252,186,116,194,287,10,15,61,237,238,221,195,273,82,297,167,111,286,41,171,284,203,181,153,243,220,44,34,292,96,224,205,109,87,257,58,39,141,288,227,120,202,107,105,135]","arrowright","","","0","10","55","300","[""0058_N0300_K0055_NOCLIQUE"",""0076_N0300_K0055_CLIQUE""]"
"","","","","","audio-keyboard-response","74","668046","0.0-58.1-0.1-1.1","","null","audio_feedback/shuffles/shuffle01.mp3","null","","","","","0","10","55","300","[""0058_N0300_K0055_NOCLIQUE"",""0076_N0300_K0055_CLIQUE""]"
"","","","","","canvas-keyboard-response","75","668664","0.0-58.2-0.2-0.2","","501","","arrowright","[105,148,181,247,207,171,223,293,236,209,90,265,85,81,9,115,210,197,50,77,46,93,53,29,130,239,72,208,219,154,78,163,211,34,180,200,261,87,280,131,83,4,282,246,224,74,263,144,291,255,225,122,69,106,277,174,111,101,76,129,217,15,98,149,169,35,94,262,64,270,184,60,151,248,221,123,51,33,204,65,36,82,28,54,194,284,214,11,299,88,97,121,256,3,212,96,99,128,5,172,42,232,243,228,45,189,102,10,175,136,67,257,222,116,292,138,120,155,258,220,188,286,104,278,234,260,143,178,147,294,150,191,47,251,48,238,141,1,182,249,192,68,183,164,21,213,39,168,91,281,31,14,140,145,89,132,49,57,0,195,133,245,160,135,229,108,112,297,75,92,271,165,119,296,287,40,125,159,124,158,285,16,37,269,190,161,117,12,215,86,202,176,55,266,20,218,84,59,38,153,56,173,157,196,179,32,19,26,283,23,186,298,27,66,275,6,103,199,156,8,139,170,244,205,44,73,114,242,198,113,110,126,177,295,107,268,166,187,146,167,162,30,137,142,264,61,235,127,206,95,274,216,13,109,231,52,240,254,100,80,22,259,279,62,288,70,272,237,7,253,152,201,58,289,17,233,63,193,226,79,71,185,43,276,118,227,250,18,267,290,230,25,273,252,2,41,134,24,241,203]","arrowright","","true","0","10","55","300","[""0058_N0300_K0055_NOCLIQUE"",""0076_N0300_K0055_CLIQUE""]"
"","","","","","audio-keyboard-response","76","669382","0.0-58.2-0.2-1.2","","null","audio_feedback/right/coin01.mp3","null","","","","","0","10","55","300","[""0058_N0300_K0055_NOCLIQUE"",""0076_N0300_K0055_CLIQUE""]"
"","","","","","canvas-keyboard-response","77","670591","0.0-59.0-0.0-0.0","","1129","","arrowleft","[147,281,122,297,263,231,48,133,274,23,135,14,105,217,87,20,204,167,199,232,246,34,107,115,116,182,64,129,2,174,102,243,126,277,73,138,288,35,106,291,104,43,83,101,225,12,233,30,88,33,188,39,191,161,82,227,222,160,121,165,8,249,152,212,236,254,198,90,241,252,0,134,21,163,31,128,57,4,221,52,223,169,256,181,260,166,157,172,109,5,234,266,211,81,292,280,22,79,58,103,37,229,158,130,1,189,271,27,244,293,272,49,290,215,46,224,85,162,289,18,168,164,153,16,98,200,193,146,60,286,91,45,32,259,76,203,220,120,36,235,89,149,180,176,42,41,70,17,247,62,139,117,173,226,219,185,24,194,97,80,40,299,183,86,237,296,197,140,218,267,69,119,11,151,96,209,294,268,28,77,144,137,19,9,47,269,94,282,111,245,207,68,192,61,92,125,93,190,148,142,273,66,67,264,51,63,136,255,154,15,186,95,74,265,141,132,287,100,99,261,228,156,6,71,150,112,298,177,242,54,251,56,55,262,275,214,187,270,210,25,208,110,131,257,201,179,114,213,178,171,284,108,295,65,118,202,127,84,206,196,159,205,123,10,175,124,38,184,155,3,238,7,283,253,279,230,72,248,78,258,276,278,145,53,195,29,59,26,239,44,143,50,250,113,170,216,285,13,75,240]","arrowright","","false","0","11","55","300","[""0100_N0300_K0055_NOCLIQUE"",""0028_N0300_K0055_CLIQUE""]"
"","","","","","audio-keyboard-response","78","671551","0.0-59.0-0.0-1.0","","null","audio_feedback/wrong/error01.mp3","null","","","","","0","11","55","300","[""0100_N0300_K0055_NOCLIQUE"",""0028_N0300_K0055_CLIQUE""]"
"","","","","","canvas-keyboard-response","79","672667","0.0-60.0-0.0-0.0","","1035","","arrowright","[265,94,135,214,167,204,291,137,173,294,162,41,169,93,84,260,222,10,37,91,168,274,25,220,263,228,107,75,83,178,233,171,253,189,62,144,299,71,74,215,95,199,295,52,252,243,163,100,116,205,82,278,16,286,155,7,72,68,164,11,22,190,15,182,0,277,133,143,153,60,186,14,238,175,114,4,261,123,262,235,88,194,99,246,226,150,250,289,281,27,145,87,271,81,218,273,112,21,245,258,97,47,202,57,247,115,237,92,45,9,13,287,141,257,203,110,70,105,223,256,197,67,259,38,161,284,50,275,290,26,151,269,211,224,126,58,142,64,85,288,293,101,136,2,254,221,210,231,229,44,165,241,213,39,103,73,249,283,124,188,184,270,185,113,193,54,239,119,154,138,234,268,132,227,296,18,8,156,5,42,248,48,236,49,36,242,89,90,209,125,66,40,96,106,187,191,65,217,255,134,19,53,104,198,166,157,212,33,28,172,59,128,219,230,127,43,208,298,79,122,292,139,170,3,1,146,109,56,183,29,46,149,140,225,117,61,179,77,180,12,297,23,131,152,232,266,195,17,111,244,207,130,108,120,30,6,102,177,118,129,285,176,121,80,240,55,279,148,280,267,174,78,158,201,32,181,160,147,69,63,31,76,282,216,159,206,24,272,200,51,196,276,98,86,34,192,20,264,251,35]","arrowleft","","false","0","12","50","300","[""0069_N0300_K0050_CLIQUE"",""0039_N0300_K0050_NOCLIQUE""]"
"","","","","","audio-keyboard-response","80","673641","0.0-60.0-0.0-1.0","","null","audio_feedback/wrong/error01.mp3","null","","","","","0","12","50","300","[""0069_N0300_K0050_CLIQUE"",""0039_N0300_K0050_NOCLIQUE""]"
"","","","","","canvas-keyboard-response","81","678249","0.0-61.0-0.0-0.0","","4526","","arrowright","[118,112,260,213,60,25,221,187,168,208,83,241,33,114,227,54,38,181,259,59,147,142,119,251,44,195,257,78,273,75,107,49,164,63,203,249,267,85,159,294,36,99,160,113,167,35,284,237,243,90,258,180,32,242,17,9,111,126,256,139,91,103,23,57,94,280,117,79,185,240,166,193,201,211,161,74,31,200,129,24,269,157,2,274,149,207,177,151,144,182,178,89,124,7,128,246,80,150,27,132,51,191,87,290,140,278,135,209,279,264,138,173,116,250,287,252,291,16,196,296,41,225,22,61,109,153,3,155,215,235,71,69,56,156,10,106,163,121,233,216,68,268,298,192,245,96,20,58,0,206,145,14,261,19,73,271,152,21,123,276,299,212,43,210,176,199,82,1,253,102,285,92,175,134,244,234,42,39,13,236,122,47,232,204,238,288,28,104,224,162,231,219,184,95,30,97,282,248,77,171,214,100,12,8,133,108,254,101,65,45,52,272,37,125,131,141,34,202,295,158,293,229,50,205,105,130,228,188,286,255,277,183,29,88,48,81,67,222,143,190,270,174,5,86,84,55,62,165,239,76,15,110,127,186,154,70,136,115,266,66,179,226,170,218,72,120,220,217,137,275,98,148,281,198,283,265,53,189,297,223,64,93,262,6,11,46,197,172,18,4,26,263,292,289,40,169,230,146,194,247]","arrowleft","","false","0","13","50","300","[""0094_N0300_K0050_CLIQUE"",""0014_N0300_K0050_NOCLIQUE""]"
"","","","","","audio-keyboard-response","82","679214","0.0-61.0-0.0-1.0","","null","audio_feedback/wrong/error01.mp3","null","","","","","0","13","50","300","[""0094_N0300_K0050_CLIQUE"",""0014_N0300_K0050_NOCLIQUE""]"
"","","","","","canvas-keyboard-response","83","682790","0.0-62.0-0.0-0.0","","3489","","arrowright","[18,281,214,247,165,79,252,126,259,275,1,84,267,236,34,179,76,138,279,231,67,49,152,261,32,101,255,293,245,11,103,262,133,270,92,9,29,195,176,234,157,120,70,107,46,104,207,217,292,130,23,81,56,272,39,276,208,172,254,27,221,98,220,229,17,225,163,233,288,21,285,230,99,0,256,226,140,211,93,199,89,59,73,50,68,286,238,132,287,251,182,31,80,232,95,33,178,223,158,218,150,41,109,12,13,290,190,213,28,61,134,86,10,2,196,291,264,135,3,128,123,139,166,269,167,102,62,215,298,151,193,265,75,114,53,186,243,36,122,97,154,237,299,296,37,224,205,175,8,244,110,212,216,202,24,159,131,277,19,144,283,197,228,258,42,184,45,210,284,204,15,69,145,64,71,113,60,282,249,55,191,105,88,43,250,280,155,222,149,66,127,148,65,82,14,94,35,87,96,242,118,297,63,188,116,171,156,121,6,160,124,115,83,206,100,241,44,142,4,111,246,85,271,90,161,192,74,146,173,268,294,274,78,136,153,177,125,26,162,183,248,170,119,106,25,72,240,143,295,185,198,91,22,147,30,194,47,209,57,137,257,253,7,263,181,180,58,174,201,40,141,20,227,168,235,260,54,169,112,187,239,117,129,48,52,266,164,38,273,219,278,51,189,289,16,203,77,5,108,200]","arrowright","","true","0","14","45","300","[""0037_N0300_K0045_NOCLIQUE"",""0073_N0300_K0045_CLIQUE""]"
"","","","","","audio-keyboard-response","84","683522","0.0-62.0-0.0-1.0","","null","audio_feedback/right/coin01.mp3","null","","","","","0","14","45","300","[""0037_N0300_K0045_NOCLIQUE"",""0073_N0300_K0045_CLIQUE""]"
"","","","","","canvas-keyboard-response","85","685070","0.0-63.0-0.0-0.0","","1469","","arrowleft","[244,114,94,184,17,155,202,168,212,42,274,133,216,4,138,225,180,75,217,77,189,89,149,210,254,193,267,236,185,68,173,147,286,25,2,207,27,46,32,26,57,240,160,220,203,190,230,204,110,130,64,43,250,7,221,72,148,131,255,97,268,261,157,124,144,259,162,109,6,219,251,54,35,295,211,257,213,136,154,98,65,170,92,265,297,48,125,270,95,197,172,192,40,282,290,28,248,74,242,209,276,239,199,174,63,91,0,249,116,62,179,215,117,258,245,69,188,241,39,137,186,246,294,86,164,158,80,228,85,287,128,272,206,145,120,234,126,14,264,200,223,214,56,71,15,82,8,90,143,275,224,122,285,3,263,31,118,23,232,29,36,252,152,296,262,169,198,81,123,93,273,132,226,227,161,291,13,87,293,280,34,51,187,247,73,139,115,253,288,278,194,159,1,41,107,99,67,142,153,201,30,156,205,20,141,151,183,78,140,121,49,181,76,233,283,195,243,52,177,12,11,298,53,104,289,237,18,37,21,238,277,182,292,166,269,50,171,58,16,196,5,281,61,178,60,66,38,266,24,134,135,167,59,279,103,299,9,106,127,218,146,79,88,112,111,10,19,102,284,256,222,33,96,231,119,150,235,45,260,47,229,100,22,271,191,101,113,208,84,108,163,44,129,70,55,83,105,165,175,176]","arrowleft","","true","0","15","45","300","[""0036_N0300_K0045_CLIQUE"",""0043_N0300_K0045_NOCLIQUE""]"
"","","","","","audio-keyboard-response","86","685798","0.0-63.0-0.0-1.0","","null","audio_feedback/right/coin01.mp3","null","","","","","0","15","45","300","[""0036_N0300_K0045_CLIQUE"",""0043_N0300_K0045_NOCLIQUE""]"
"","","","","","canvas-keyboard-response","87","688553","0.0-64.0-0.0-0.0","","2620","","arrowright","[269,73,288,255,207,95,134,124,199,225,230,224,226,162,56,235,49,281,107,79,7,172,200,93,102,219,115,59,117,105,262,280,84,119,242,157,180,74,241,146,75,15,83,138,14,80,263,270,23,76,155,279,154,4,3,144,5,24,205,27,245,116,191,78,295,196,91,1,42,168,108,202,118,186,129,260,271,147,37,143,122,57,175,141,148,179,110,296,133,43,297,132,26,128,67,236,127,53,40,203,12,112,193,96,62,94,39,190,250,8,240,114,45,28,137,247,33,36,213,215,86,273,69,276,292,41,85,214,71,126,216,54,178,163,9,30,109,284,174,272,210,10,101,222,221,170,97,92,72,18,252,173,20,81,298,181,17,90,48,211,131,158,275,104,164,125,282,184,63,261,100,68,293,176,22,194,6,287,197,140,258,206,19,32,111,25,268,259,121,2,204,189,156,64,198,169,21,171,61,159,35,89,0,227,256,142,135,208,187,151,38,223,55,44,70,283,253,248,257,103,50,277,188,47,278,52,249,244,51,152,16,13,185,123,77,136,149,201,130,192,66,150,106,264,139,290,238,228,266,34,289,243,177,234,166,29,231,87,88,267,209,99,232,294,291,229,145,182,165,299,167,60,254,286,220,274,251,46,11,31,233,113,153,195,212,237,120,65,183,285,218,58,161,246,217,82,160,265,98,239]","arrowright","","true","0","16","40","300","[""0001_N0300_K0040_NOCLIQUE"",""0038_N0300_K0040_CLIQUE""]"
"","","","","","audio-keyboard-response","88","689281","0.0-64.0-0.0-1.0","","null","audio_feedback/right/coin01.mp3","null","","","","","0","16","40","300","[""0001_N0300_K0040_NOCLIQUE"",""0038_N0300_K0040_CLIQUE""]"
"","","","","","canvas-keyboard-response","89","693743","0.0-65.0-0.0-0.0","","4378","","arrowright","[143,211,299,227,126,131,104,100,238,277,151,9,207,264,22,44,269,229,172,59,110,257,209,245,183,249,281,288,83,135,275,216,54,73,283,103,285,2,84,36,13,162,171,86,11,276,256,196,294,77,106,156,12,34,260,136,267,94,212,166,231,287,202,144,52,280,193,225,169,248,152,97,20,235,187,116,118,145,64,252,95,205,161,138,88,237,15,109,184,105,45,270,27,41,189,186,57,28,258,115,62,114,210,75,199,120,195,78,4,98,74,85,55,63,108,89,82,107,1,71,218,81,208,113,182,213,158,159,268,236,203,295,240,58,293,185,142,154,111,93,244,91,241,92,284,228,239,30,37,175,219,181,160,40,278,99,206,47,35,65,273,153,234,19,222,230,242,16,262,10,0,221,192,112,139,217,201,254,263,70,177,23,157,224,170,243,246,134,250,29,233,291,259,261,204,50,125,188,251,7,232,127,17,48,286,265,5,130,194,190,3,119,24,117,76,46,56,148,137,289,214,43,39,168,146,53,129,215,96,167,292,133,165,49,163,197,296,90,8,61,150,253,21,128,247,66,67,282,14,178,38,174,266,226,26,198,72,60,32,298,68,80,179,272,140,155,42,255,33,6,191,25,18,164,87,149,51,132,220,124,274,279,147,123,31,180,176,121,290,101,200,271,102,141,69,297,173,79,122,223]","arrowleft","","false","0","17","40","300","[""0062_N0300_K0040_CLIQUE"",""0094_N0300_K0040_NOCLIQUE""]"
"","","","","","audio-keyboard-response","90","694702","0.0-65.0-0.0-1.0","","null","audio_feedback/wrong/error01.mp3","null","","","","","0","17","40","300","[""0062_N0300_K0040_CLIQUE"",""0094_N0300_K0040_NOCLIQUE""]"
"","","","","","canvas-keyboard-response","91","696689","0.0-66.0-0.0-0.0","","1906","","arrowleft","[270,16,110,36,48,125,285,217,8,116,65,231,59,1,206,228,26,4,275,195,210,185,162,193,250,265,124,286,121,31,205,252,245,63,283,13,45,209,291,234,67,141,69,165,259,104,173,135,107,225,190,149,33,266,139,146,246,3,19,201,50,223,154,120,204,112,44,73,51,40,46,153,118,34,97,42,24,240,58,251,140,43,258,271,9,273,158,147,102,151,88,222,11,186,164,127,105,187,207,95,261,227,12,256,230,82,18,38,208,100,269,177,257,90,75,111,64,84,279,68,219,166,81,226,236,37,184,57,14,106,74,89,202,117,145,113,60,159,189,284,72,215,85,218,172,86,224,282,176,294,6,155,32,244,7,77,144,198,128,129,49,91,276,199,137,299,281,221,247,263,183,94,78,54,235,296,220,123,298,122,66,56,179,260,27,20,241,71,169,197,188,232,108,52,287,138,249,39,288,134,132,168,292,238,150,239,264,83,160,211,148,203,293,2,157,133,30,47,182,167,119,253,295,79,237,216,170,10,80,255,115,62,243,213,28,290,25,272,178,35,174,180,214,109,87,175,126,152,96,289,5,98,262,267,194,99,76,280,181,200,93,192,92,114,17,156,21,278,23,130,15,268,41,142,103,233,55,0,229,191,143,161,29,212,242,53,136,70,274,163,171,277,196,248,297,61,101,22,254,131]","arrowleft","","true","0","18","35","300","[""0025_N0300_K0035_CLIQUE"",""0063_N0300_K0035_NOCLIQUE""]"
"","","","","","audio-keyboard-response","92","697408","0.0-66.0-0.0-1.0","","null","audio_feedback/right/coin01.mp3","null","","","","","0","18","35","300","[""0025_N0300_K0035_CLIQUE"",""0063_N0300_K0035_NOCLIQUE""]"
"","","","","","canvas-keyboard-response","93","700035","0.0-67.0-0.0-0.0","","2542","","arrowright","[79,216,86,91,147,29,220,276,40,192,49,179,197,132,236,286,113,253,261,191,101,187,242,210,173,293,128,241,167,109,204,54,285,232,21,165,174,199,182,175,196,83,111,55,25,247,157,12,20,52,62,156,266,170,249,61,72,48,97,78,15,219,205,263,181,8,230,94,112,14,254,195,274,264,183,82,178,295,3,214,104,171,160,130,213,246,122,299,2,267,23,152,38,96,31,17,75,142,177,70,161,76,231,162,292,71,22,7,107,215,45,250,74,150,81,159,290,56,103,238,30,0,235,256,39,252,100,98,11,36,269,133,135,119,139,202,222,259,134,190,227,223,189,136,92,131,158,102,146,270,143,126,184,4,47,58,108,225,1,60,46,233,121,268,50,124,53,115,151,110,5,294,257,89,80,262,180,283,118,123,237,117,13,43,63,153,273,6,116,284,208,105,244,149,166,90,127,229,211,226,84,265,260,186,289,194,129,87,280,291,258,163,169,212,73,201,106,185,137,248,228,188,287,9,207,296,141,144,234,148,224,155,42,120,168,298,279,282,278,288,35,275,272,19,209,32,59,138,41,34,27,24,240,243,198,164,218,221,93,85,26,239,99,57,193,206,277,297,67,176,16,66,69,95,125,281,154,51,172,64,10,77,200,271,33,65,68,251,88,28,37,245,203,140,145,114,217,44,255,18]","arrowright","","true","0","19","35","300","[""0047_N0300_K0035_NOCLIQUE"",""0056_N0300_K0035_CLIQUE""]"
"","","","","","audio-keyboard-response","94","700752","0.0-67.0-0.0-1.0","","null","audio_feedback/right/coin01.mp3","null","","","","","0","19","35","300","[""0047_N0300_K0035_NOCLIQUE"",""0056_N0300_K0035_CLIQUE""]"
"","","","","","canvas-keyboard-response","95","703762","0.0-68.0-0.0-0.0","","2928","","arrowleft","[291,298,131,163,241,146,174,12,236,176,193,183,14,133,47,178,81,62,39,170,48,132,11,292,202,34,243,65,149,294,280,219,138,265,4,217,145,55,134,31,185,79,264,2,162,78,173,150,271,234,85,209,144,206,101,15,13,115,270,289,44,190,83,175,252,191,42,154,59,88,95,56,139,278,136,215,30,128,135,267,276,171,75,188,80,237,260,91,8,40,232,25,297,33,255,113,5,118,110,231,208,204,155,279,142,286,186,45,63,245,1,22,213,126,285,227,148,124,166,157,89,287,179,165,177,230,218,119,253,43,60,76,61,87,161,57,74,114,210,211,151,216,268,49,180,77,130,9,187,164,269,261,0,3,159,73,273,98,235,20,100,207,169,205,238,140,105,51,19,220,68,160,28,141,70,21,212,274,182,92,93,263,106,10,107,167,281,251,199,41,38,295,37,203,242,277,111,46,158,195,284,116,156,29,84,221,54,248,224,275,64,103,226,246,35,247,214,18,112,288,184,249,102,244,50,198,32,143,52,228,137,168,120,7,109,194,17,16,257,72,123,82,58,196,256,69,23,66,6,223,233,239,181,225,26,129,121,250,147,127,172,254,272,67,229,296,258,259,90,97,122,27,152,266,197,108,125,153,94,86,201,222,192,283,290,96,299,104,53,262,36,240,282,293,24,200,117,99,189,71]","arrowright","","false","0","20","30","300","[""0046_N0300_K0030_NOCLIQUE"",""0077_N0300_K0030_CLIQUE""]"
"","","","","","audio-keyboard-response","96","704734","0.0-68.0-0.0-1.0","","null","audio_feedback/wrong/error01.mp3","null","","","","","0","20","30","300","[""0046_N0300_K0030_NOCLIQUE"",""0077_N0300_K0030_CLIQUE""]"
"","","","","","canvas-keyboard-response","97","706083","0.0-69.0-0.0-0.0","","1261","","arrowright","[289,179,212,123,246,252,141,146,230,231,11,145,290,279,5,258,216,76,132,273,106,162,53,21,168,167,211,42,80,111,161,15,81,8,19,283,270,64,35,100,199,242,27,73,214,269,181,77,110,9,128,20,24,55,255,140,118,190,297,40,189,253,173,94,147,86,265,45,108,22,83,18,259,296,245,68,57,177,238,217,58,191,277,267,66,221,90,133,75,274,12,155,46,63,165,169,285,284,130,159,120,143,125,74,87,299,60,184,112,17,127,198,264,178,266,204,102,292,263,126,209,95,97,79,114,1,91,154,151,25,157,144,203,241,208,134,281,240,271,34,298,48,122,185,220,47,30,194,186,275,56,235,202,200,50,256,72,193,233,93,136,131,282,257,239,70,88,254,2,197,222,39,23,288,192,262,96,135,249,31,84,213,215,153,7,201,210,158,89,286,116,0,226,287,33,44,219,268,29,10,85,6,49,228,67,3,276,142,98,82,109,293,152,101,36,278,16,115,14,71,260,182,104,92,117,99,69,172,52,244,59,139,183,148,229,4,160,205,124,163,187,166,180,223,61,206,280,225,232,248,121,65,26,170,164,54,32,291,107,119,247,175,243,103,251,188,261,62,43,28,234,272,236,195,237,224,218,250,150,207,137,37,156,295,174,196,38,13,149,78,294,105,41,138,113,171,176,129,51,227]","arrowright","","true","0","21","30","300","[""0094_N0300_K0030_NOCLIQUE"",""0045_N0300_K0030_CLIQUE""]"
"","","","","","audio-keyboard-response","98","706812","0.0-69.0-0.0-1.0","","null","audio_feedback/right/coin01.mp3","null","","","","","0","21","30","300","[""0094_N0300_K0030_NOCLIQUE"",""0045_N0300_K0030_CLIQUE""]"
"","","","","","canvas-keyboard-response","99","709498","0.0-70.0-0.0-0.0","","2604","","arrowright","[277,206,85,144,68,77,55,107,80,30,118,54,243,260,152,164,67,298,140,251,212,31,124,180,93,263,18,127,291,4,105,88,74,231,222,299,58,261,59,162,73,63,22,53,41,13,33,27,79,121,224,288,76,28,230,186,139,166,281,20,126,209,134,238,227,78,253,278,57,289,256,100,297,245,276,229,241,106,47,3,293,284,182,109,226,133,62,194,36,286,86,9,246,12,176,237,259,274,185,46,262,29,65,148,103,157,201,285,187,250,196,221,171,236,15,75,290,91,5,90,101,98,153,51,215,207,45,72,34,19,280,23,174,279,234,188,248,211,220,239,217,131,295,151,35,208,32,210,198,0,125,169,21,94,142,193,191,265,177,202,292,137,165,143,179,254,275,24,17,99,113,110,175,240,183,232,258,296,189,130,156,266,56,204,216,64,272,271,10,1,173,128,42,120,112,287,195,70,255,135,200,87,190,69,123,235,205,89,158,84,6,147,66,269,199,154,161,26,167,132,39,7,184,155,178,168,225,273,223,192,218,159,2,267,141,242,149,71,81,14,50,146,136,8,16,247,52,160,119,95,213,283,40,48,203,44,249,228,129,170,116,145,294,214,49,282,181,60,11,83,257,268,102,138,172,108,252,122,233,97,244,219,115,96,270,25,82,43,117,104,92,197,111,150,114,264,37,38,163,61]","arrowleft","","false","0","22","25","300","[""0029_N0300_K0025_CLIQUE"",""0024_N0300_K0025_NOCLIQUE""]"
"","","","","","audio-keyboard-response","100","710468","0.0-70.0-0.0-1.0","","null","audio_feedback/wrong/error01.mp3","null","","","","","0","22","25","300","[""0029_N0300_K0025_CLIQUE"",""0024_N0300_K0025_NOCLIQUE""]"
"","","","","","canvas-keyboard-response","101","716815","0.0-71.0-0.0-0.0","","6266","","arrowright","[247,61,105,97,52,220,215,154,218,136,258,165,278,238,98,208,257,195,159,74,104,243,210,254,271,248,137,17,21,95,117,235,244,5,285,19,20,291,185,34,58,229,91,261,96,274,150,246,214,101,113,232,40,67,41,64,292,36,146,8,116,54,10,81,144,223,251,209,183,112,175,145,79,266,286,153,118,191,31,201,33,26,107,287,222,66,127,49,280,38,108,173,197,163,132,24,102,90,233,158,111,275,60,277,167,217,77,182,299,47,80,25,85,178,39,151,32,237,202,75,133,16,68,92,82,160,89,194,29,172,130,242,259,2,135,93,44,272,72,192,141,269,284,109,94,200,121,212,9,162,264,134,55,99,156,231,177,78,289,76,265,42,56,161,267,199,126,263,125,256,188,6,50,207,225,124,13,273,23,184,279,296,59,106,174,171,193,53,100,288,203,43,71,115,63,260,122,180,14,228,293,83,169,290,140,114,283,240,189,15,205,131,252,226,213,0,110,249,298,157,262,198,282,62,250,1,241,123,216,88,147,30,281,168,7,268,187,276,245,227,48,138,155,119,70,27,224,234,211,86,69,28,103,128,239,148,37,190,294,45,149,11,51,12,57,22,3,65,166,18,230,152,255,164,46,221,179,129,142,295,143,73,181,196,206,4,253,297,84,236,87,219,120,35,186,176,204,270,170,139]","arrowleft","","false","0","23","25","300","[""0072_N0300_K0025_CLIQUE"",""0073_N0300_K0025_NOCLIQUE""]"
"","","","","","audio-keyboard-response","102","717804","0.0-71.0-0.0-1.0","","null","audio_feedback/wrong/error01.mp3","null","","","","","0","23","25","300","[""0072_N0300_K0025_CLIQUE"",""0073_N0300_K0025_NOCLIQUE""]"
"","","","","","canvas-keyboard-response","103","718909","0.0-72.0-0.0-0.0","","1025","","arrowleft","[82,253,1,212,155,84,278,173,32,119,168,235,282,134,122,243,222,148,263,137,200,0,94,113,7,288,244,249,146,205,145,154,195,16,42,63,285,61,231,129,176,99,24,281,93,209,238,256,199,53,125,43,284,264,114,97,46,104,269,60,140,28,270,273,31,45,189,272,11,295,133,291,157,88,123,81,107,14,57,27,58,126,266,246,49,115,12,77,9,170,236,188,20,228,213,220,241,239,274,259,6,149,262,8,298,178,175,121,159,183,141,101,226,283,15,277,22,215,131,271,78,286,162,19,116,197,2,130,139,167,182,230,261,150,48,91,110,128,181,98,255,4,10,276,171,208,161,108,96,74,132,251,180,95,186,69,102,201,194,294,224,80,250,147,234,73,165,258,62,54,164,275,193,92,221,237,29,65,184,192,66,71,142,248,242,216,293,51,252,36,204,156,25,64,260,177,227,191,190,13,38,124,144,214,72,151,89,202,90,218,169,34,23,280,210,112,297,40,299,118,111,267,21,106,206,290,87,207,100,50,160,83,268,127,223,47,136,135,59,18,76,105,219,240,41,152,279,120,211,153,217,232,68,203,247,35,163,5,17,30,85,44,254,292,287,103,233,225,56,79,187,196,55,39,70,33,185,117,109,166,198,257,172,289,158,86,296,26,37,143,52,138,265,245,75,229,179,3,174,67]","arrowright","","false","0","24","20","300","[""0079_N0300_K0020_NOCLIQUE"",""0083_N0300_K0020_CLIQUE""]"
"","","","","","audio-keyboard-response","104","719869","0.0-72.0-0.0-1.0","","null","audio_feedback/wrong/error01.mp3","null","","","","","0","24","20","300","[""0079_N0300_K0020_NOCLIQUE"",""0083_N0300_K0020_CLIQUE""]"
"","","","","","canvas-keyboard-response","105","722079","0.0-73.0-0.0-0.0","","2130",""," ","[122,176,2,45,230,79,83,220,28,85,210,36,187,183,13,168,78,31,5,38,196,151,249,238,136,109,293,59,194,105,273,73,66,224,27,71,219,202,118,6,55,101,135,190,267,26,89,142,276,112,140,74,10,49,193,192,40,116,133,22,48,95,113,155,60,214,93,217,129,146,213,14,262,152,137,138,111,149,32,127,215,92,218,204,100,0,229,228,7,145,15,84,91,44,114,186,188,147,254,160,52,51,185,156,292,126,284,246,20,169,296,253,234,261,42,117,157,80,150,226,265,82,46,227,171,96,75,281,34,268,121,130,65,255,97,288,47,115,256,221,290,163,191,175,269,248,35,278,43,277,134,104,124,162,19,11,178,181,57,285,128,211,166,257,16,54,50,177,297,203,86,29,235,139,247,252,195,236,199,158,37,99,270,72,174,87,225,77,4,209,231,198,239,289,291,8,94,131,299,53,88,250,212,153,200,106,161,207,282,170,237,30,102,90,159,76,154,3,258,144,119,294,173,272,1,286,241,243,23,232,266,251,33,208,274,222,260,63,182,165,39,103,12,98,184,148,271,189,275,107,64,81,17,263,167,62,172,24,69,125,242,120,164,216,141,197,287,9,143,295,201,108,58,179,279,298,264,240,132,180,123,68,21,244,70,206,67,283,18,259,233,205,223,56,110,25,41,61,245,280]","arrowright","","","0","25","20","300","[""0031_N0300_K0020_NOCLIQUE"",""0020_N0300_K0020_CLIQUE""]"
"","","","","","audio-keyboard-response","106","723050","0.0-73.0-0.0-1.0","","null","audio_feedback/shuffles/shuffle01.mp3","null","","","","","0","25","20","300","[""0031_N0300_K0020_NOCLIQUE"",""0020_N0300_K0020_CLIQUE""]"
"","","","","","canvas-keyboard-response","107","724788","0.0-73.1-0.1-0.1","","1642",""," ","[201,231,121,72,261,102,245,273,267,92,89,200,67,167,225,269,222,153,21,165,193,224,184,279,83,30,181,29,107,172,256,248,118,19,80,51,218,250,246,287,78,154,298,36,270,73,159,81,57,244,185,206,68,4,3,198,114,188,60,146,62,5,210,2,202,132,283,190,9,178,277,228,249,17,215,99,195,16,208,217,127,50,205,8,45,85,191,211,15,293,288,164,100,34,38,152,199,94,142,59,11,194,28,182,197,95,56,176,24,214,253,20,147,213,155,75,233,13,281,40,110,292,0,48,10,221,158,144,238,204,162,183,149,174,227,232,299,295,26,179,148,168,226,6,252,212,145,69,236,262,39,14,12,22,77,223,272,63,55,169,116,241,49,258,187,134,216,242,119,240,96,58,31,140,126,42,136,101,219,35,175,160,108,129,123,247,278,47,139,284,105,196,141,220,207,124,90,7,52,25,280,104,170,255,274,166,98,156,268,44,251,131,91,189,229,177,115,171,79,84,290,106,46,122,71,23,151,230,297,112,117,260,65,150,180,120,235,203,70,86,243,113,61,271,275,41,109,43,234,209,289,186,111,97,27,54,276,87,137,128,76,263,1,163,254,157,294,133,161,74,264,257,18,66,291,296,138,33,82,32,259,125,265,266,237,37,282,93,103,53,135,130,88,239,286,173,64,285,192,143]","arrowright","","","0","25","20","300","[""0031_N0300_K0020_NOCLIQUE"",""0020_N0300_K0020_CLIQUE""]"
"","","","","","audio-keyboard-response","108","725744","0.0-73.1-0.1-1.1","","null","audio_feedback/shuffles/shuffle01.mp3","null","","","","","0","25","20","300","[""0031_N0300_K0020_NOCLIQUE"",""0020_N0300_K0020_CLIQUE""]"
"","","","","","canvas-keyboard-response","109","726236","0.0-73.2-0.2-0.2","","409","","arrowright","[134,182,35,124,210,266,129,253,272,11,19,172,254,49,231,58,211,27,45,113,187,185,298,44,56,71,55,217,115,271,46,280,34,132,152,36,171,226,252,168,186,26,73,245,232,240,17,275,260,296,208,191,181,69,15,28,48,133,37,203,64,89,299,236,130,194,267,84,9,60,102,82,145,78,29,207,105,285,277,70,157,68,183,51,196,224,188,122,54,273,146,264,137,62,117,12,268,24,295,270,53,294,22,61,276,174,81,227,222,77,281,297,110,50,233,8,153,261,67,109,96,246,179,150,173,120,103,142,155,256,39,265,286,118,221,66,287,72,119,291,52,1,23,230,228,213,75,20,83,248,116,199,41,189,212,177,202,104,206,229,209,147,176,278,158,128,144,143,138,178,293,16,219,167,21,197,214,6,47,100,204,216,283,74,249,127,205,163,200,131,94,161,43,32,112,180,269,148,92,282,123,250,59,98,237,288,18,220,79,218,255,13,184,169,93,30,274,159,2,3,95,149,65,0,175,14,165,4,223,292,190,162,241,201,25,85,170,88,263,192,87,198,225,284,139,76,257,126,166,106,99,243,101,238,242,235,57,97,239,193,262,5,279,63,38,42,156,259,33,164,234,151,40,107,80,251,195,125,247,31,111,160,290,136,244,141,86,121,7,10,108,215,140,90,258,91,135,114,154,289]","arrowright","","true","0","25","20","300","[""0031_N0300_K0020_NOCLIQUE"",""0020_N0300_K0020_CLIQUE""]"
"","","","","","audio-keyboard-response","110","726964","0.0-73.2-0.2-1.2","","null","audio_feedback/right/coin01.mp3","null","","","","","0","25","20","300","[""0031_N0300_K0020_NOCLIQUE"",""0020_N0300_K0020_CLIQUE""]"
"","","","","","canvas-keyboard-response","111","732211","0.0-74.0-0.0-0.0","","5165",""," ","[207,289,63,210,71,151,266,7,252,103,131,8,240,161,290,92,179,297,231,230,126,3,86,194,185,158,274,42,143,40,21,288,16,77,168,200,269,29,263,127,211,4,180,238,271,174,73,70,57,118,96,76,172,177,132,222,219,294,255,123,100,44,279,111,262,105,109,188,38,169,55,258,190,159,233,134,95,278,104,83,228,216,192,264,113,253,24,54,6,33,19,27,284,249,125,11,94,187,246,146,193,43,166,147,167,115,69,243,163,286,64,97,229,232,49,117,41,9,141,98,186,2,120,287,133,102,0,162,135,202,267,160,218,26,256,88,114,209,152,265,280,155,189,14,122,221,157,204,156,295,235,101,176,87,223,121,145,75,259,298,149,268,182,236,36,128,28,112,130,212,39,37,270,129,46,195,17,273,79,251,234,296,142,10,65,59,51,124,52,20,220,250,272,5,154,261,91,107,68,245,203,74,181,205,89,148,206,282,299,197,283,139,213,136,67,227,215,237,116,13,178,277,90,201,225,214,153,30,66,15,257,239,247,226,23,165,254,150,144,93,72,85,108,110,53,242,140,224,293,191,199,61,164,82,285,32,171,119,62,1,80,47,173,260,184,25,22,58,138,175,198,35,45,56,276,34,78,106,183,292,48,137,50,170,208,99,60,275,196,291,248,18,241,81,12,244,217,84,31,281]","arrowright","","","0","26","15","300","[""0091_N0300_K0015_NOCLIQUE"",""0056_N0300_K0015_CLIQUE""]"
"","","","","","audio-keyboard-response","112","733196","0.0-74.0-0.0-1.0","","null","audio_feedback/shuffles/shuffle01.mp3","null","","","","","0","26","15","300","[""0091_N0300_K0015_NOCLIQUE"",""0056_N0300_K0015_CLIQUE""]"
"","","","","","canvas-keyboard-response","113","735728","0.0-74.1-0.1-0.1","","2454",""," ","[201,89,198,56,268,143,103,95,137,245,37,69,166,105,277,119,140,18,214,241,3,292,64,160,126,144,87,2,43,88,134,212,5,45,61,55,195,115,54,114,236,16,120,149,163,216,145,261,217,158,75,0,93,12,4,239,65,169,39,113,11,228,48,14,188,230,240,232,19,219,196,10,172,141,58,157,293,90,31,129,206,127,47,221,282,162,296,295,116,148,42,68,234,92,1,297,34,175,40,85,23,38,280,28,213,70,263,25,250,180,72,8,205,184,222,101,248,192,178,118,227,7,125,60,191,63,153,131,44,187,26,97,20,226,210,27,138,186,117,122,147,130,30,225,80,252,255,185,264,121,176,204,161,253,33,86,71,83,22,258,133,257,288,106,273,286,231,287,15,171,123,24,81,136,108,278,150,202,246,237,67,289,17,53,190,209,62,167,6,84,243,299,111,51,251,128,82,50,256,259,260,274,207,235,156,298,173,211,52,76,203,189,249,77,59,110,41,291,78,74,220,244,168,132,200,151,242,170,183,266,100,182,272,224,194,233,94,135,104,179,96,124,35,139,229,21,271,275,155,79,223,32,269,154,208,199,294,146,247,290,109,165,98,36,66,174,99,49,262,177,57,281,91,46,9,107,284,102,73,265,276,193,29,254,279,159,283,181,164,142,215,238,270,285,197,112,152,218,267,13]","arrowright","","","0","26","15","300","[""0091_N0300_K0015_NOCLIQUE"",""0056_N0300_K0015_CLIQUE""]"
"","","","","","audio-keyboard-response","114","736701","0.0-74.1-0.1-1.1","","null","audio_feedback/shuffles/shuffle01.mp3","null","","","","","0","26","15","300","[""0091_N0300_K0015_NOCLIQUE"",""0056_N0300_K0015_CLIQUE""]"
"","","","","","canvas-keyboard-response","115","737238","0.0-74.2-0.2-0.2","","458","","arrowleft","[289,111,130,216,100,262,239,24,222,102,8,6,164,135,119,231,253,273,126,269,287,15,7,61,66,182,252,179,3,41,47,203,162,39,146,246,79,26,237,205,21,103,36,174,82,259,230,116,96,124,170,85,49,293,22,1,139,90,110,107,268,128,212,143,240,159,104,151,211,5,121,91,197,206,30,228,83,93,265,87,142,263,234,299,276,266,58,192,92,52,243,60,165,44,76,29,194,250,245,256,161,50,175,183,129,69,156,64,55,67,59,80,242,4,101,114,218,33,201,152,178,12,132,207,195,264,149,199,38,297,109,75,217,163,272,13,133,286,210,10,248,167,148,147,169,257,34,168,283,19,166,261,2,20,190,31,296,32,274,251,226,288,108,298,208,281,144,78,225,37,233,117,271,99,138,196,236,106,258,154,270,68,0,209,57,88,220,84,73,131,16,278,51,18,123,214,187,291,255,188,17,115,284,94,202,157,145,53,219,191,112,54,89,158,185,27,171,153,45,48,28,294,176,247,260,86,11,160,97,63,232,122,213,215,42,204,9,105,224,279,235,280,137,177,136,77,200,282,134,241,249,140,95,23,189,141,72,292,172,25,127,290,229,113,254,62,65,46,98,275,223,285,74,295,173,35,198,43,184,227,71,120,40,267,56,180,221,244,193,70,150,125,277,181,118,81,238,186,14,155]","arrowright","","false","0","26","15","300","[""0091_N0300_K0015_NOCLIQUE"",""0056_N0300_K0015_CLIQUE""]"
"","","","","","audio-keyboard-response","116","738211","0.0-74.2-0.2-1.2","","null","audio_feedback/wrong/error01.mp3","null","","","","","0","26","15","300","[""0091_N0300_K0015_NOCLIQUE"",""0056_N0300_K0015_CLIQUE""]"
"","","","","","canvas-keyboard-response","117","739563","0.0-75.0-0.0-0.0","","1273","","arrowright","[206,101,64,251,27,90,116,6,186,65,100,8,277,242,224,241,52,216,40,202,21,209,59,142,211,68,162,108,97,79,222,243,45,122,250,24,272,280,16,177,62,10,80,213,81,265,4,182,44,258,231,286,144,104,157,256,71,86,163,267,249,12,22,289,208,88,145,134,53,93,169,13,105,253,184,195,284,89,58,191,203,217,296,29,67,69,269,43,183,99,178,221,198,294,252,297,85,151,293,148,274,166,153,236,261,18,36,268,11,95,129,146,39,87,5,194,271,125,50,0,225,141,56,281,254,228,1,147,46,237,111,288,72,128,135,246,60,255,164,290,152,17,136,260,32,155,131,159,140,106,170,257,91,245,127,82,78,179,193,276,130,3,298,173,54,20,220,74,77,26,150,51,285,84,132,66,295,42,121,189,34,38,114,73,176,212,28,98,233,31,247,55,109,291,102,49,273,226,139,279,262,188,143,235,181,218,282,270,126,299,201,124,187,229,238,292,107,275,223,199,180,83,47,33,278,118,200,185,158,240,264,70,167,227,174,92,63,113,48,96,244,9,117,239,137,25,215,287,57,23,219,76,248,7,161,266,197,172,41,263,230,37,61,171,192,204,283,160,30,210,214,19,123,259,35,154,133,175,234,14,110,119,156,138,196,190,120,115,232,103,149,2,205,94,75,207,165,112,15,168]","arrowright","","true","0","27","15","300","[""0034_N0300_K0015_NOCLIQUE"",""0043_N0300_K0015_CLIQUE""]"
"","","","","","audio-keyboard-response","118","740290","0.0-75.0-0.0-1.0","","null","audio_feedback/right/coin01.mp3","null","","","","","0","27","15","300","[""0034_N0300_K0015_NOCLIQUE"",""0043_N0300_K0015_CLIQUE""]"
"","","","","","canvas-keyboard-response","119","742811","0.0-76.0-0.0-0.0","","2444","","arrowright","[27,283,166,32,87,24,6,156,57,130,52,207,198,292,277,82,56,119,39,66,16,276,77,55,85,191,115,285,173,37,28,75,34,279,278,51,254,94,230,212,53,271,282,171,90,216,287,113,62,8,155,26,259,157,159,226,251,221,238,67,125,35,241,296,84,224,284,137,269,168,21,227,63,98,199,200,58,236,201,210,209,148,92,0,81,117,127,189,49,147,232,144,43,255,95,268,274,150,264,54,204,250,138,65,164,36,235,105,146,223,154,187,102,141,219,109,118,153,88,182,11,12,208,298,71,262,240,220,99,9,257,299,214,247,289,161,78,184,122,121,61,59,163,242,69,176,83,134,22,30,294,17,234,229,206,193,120,290,100,128,106,174,126,286,103,2,131,245,79,129,249,86,263,197,18,42,270,183,186,169,228,25,266,192,175,145,108,295,273,167,14,196,46,211,68,133,60,181,104,45,47,297,217,253,97,205,231,237,293,123,215,188,265,243,149,267,48,3,20,222,80,172,162,4,33,72,64,180,143,93,38,151,135,136,165,244,213,233,203,248,177,142,101,194,96,50,116,112,195,107,29,261,139,158,272,185,74,252,1,170,31,202,132,179,70,275,5,256,41,281,44,239,288,260,140,40,110,246,160,19,218,7,13,280,10,124,258,73,91,89,225,291,114,152,76,23,190,15,178,111]","arrowleft","","false","0","28","10","300","[""0054_N0300_K0010_CLIQUE"",""0079_N0300_K0010_NOCLIQUE""]"
"","","","","","audio-keyboard-response","120","743784","0.0-76.0-0.0-1.0","","null","audio_feedback/wrong/error01.mp3","null","","","","","0","28","10","300","[""0054_N0300_K0010_CLIQUE"",""0079_N0300_K0010_NOCLIQUE""]"
"","","","","","canvas-keyboard-response","121","745767","0.0-77.0-0.0-0.0","","1899","","arrowright","[201,203,33,14,67,150,119,127,4,130,249,165,60,208,70,98,143,47,63,202,149,45,23,78,210,228,148,73,273,27,275,36,237,277,10,299,74,214,25,209,41,288,164,116,276,154,62,32,181,259,169,88,51,144,81,167,242,114,231,69,0,117,109,267,287,280,85,99,255,160,56,89,136,55,297,80,112,260,5,92,77,153,207,176,191,248,283,108,53,250,22,282,219,121,1,87,82,197,135,6,180,133,241,243,155,139,232,111,76,142,16,234,9,146,90,292,28,95,96,132,131,215,58,189,105,206,195,296,268,270,91,64,258,17,71,230,124,236,2,37,147,170,54,185,182,224,212,293,162,26,115,289,174,84,66,186,11,49,271,220,7,265,29,75,102,240,192,122,42,83,3,86,52,253,65,57,198,261,171,225,43,226,101,46,166,13,218,188,221,12,107,19,123,257,68,213,128,161,184,163,295,284,281,118,20,298,290,269,294,272,252,175,235,39,134,278,93,103,194,140,199,172,38,264,285,178,151,266,145,104,279,94,187,40,254,48,229,173,141,157,247,205,31,251,137,30,183,126,196,61,222,256,44,15,35,190,211,34,246,200,179,263,204,193,227,239,291,244,8,274,245,286,217,21,138,168,24,120,72,110,59,18,158,97,129,216,238,106,100,152,50,223,156,233,159,125,262,79,113,177]","arrowright","","true","0","29","10","300","[""0073_N0300_K0010_NOCLIQUE"",""0025_N0300_K0010_CLIQUE""]"
"","","","","","audio-keyboard-response","122","746489","0.0-77.0-0.0-1.0","","null","audio_feedback/right/coin01.mp3","null","","","","","0","29","10","300","[""0073_N0300_K0010_NOCLIQUE"",""0025_N0300_K0010_CLIQUE""]"
"","","","","","instructions","123","749602","0.0-78.0","[{""page_index"":0,""viewing_time"":3110}]","3110","","","","","","","","","","",""
"","","","","","canvas-keyboard-response","124","750720","0.0-79.0-0.0-0.0","","1039","","arrowright","[63,101,184,64,72,226,154,178,137,44,100,27,17,65,79,173,51,204,105,272,234,250,36,175,40,77,73,203,249,70,50,75,221,246,90,143,259,225,15,159,47,2,20,102,292,109,247,89,275,25,113,171,7,190,93,265,145,131,49,165,199,197,133,32,242,195,285,81,10,120,217,28,216,211,119,286,166,273,263,35,229,38,12,128,241,150,258,264,248,183,167,236,281,59,144,160,48,9,176,0,123,296,138,86,186,141,31,136,218,172,139,179,83,125,41,230,207,92,33,142,103,283,223,148,124,161,21,30,245,268,213,278,134,232,67,181,43,112,185,170,257,115,293,24,252,243,3,202,182,220,132,94,6,240,46,219,126,121,146,262,280,215,299,200,74,140,255,8,114,266,23,55,194,191,244,108,239,295,269,76,260,116,66,210,164,135,276,289,169,156,233,104,62,98,174,277,209,57,201,235,87,85,288,11,60,297,110,238,99,271,298,78,274,228,97,254,270,68,96,56,253,282,58,53,149,227,107,130,151,111,163,91,106,212,256,129,26,5,196,95,261,231,54,192,4,61,188,287,71,267,127,214,290,153,84,19,251,82,206,29,147,162,122,88,222,152,13,22,193,157,180,205,208,80,45,294,224,16,1,18,155,291,198,237,158,168,34,189,177,14,39,52,279,42,118,284,187,69,117,37]","arrowright","","true","1","0","90","300","[""0077_N0300_K0090_NOCLIQUE"",""0021_N0300_K0090_CLIQUE""]"
"","","","","","audio-keyboard-response","125","751436","0.0-79.0-0.0-1.0","","null","audio_feedback/right/coin01.mp3","null","","","","","1","0","90","300","[""0077_N0300_K0090_NOCLIQUE"",""0021_N0300_K0090_CLIQUE""]"
"","","","","","canvas-keyboard-response","126","752270","0.0-80.0-0.0-0.0","","754","","arrowleft","[237,290,245,227,248,249,106,239,158,285,258,50,179,111,152,58,97,214,295,187,207,34,261,90,235,20,79,208,201,128,122,155,191,264,143,236,219,101,147,13,51,126,33,220,293,85,218,150,103,31,167,52,168,170,291,18,84,125,46,282,232,107,133,9,86,156,190,64,240,159,273,25,157,267,274,94,257,36,12,69,116,138,1,280,213,144,243,238,289,30,250,260,70,7,8,181,2,287,246,297,120,108,78,99,154,74,174,202,62,140,277,197,43,183,215,96,169,110,127,196,14,294,211,57,185,182,60,278,28,72,198,177,153,42,180,148,299,121,205,136,92,71,3,171,93,145,77,95,223,268,262,100,253,129,265,256,5,73,269,32,105,91,141,54,104,124,68,193,53,216,130,203,89,87,173,17,82,222,45,65,217,189,224,241,66,38,229,233,298,40,195,114,113,176,88,115,123,63,165,135,206,109,199,75,188,296,41,24,272,231,48,19,132,242,22,29,27,112,288,119,26,225,23,142,10,284,151,192,186,209,55,279,118,76,263,161,35,254,16,283,292,15,67,166,160,172,228,266,131,117,178,139,11,271,210,163,37,212,259,98,184,286,164,221,270,234,4,204,244,275,149,194,251,83,247,146,81,252,49,200,21,39,0,102,276,61,226,230,47,134,6,175,255,56,137,59,281,162,44,80]","arrowleft","","true","1","1","90","300","[""0019_N0300_K0090_CLIQUE"",""0011_N0300_K0090_NOCLIQUE""]"
"","","","","","audio-keyboard-response","127","752992","0.0-80.0-0.0-1.0","","null","audio_feedback/right/coin01.mp3","null","","","","","1","1","90","300","[""0019_N0300_K0090_CLIQUE"",""0011_N0300_K0090_NOCLIQUE""]"
"","","","","","canvas-keyboard-response","128","753917","0.0-81.0-0.0-0.0","","849","","arrowright","[254,70,59,75,1,224,178,38,122,218,126,52,171,97,2,292,265,169,125,286,214,139,167,35,40,132,269,287,146,185,110,103,220,180,283,44,267,242,156,74,148,117,183,90,0,293,109,231,266,14,201,175,262,138,275,54,79,47,48,36,107,144,285,127,45,230,219,270,161,251,206,163,197,13,5,226,135,25,46,200,238,289,114,253,72,64,105,256,208,88,98,207,277,295,278,128,150,281,145,123,279,239,130,86,31,249,176,18,16,153,129,94,162,76,6,7,131,26,184,276,168,33,182,106,9,263,160,141,113,143,274,188,66,243,15,100,164,203,261,240,81,252,236,58,196,191,282,166,84,11,257,112,212,194,248,22,296,134,280,186,288,264,232,99,192,147,198,67,24,273,10,190,271,95,225,202,118,179,142,27,83,149,211,174,21,17,170,115,250,53,3,152,29,19,51,102,151,91,133,137,73,244,34,210,87,41,57,297,32,4,119,61,124,258,136,284,209,92,60,294,101,290,172,205,229,259,216,245,85,272,43,155,104,158,157,49,140,165,187,65,68,93,221,234,12,241,111,96,222,177,246,71,63,80,217,62,120,228,204,42,28,298,291,223,77,227,199,82,189,23,50,78,193,260,181,37,116,237,121,39,20,268,255,69,8,56,173,154,195,213,108,247,215,30,299,233,159,235,55,89]","arrowright","","true","1","2","80","300","[""0063_N0300_K0080_NOCLIQUE"",""0040_N0300_K0080_CLIQUE""]"
"","","","","","audio-keyboard-response","129","754641","0.0-81.0-0.0-1.0","","null","audio_feedback/right/coin01.mp3","null","","","","","1","2","80","300","[""0063_N0300_K0080_NOCLIQUE"",""0040_N0300_K0080_CLIQUE""]"
"","","","","","canvas-keyboard-response","130","757784","0.0-82.0-0.0-0.0","","3066","","arrowright","[1,100,218,80,298,0,172,294,104,257,82,126,248,274,222,215,140,85,252,87,182,258,188,53,45,292,239,268,60,118,36,105,289,260,226,198,139,296,145,203,165,19,40,269,49,197,155,109,4,213,201,152,116,91,159,185,98,204,66,50,288,122,108,279,211,282,166,63,227,221,37,230,20,88,93,125,207,299,114,253,251,160,86,254,273,74,293,55,71,255,39,231,147,6,180,62,72,200,278,16,96,121,246,175,220,259,17,181,146,5,225,263,26,164,178,194,103,202,15,107,12,163,83,132,191,95,129,205,162,158,199,27,84,90,280,176,22,249,70,170,142,99,33,187,131,287,223,47,148,183,21,130,235,42,110,184,228,54,135,262,127,154,75,113,31,229,76,284,128,11,13,73,186,149,10,281,210,9,169,264,35,29,77,179,123,168,153,34,67,241,101,89,157,3,247,124,244,261,276,48,286,189,81,8,290,283,243,240,7,190,232,242,209,46,237,219,58,212,25,167,52,150,217,106,117,144,177,256,115,161,224,267,234,156,275,23,65,134,151,2,136,238,119,138,208,61,38,41,196,112,57,141,79,250,265,195,291,173,295,285,277,206,270,78,174,120,14,64,143,236,297,214,111,271,233,171,193,272,32,24,43,69,44,59,216,18,94,92,97,51,245,137,133,30,56,102,266,28,68,192]","arrowright","","true","1","3","80","300","[""0089_N0300_K0080_NOCLIQUE"",""0098_N0300_K0080_CLIQUE""]"
"","","","","","audio-keyboard-response","131","758519","0.0-82.0-0.0-1.0","","null","audio_feedback/right/coin01.mp3","null","","","","","1","3","80","300","[""0089_N0300_K0080_NOCLIQUE"",""0098_N0300_K0080_CLIQUE""]"
"","","","","","canvas-keyboard-response","132","759790","0.0-83.0-0.0-0.0","","1192","","arrowleft","[237,137,274,159,188,21,107,10,287,184,276,108,98,260,115,214,95,149,192,103,203,100,255,208,279,101,60,250,178,33,207,251,296,8,165,253,125,268,299,212,187,194,196,180,135,228,186,75,218,206,91,35,118,190,169,157,112,106,154,31,265,240,102,266,280,11,223,235,254,156,71,131,24,201,189,204,15,167,126,41,5,26,191,0,236,27,215,142,110,231,229,181,59,138,74,73,246,261,275,209,32,4,162,94,243,241,83,65,114,79,217,48,116,245,14,281,141,230,42,44,139,127,238,109,9,262,211,147,30,259,263,49,195,122,256,170,23,247,51,183,37,67,130,25,53,273,248,40,39,233,18,289,70,16,89,119,168,105,12,185,46,249,225,161,113,45,82,19,132,224,200,298,133,80,72,234,13,272,291,84,68,50,99,163,1,77,85,222,66,278,34,198,171,202,227,283,76,277,97,220,282,153,160,288,177,151,28,123,284,104,69,294,226,164,239,86,290,61,216,267,182,96,62,36,269,38,193,146,205,271,148,128,78,175,129,17,81,92,7,143,29,213,257,87,56,252,54,20,145,174,6,293,166,22,88,264,270,150,242,199,286,244,295,179,121,93,64,140,55,158,2,258,155,63,197,144,292,58,232,120,221,124,52,173,111,3,152,134,90,117,285,172,219,57,43,47,297,210,136,176]","arrowleft","","true","1","4","70","300","[""0014_N0300_K0070_CLIQUE"",""0049_N0300_K0070_NOCLIQUE""]"
"","","","","","audio-keyboard-response","133","760515","0.0-83.0-0.0-1.0","","null","audio_feedback/right/coin01.mp3","null","","","","","1","4","70","300","[""0014_N0300_K0070_CLIQUE"",""0049_N0300_K0070_NOCLIQUE""]"
"","","","","","canvas-keyboard-response","134","761377","0.0-84.0-0.0-0.0","","782","","arrowright","[178,152,281,69,111,229,139,31,211,252,196,188,270,54,297,124,158,74,18,186,39,107,37,174,126,276,191,114,144,44,8,203,43,57,129,286,62,128,294,204,55,79,274,205,181,1,110,213,277,34,238,298,140,228,151,97,251,87,193,201,267,50,141,164,108,179,163,93,258,154,250,52,216,208,0,215,234,113,207,253,32,3,132,146,235,172,75,262,99,142,245,103,30,223,284,293,65,289,15,82,269,165,227,150,259,190,287,73,96,161,209,192,226,153,137,182,83,115,206,42,7,90,6,2,219,89,173,242,295,148,117,254,47,288,59,291,106,46,14,9,246,12,200,230,218,290,109,271,22,155,145,283,168,256,28,263,40,120,119,41,195,199,121,282,292,180,95,265,138,237,249,5,88,67,56,175,143,183,68,231,225,127,296,159,217,194,264,198,241,280,20,167,125,38,243,224,102,64,4,149,220,136,21,35,116,273,91,278,133,260,189,71,24,112,285,10,130,131,255,29,118,122,76,236,58,166,240,49,104,48,70,19,61,221,232,222,247,66,85,123,212,135,27,233,185,171,11,248,187,92,51,26,157,169,77,214,94,162,105,210,100,197,272,184,299,266,257,202,239,80,261,33,98,72,147,268,170,63,17,23,156,101,279,13,78,244,160,25,45,36,53,86,81,84,16,275,177,60,134,176]","arrowright","","true","1","5","70","300","[""0007_N0300_K0070_NOCLIQUE"",""0036_N0300_K0070_CLIQUE""]"
"","","","","","audio-keyboard-response","135","762094","0.0-84.0-0.0-1.0","","null","audio_feedback/right/coin01.mp3","null","","","","","1","5","70","300","[""0007_N0300_K0070_NOCLIQUE"",""0036_N0300_K0070_CLIQUE""]"
"","","","","","canvas-keyboard-response","136","763102","0.0-85.0-0.0-0.0","","930","","arrowleft","[186,126,224,268,166,77,11,231,70,21,263,201,149,69,76,159,146,265,140,227,242,34,119,264,233,161,188,273,259,95,246,157,218,32,38,287,167,198,284,93,170,158,112,35,114,138,66,81,6,151,99,267,277,90,194,101,131,118,226,195,153,288,155,225,187,122,184,117,272,91,13,290,121,293,104,22,105,235,213,178,98,148,33,232,292,221,202,40,85,67,7,291,243,72,169,8,210,298,229,142,191,80,289,74,281,134,29,203,92,180,141,16,15,123,120,205,237,168,51,197,97,275,27,30,4,45,299,44,46,48,262,214,83,75,278,68,136,41,103,297,192,61,59,282,124,129,196,252,19,12,56,113,269,18,254,220,163,107,283,247,206,62,100,145,28,110,0,160,207,172,60,248,238,25,132,73,78,174,43,52,296,96,31,89,199,108,190,230,65,175,94,215,241,219,102,3,125,143,147,137,106,63,228,182,274,144,223,244,115,58,171,280,211,37,217,26,253,9,39,135,209,257,189,23,116,5,204,276,200,245,10,64,193,249,49,20,266,133,84,212,55,234,88,164,185,36,86,208,295,165,183,279,162,53,24,294,150,2,128,54,240,177,216,57,17,250,152,256,109,251,111,154,239,258,139,79,255,176,179,50,1,222,271,260,42,285,173,82,156,87,71,270,236,130,286,47,127,14,181,261]","arrowleft","","true","1","6","65","300","[""0050_N0300_K0065_CLIQUE"",""0096_N0300_K0065_NOCLIQUE""]"
"","","","","","audio-keyboard-response","137","763836","0.0-85.0-0.0-1.0","","null","audio_feedback/right/coin01.mp3","null","","","","","1","6","65","300","[""0050_N0300_K0065_CLIQUE"",""0096_N0300_K0065_NOCLIQUE""]"
"","","","","","canvas-keyboard-response","138","764754","0.0-86.0-0.0-0.0","","839","","arrowright","[288,215,198,129,271,16,152,38,234,60,58,48,223,123,250,121,201,17,52,206,148,150,28,263,79,275,285,255,230,278,260,203,294,251,76,42,132,220,190,293,283,43,2,61,125,75,247,164,137,229,170,295,212,208,108,262,126,162,290,194,41,49,106,10,233,13,69,266,97,92,100,89,94,181,163,138,280,27,292,277,231,258,12,205,159,20,118,169,216,299,207,88,14,29,236,254,187,264,269,244,46,54,3,113,235,143,268,173,127,153,238,109,96,188,77,80,142,141,158,103,222,70,110,267,241,33,134,178,40,253,133,226,218,184,261,171,25,182,87,176,102,279,117,165,224,228,174,5,72,202,145,157,265,245,199,232,15,239,139,185,161,180,99,22,287,9,177,67,273,146,248,252,32,85,259,120,65,68,191,82,11,73,71,209,1,0,270,53,124,167,154,35,211,95,37,140,119,135,281,84,179,196,243,105,276,18,83,51,55,282,151,36,59,237,284,107,39,104,19,93,291,210,172,57,200,31,186,149,45,21,98,112,63,175,160,136,23,26,47,81,147,297,50,111,7,4,256,298,6,130,166,272,131,155,240,197,56,227,213,257,78,249,286,144,44,156,195,289,221,90,128,274,24,86,242,114,217,8,91,74,34,192,219,122,225,296,115,214,62,246,193,64,30,183,168,66,116,204,101,189]","arrowright","","true","1","7","65","300","[""0095_N0300_K0065_NOCLIQUE"",""0031_N0300_K0065_CLIQUE""]"
"","","","","","audio-keyboard-response","139","765482","0.0-86.0-0.0-1.0","","null","audio_feedback/right/coin01.mp3","null","","","","","1","7","65","300","[""0095_N0300_K0065_NOCLIQUE"",""0031_N0300_K0065_CLIQUE""]"
"","","","","","canvas-keyboard-response","140","766488","0.0-87.0-0.0-0.0","","898","","arrowleft","[62,153,262,115,157,143,233,133,165,287,223,91,144,44,278,161,195,206,86,216,293,13,77,288,95,256,215,265,34,160,178,190,43,102,26,47,136,147,20,255,48,279,187,92,29,250,219,277,148,39,11,175,245,105,145,15,55,70,14,220,82,207,110,217,264,286,231,257,5,94,237,116,280,186,273,176,168,58,299,8,71,125,192,35,114,130,18,251,164,240,179,259,297,191,111,100,242,171,64,266,104,199,88,296,298,218,149,121,222,119,22,184,156,194,212,21,229,272,236,57,132,258,197,31,172,97,52,174,120,129,263,290,152,81,3,89,99,246,40,253,124,274,83,221,181,244,38,158,275,87,4,65,247,112,151,113,227,6,208,282,32,203,226,170,45,128,139,166,17,107,79,37,98,254,134,180,93,198,211,202,2,201,224,16,135,196,19,283,73,10,150,162,1,101,268,84,260,239,126,155,90,56,269,53,30,249,142,281,238,183,205,85,7,60,9,80,50,76,213,72,204,74,0,23,66,210,75,188,131,27,28,117,182,24,230,189,214,103,25,108,140,68,276,69,46,167,294,138,41,248,295,51,78,169,177,122,137,267,284,271,243,42,154,141,33,289,63,118,261,163,200,241,49,67,285,225,185,252,123,209,291,292,61,12,96,54,109,234,159,235,232,106,59,193,127,36,146,228,173,270]","arrowleft","","true","1","8","60","300","[""0093_N0300_K0060_CLIQUE"",""0087_N0300_K0060_NOCLIQUE""]"
"","","","","","audio-keyboard-response","141","767202","0.0-87.0-0.0-1.0","","null","audio_feedback/right/coin01.mp3","null","","","","","1","8","60","300","[""0093_N0300_K0060_CLIQUE"",""0087_N0300_K0060_NOCLIQUE""]"
"","","","","","canvas-keyboard-response","142","768200","0.0-88.0-0.0-0.0","","892","","arrowright","[41,72,192,215,223,68,106,275,283,191,164,296,169,186,149,225,137,177,271,92,289,167,135,159,217,129,181,103,37,229,56,113,198,55,282,242,247,299,270,268,76,146,232,97,1,49,118,64,109,261,174,22,160,241,148,288,240,121,8,29,30,286,190,212,161,188,183,269,244,61,251,194,108,255,107,141,153,52,95,78,40,134,112,18,71,117,254,281,100,152,57,252,222,116,260,162,96,42,238,231,193,98,150,176,166,246,265,257,165,9,93,101,45,110,46,143,77,239,70,123,24,114,291,36,245,80,126,86,94,207,31,14,219,233,220,272,19,139,227,17,180,132,195,263,157,75,228,0,297,277,99,155,23,144,48,205,163,187,88,216,4,12,138,279,89,280,63,133,178,25,226,2,234,6,151,59,249,54,267,124,65,256,154,5,196,90,127,237,32,81,284,28,199,211,209,66,85,266,168,142,184,120,278,276,210,82,203,58,20,179,185,170,243,131,189,201,290,105,119,39,292,26,248,16,197,102,175,73,253,38,50,258,156,182,294,83,7,15,35,128,274,130,51,208,158,79,262,84,125,33,172,259,213,27,91,218,13,87,3,264,69,235,115,204,250,21,236,147,104,136,111,273,287,62,11,293,53,47,43,200,285,224,295,173,171,140,298,230,74,221,10,67,122,202,214,60,145,206,34,44]","arrowright","","true","1","9","60","300","[""0036_N0300_K0060_NOCLIQUE"",""0028_N0300_K0060_CLIQUE""]"
"","","","","","audio-keyboard-response","143","768921","0.0-88.0-0.0-1.0","","null","audio_feedback/right/coin01.mp3","null","","","","","1","9","60","300","[""0036_N0300_K0060_NOCLIQUE"",""0028_N0300_K0060_CLIQUE""]"
"","","","","","canvas-keyboard-response","144","770087","0.0-89.0-0.0-0.0","","1086","","arrowleft","[259,228,178,139,266,61,183,173,261,213,240,89,265,154,72,82,90,15,237,142,276,145,182,227,122,24,7,184,125,8,187,97,255,280,292,77,229,93,46,267,268,50,70,195,296,119,32,87,106,131,219,29,95,110,99,47,31,254,66,135,225,279,79,231,118,116,180,256,262,222,253,226,152,74,92,278,221,56,235,177,62,269,245,270,275,2,27,144,217,166,53,19,204,200,214,101,13,290,205,242,121,210,108,257,167,137,18,69,289,168,293,157,112,197,169,120,26,71,140,274,299,12,238,115,30,196,38,81,223,80,149,45,243,5,107,0,212,34,233,209,190,124,40,64,43,83,244,252,147,36,104,65,277,141,127,23,126,136,103,186,132,63,37,105,146,129,206,162,22,171,16,73,288,284,179,78,85,150,287,94,158,17,44,123,9,100,172,264,224,76,175,86,41,114,151,42,193,54,170,4,188,189,286,294,133,11,111,185,21,281,10,230,35,241,246,39,91,60,194,211,1,130,28,117,49,88,297,220,272,134,68,14,51,128,201,215,250,260,67,161,58,251,84,285,208,25,165,96,174,218,239,202,143,198,249,148,236,248,181,291,176,160,282,298,163,159,113,156,247,164,59,203,52,138,199,192,207,191,216,98,33,271,109,295,102,20,55,232,48,155,3,75,234,283,263,57,258,6,273,153]","arrowright","","false","1","10","55","300","[""0074_N0300_K0055_NOCLIQUE"",""0031_N0300_K0055_CLIQUE""]"
"","","","","","audio-keyboard-response","145","771045","0.0-89.0-0.0-1.0","","null","audio_feedback/wrong/error01.mp3","null","","","","","1","10","55","300","[""0074_N0300_K0055_NOCLIQUE"",""0031_N0300_K0055_CLIQUE""]"
"","","","","","canvas-keyboard-response","146","772360","0.0-90.0-0.0-0.0","","1234","","arrowright","[287,63,207,130,38,43,150,118,28,215,291,252,295,188,9,199,123,196,76,106,239,30,197,122,73,167,297,99,159,174,143,154,132,198,225,237,126,80,147,93,131,284,161,42,117,169,108,142,3,61,213,177,276,219,236,292,103,277,168,90,124,45,14,145,2,113,51,21,125,184,8,254,55,35,288,212,83,191,129,172,24,15,52,171,57,235,275,33,238,262,60,66,31,286,244,4,278,228,87,144,268,279,202,293,41,221,173,247,136,101,16,281,256,200,54,92,48,81,165,91,11,72,283,201,114,85,37,34,26,230,269,170,220,181,56,192,148,96,195,175,6,266,255,32,261,120,10,149,259,186,20,204,240,273,176,82,245,97,109,179,141,94,12,189,246,40,203,289,58,65,208,263,79,53,274,75,77,86,216,296,233,209,267,146,121,190,88,107,271,13,119,157,294,211,156,193,158,280,162,270,166,104,59,152,243,249,115,95,0,227,116,180,22,272,251,226,290,112,217,134,241,50,27,74,36,223,23,71,46,89,105,139,102,25,222,298,264,187,39,206,257,100,299,232,49,185,265,260,138,127,214,153,140,205,135,110,7,111,98,5,44,78,183,234,70,194,19,67,163,218,164,137,18,84,29,250,282,182,210,248,133,68,242,178,224,62,69,231,285,155,253,151,258,64,160,1,229,17,47,128]","arrowright","","true","1","11","55","300","[""0080_N0300_K0055_NOCLIQUE"",""0053_N0300_K0055_CLIQUE""]"
"","","","","","audio-keyboard-response","147","773077","0.0-90.0-0.0-1.0","","null","audio_feedback/right/coin01.mp3","null","","","","","1","11","55","300","[""0080_N0300_K0055_NOCLIQUE"",""0053_N0300_K0055_CLIQUE""]"
"","","","","","canvas-keyboard-response","148","776710","0.0-91.0-0.0-0.0","","3548",""," ","[205,0,257,120,192,260,104,203,58,132,133,281,241,61,275,51,106,19,181,50,137,267,143,233,29,21,277,153,210,229,204,268,256,167,116,216,282,57,296,33,261,218,160,6,138,255,49,145,43,224,5,78,20,225,297,125,45,72,3,166,187,23,79,40,285,2,168,154,14,270,230,283,152,197,39,134,174,97,102,191,69,10,8,136,130,114,65,28,286,293,196,126,158,177,101,150,294,31,1,201,148,98,274,107,144,217,129,118,115,161,188,194,212,182,211,30,199,284,288,73,200,81,139,53,34,237,243,235,264,99,18,88,287,48,190,219,272,151,209,299,11,156,289,24,223,179,239,202,95,254,227,248,189,59,231,52,240,146,71,36,185,273,220,234,170,111,15,232,276,159,252,165,269,157,68,109,64,183,100,90,245,94,195,63,76,27,169,178,85,22,206,147,173,67,123,262,9,91,279,298,198,226,74,86,110,60,35,186,249,44,295,112,238,246,108,228,55,141,46,87,105,250,244,122,117,193,113,291,149,265,280,142,13,247,163,215,121,213,37,103,140,162,172,236,62,180,12,263,32,242,253,184,82,7,127,4,80,25,84,41,93,207,128,56,119,66,83,292,278,175,266,258,251,89,214,124,221,271,16,164,155,38,290,208,176,96,222,42,47,54,171,131,17,135,77,70,92,259,75,26]","arrowright","","","1","12","50","300","[""0017_N0300_K0050_NOCLIQUE"",""0059_N0300_K0050_CLIQUE""]"
"","","","","","audio-keyboard-response","149","777685","0.0-91.0-0.0-1.0","","null","audio_feedback/shuffles/shuffle01.mp3","null","","","","","1","12","50","300","[""0017_N0300_K0050_NOCLIQUE"",""0059_N0300_K0050_CLIQUE""]"
"","","","","","canvas-keyboard-response","150","778821","0.0-91.1-0.1-0.1","","1024",""," ","[289,275,26,31,42,292,102,284,22,237,151,250,235,92,2,53,75,285,11,101,0,32,232,231,194,113,209,134,114,205,181,131,57,262,86,255,276,106,222,127,25,254,65,132,44,293,159,253,183,174,206,83,248,162,189,46,29,281,122,66,17,87,47,41,105,268,287,246,240,39,146,150,190,176,188,4,147,7,270,77,71,208,290,52,21,126,63,103,171,61,119,278,97,291,79,299,233,9,49,15,117,173,118,236,165,180,175,73,81,1,197,211,218,214,168,148,252,282,167,288,50,48,204,157,35,38,215,221,267,179,216,228,19,153,198,72,154,279,202,58,271,164,210,200,112,129,166,245,16,64,142,257,266,260,76,70,111,140,263,94,99,223,40,144,123,199,78,156,269,226,242,286,135,196,172,203,264,28,23,220,56,184,280,249,212,225,136,217,294,88,186,107,54,169,138,5,160,274,6,130,224,98,120,143,115,155,258,128,272,191,8,256,238,93,161,195,149,89,219,182,69,145,90,100,295,229,243,277,251,45,283,139,178,296,297,298,85,36,20,137,201,62,59,227,96,18,230,37,109,74,68,13,84,247,241,133,12,158,51,3,124,152,170,177,116,14,192,193,244,187,91,24,10,60,110,239,265,273,30,67,80,141,261,108,34,27,82,259,95,43,125,213,33,55,163,121,185,234,207,104]","arrowright","","","1","12","50","300","[""0017_N0300_K0050_NOCLIQUE"",""0059_N0300_K0050_CLIQUE""]"
"","","","","","audio-keyboard-response","151","779798","0.0-91.1-0.1-1.1","","null","audio_feedback/shuffles/shuffle01.mp3","null","","","","","1","12","50","300","[""0017_N0300_K0050_NOCLIQUE"",""0059_N0300_K0050_CLIQUE""]"
"","","","","","canvas-keyboard-response","152","780384","0.0-91.2-0.2-0.2","","505","","arrowright","[10,257,34,136,23,196,293,189,296,91,112,244,66,52,135,170,41,191,39,211,190,268,18,225,269,53,231,276,46,122,100,258,78,192,213,287,0,248,40,31,48,210,77,131,277,255,123,251,203,20,199,90,214,166,185,173,186,121,59,233,151,168,275,7,162,144,102,263,221,116,239,60,154,240,115,140,55,182,281,227,104,117,29,124,271,161,204,215,188,1,163,169,21,228,89,110,15,230,92,285,219,17,49,69,71,238,27,197,250,76,252,143,152,179,51,187,178,243,288,12,74,222,45,160,137,249,37,42,267,8,299,274,289,207,256,195,280,120,266,259,26,184,139,229,183,68,105,94,181,264,16,79,80,107,245,176,58,177,38,47,262,36,164,61,273,146,125,109,167,235,97,159,127,9,247,56,260,241,155,175,81,226,25,28,11,133,284,111,282,171,113,2,224,297,265,194,272,150,270,218,174,279,253,292,220,96,14,106,294,156,63,62,3,158,87,200,101,147,223,19,138,128,198,298,237,145,5,82,212,216,75,103,172,283,70,43,50,217,30,4,149,85,118,99,261,129,44,286,57,88,290,114,126,32,153,84,6,208,157,22,119,291,206,67,13,98,236,142,72,202,242,205,209,65,64,83,254,165,33,295,73,132,193,180,108,54,24,232,35,130,86,95,246,141,278,148,134,234,201,93]","arrowright","","true","1","12","50","300","[""0017_N0300_K0050_NOCLIQUE"",""0059_N0300_K0050_CLIQUE""]"
"","","","","","audio-keyboard-response","153","781111","0.0-91.2-0.2-1.2","","null","audio_feedback/right/coin01.mp3","null","","","","","1","12","50","300","[""0017_N0300_K0050_NOCLIQUE"",""0059_N0300_K0050_CLIQUE""]"
"","","","","","canvas-keyboard-response","154","787310","0.0-92.0-0.0-0.0","","6119","","arrowleft","[11,194,5,25,179,275,233,136,160,17,283,200,260,249,247,53,98,182,40,138,122,128,7,210,286,6,48,153,140,195,250,66,173,155,254,88,74,64,99,167,290,298,126,281,35,150,190,192,93,218,213,230,208,39,145,101,121,261,296,227,59,168,259,106,293,280,253,82,19,151,1,123,223,221,279,180,24,142,188,105,267,16,276,274,130,242,214,108,154,109,251,201,41,224,69,270,199,229,178,184,89,133,119,63,117,228,163,111,44,295,62,118,156,94,100,294,65,215,50,143,220,76,183,67,216,75,157,272,60,146,79,4,86,234,269,26,181,268,84,68,205,46,285,124,257,237,127,15,23,169,287,31,30,47,13,197,10,238,264,189,125,12,219,14,27,135,56,37,246,211,239,71,20,258,174,110,266,114,225,115,38,42,43,149,80,159,131,217,61,139,278,18,245,132,49,263,166,171,172,265,129,191,29,70,77,95,2,256,90,288,244,3,73,83,81,207,203,292,175,193,102,96,236,52,170,243,262,271,147,226,87,235,22,8,187,177,85,299,92,54,158,231,120,240,282,28,291,32,58,33,176,222,255,21,107,252,284,196,141,0,148,289,55,78,45,297,116,72,91,212,198,209,134,277,152,9,113,137,112,165,51,162,97,104,241,103,202,186,164,206,232,248,204,36,273,144,161,34,57,185]","arrowleft","","true","1","13","50","300","[""0013_N0300_K0050_CLIQUE"",""0041_N0300_K0050_NOCLIQUE""]"
"","","","","","audio-keyboard-response","155","788057","0.0-92.0-0.0-1.0","","null","audio_feedback/right/coin01.mp3","null","","","","","1","13","50","300","[""0013_N0300_K0050_CLIQUE"",""0041_N0300_K0050_NOCLIQUE""]"
"","","","","","canvas-keyboard-response","156","788783","0.0-93.0-0.0-0.0","","644","","arrowright","[198,219,288,266,249,3,63,59,199,180,192,146,140,149,100,289,95,4,234,168,269,133,223,174,258,72,216,119,43,218,130,221,274,18,12,246,102,56,117,62,150,204,203,279,115,156,261,97,262,138,284,114,155,30,200,241,151,127,186,81,231,293,106,39,11,159,294,209,255,280,172,2,6,69,111,247,208,153,173,190,256,134,45,270,171,245,16,202,79,145,263,104,73,257,282,292,22,195,67,88,93,139,228,242,71,238,160,259,169,17,287,78,113,170,275,118,48,187,10,167,99,19,144,40,76,126,163,213,15,233,84,291,29,276,181,206,8,5,33,123,109,90,248,103,298,92,281,227,32,77,225,158,295,183,283,272,290,89,108,36,251,38,0,240,164,217,98,61,91,253,96,236,110,141,193,128,14,27,132,165,1,154,65,250,143,191,286,21,87,57,260,178,297,278,101,9,25,35,116,161,31,147,244,142,210,152,264,185,239,201,26,166,271,162,237,235,41,68,252,243,224,50,211,122,222,47,285,121,175,54,194,52,42,273,55,34,124,83,267,44,13,7,105,215,229,265,182,296,85,179,129,51,196,20,137,94,28,214,125,212,107,230,299,254,80,226,120,82,148,220,86,135,112,58,37,64,268,74,75,23,53,46,207,176,232,70,136,188,24,157,177,197,131,184,66,277,189,49,60,205]","arrowright","","true","1","14","45","300","[""0025_N0300_K0045_NOCLIQUE"",""0033_N0300_K0045_CLIQUE""]"
"","","","","","audio-keyboard-response","157","789498","0.0-93.0-0.0-1.0","","null","audio_feedback/right/coin01.mp3","null","","","","","1","14","45","300","[""0025_N0300_K0045_NOCLIQUE"",""0033_N0300_K0045_CLIQUE""]"
"","","","","","canvas-keyboard-response","158","790293","0.0-94.0-0.0-0.0","","716","","arrowright","[248,46,128,155,116,70,233,204,275,225,223,198,247,290,142,172,10,132,283,170,114,285,141,245,179,195,206,131,235,234,75,106,126,221,212,107,87,185,140,111,123,193,188,292,203,208,251,291,65,130,296,284,66,270,237,44,207,59,265,152,124,255,127,157,90,55,149,38,39,72,240,294,239,236,184,32,74,295,40,64,50,272,53,252,118,171,187,63,122,199,54,33,94,29,154,229,178,238,143,73,4,282,2,58,197,137,146,201,113,115,189,214,231,22,297,183,180,196,138,42,277,101,0,181,147,76,105,176,209,48,91,45,200,20,82,5,250,36,226,165,112,286,18,256,83,80,243,56,37,151,299,97,85,191,241,169,21,278,163,177,13,110,145,31,261,92,215,17,84,14,7,129,133,158,148,182,89,273,175,25,263,217,81,86,52,167,246,266,78,173,1,93,27,162,135,222,24,102,30,224,8,28,287,104,192,202,267,227,68,280,139,258,49,230,211,121,41,293,190,62,210,57,213,60,220,264,288,119,262,99,268,253,11,125,79,166,216,47,108,77,218,35,156,6,168,254,260,100,15,109,276,136,242,249,159,219,281,186,232,96,244,257,71,16,26,279,67,95,205,12,9,161,164,23,61,19,3,69,88,160,269,194,98,153,51,43,117,134,103,259,228,174,271,150,298,274,120,34,289,144]","arrowright","","true","1","15","45","300","[""0020_N0300_K0045_NOCLIQUE"",""0035_N0300_K0045_CLIQUE""]"
"","","","","","audio-keyboard-response","159","791007","0.0-94.0-0.0-1.0","","null","audio_feedback/right/coin01.mp3","null","","","","","1","15","45","300","[""0020_N0300_K0045_NOCLIQUE"",""0035_N0300_K0045_CLIQUE""]"
"","","","","","canvas-keyboard-response","160","791742","0.0-95.0-0.0-0.0","","657","","arrowright","[218,232,108,97,217,128,130,138,294,36,266,260,192,71,157,38,144,89,31,112,236,183,65,237,171,23,19,13,184,103,58,149,250,115,255,299,150,185,156,201,198,30,206,203,188,132,297,219,81,280,285,275,271,137,118,54,282,50,207,5,104,8,142,258,140,55,152,24,248,196,199,95,76,145,120,222,83,48,233,244,230,186,99,21,64,246,249,202,70,187,41,82,241,172,209,106,239,178,105,40,117,279,92,34,277,67,49,179,155,66,25,47,162,10,176,134,283,153,229,62,98,88,286,240,77,126,264,290,173,274,141,136,287,131,11,223,96,174,212,242,111,59,151,68,272,295,288,4,84,216,63,154,175,39,197,180,16,205,100,9,26,220,165,146,72,101,7,90,135,167,80,91,251,78,159,204,256,52,267,28,29,259,182,129,79,143,168,45,87,85,292,193,46,12,265,247,269,86,238,121,298,119,73,262,18,208,20,166,42,284,289,261,60,102,139,245,147,0,53,17,253,293,35,210,252,74,3,296,194,234,93,161,125,228,110,123,270,114,211,56,177,276,235,200,214,27,195,181,226,281,124,94,221,51,61,75,224,160,254,268,2,113,257,191,44,278,243,189,32,213,215,133,291,231,6,164,107,1,225,163,37,170,190,43,15,227,127,109,33,122,169,116,22,158,14,148,57,273,69,263]","arrowleft","","false","1","16","40","300","[""0033_N0300_K0040_CLIQUE"",""0004_N0300_K0040_NOCLIQUE""]"
"","","","","","audio-keyboard-response","161","792712","0.0-95.0-0.0-1.0","","null","audio_feedback/wrong/error01.mp3","null","","","","","1","16","40","300","[""0033_N0300_K0040_CLIQUE"",""0004_N0300_K0040_NOCLIQUE""]"
"","","","","","canvas-keyboard-response","162","795157","0.0-96.0-0.0-0.0","","2364",""," ","[166,163,128,164,125,154,184,196,246,274,91,262,180,167,81,148,11,118,255,144,52,114,172,117,171,27,248,152,296,289,17,247,92,232,106,214,9,278,260,107,202,26,20,88,130,63,178,280,239,74,141,187,221,32,140,34,109,147,186,169,101,251,297,238,183,194,29,257,222,155,185,113,142,15,61,54,7,276,4,127,12,145,53,241,95,68,156,121,98,105,151,16,198,87,227,273,161,162,5,237,136,230,159,270,235,291,38,188,78,123,243,82,39,119,79,176,129,292,122,71,2,199,253,60,89,200,21,269,99,217,175,226,25,42,139,19,72,47,281,181,168,70,271,267,67,13,86,275,3,209,133,48,265,179,191,170,137,208,215,263,204,14,149,244,56,174,31,261,110,216,135,211,231,193,293,84,299,45,104,201,282,210,108,197,203,252,0,134,259,93,160,69,288,10,272,219,90,28,58,43,64,225,283,195,85,256,83,55,138,49,30,100,24,284,250,240,279,254,143,177,51,80,111,50,77,220,126,102,249,116,206,190,158,44,76,22,66,205,103,242,294,18,165,132,62,182,40,112,120,57,285,153,41,75,189,236,212,287,35,258,266,94,295,229,228,131,234,73,286,33,6,213,207,264,37,146,46,97,277,245,173,23,59,223,290,8,96,150,298,268,65,233,192,157,218,115,224,1,36,124]","arrowleft","","","1","17","40","300","[""0030_N0300_K0040_CLIQUE"",""0100_N0300_K0040_NOCLIQUE""]"
"","","","","","audio-keyboard-response","163","796126","0.0-96.0-0.0-1.0","","null","audio_feedback/shuffles/shuffle01.mp3","null","","","","","1","17","40","300","[""0030_N0300_K0040_CLIQUE"",""0100_N0300_K0040_NOCLIQUE""]"
