"success","timeout","failed_images","failed_audio","failed_video","trial_type","trial_index","time_elapsed","internal_node_id","view_history","rt","stimulus","response","nodes_order","correct_response","graphs_couple","accuracy","block_index","presentation_index","clique_size","graph_size","graphs_names"
"true","false","[]","[]","[]","preload","0","657","0.0-0.0","","","","","","","","","","","","",""
"","","","","","pavlovia","1","1111","0.0-1.0","","","","","","","","","","","","",""
"","","","","","instructions","2","32546","0.0-2.0","[{""page_index"":0,""viewing_time"":3248},{""page_index"":1,""viewing_time"":28185}]","31433","","","","","","","","","","",""
"true","false","[]","[]","[]","preload","3","33483","0.0-3.0","","","","","","","","","","","","",""
"","","","","","instructions","4","239356","0.0-4.0","[{""page_index"":0,""viewing_time"":2357},{""page_index"":1,""viewing_time"":7201},{""page_index"":2,""viewing_time"":1975},{""page_index"":3,""viewing_time"":5420},{""page_index"":4,""viewing_time"":3517},{""page_index"":3,""viewing_time"":620},{""page_index"":4,""viewing_time"":236},{""page_index"":3,""viewing_time"":203},{""page_index"":2,""viewing_time"":3413},{""page_index"":3,""viewing_time"":746},{""page_index"":4,""viewing_time"":1935},{""page_index"":5,""viewing_time"":5758},{""page_index"":6,""viewing_time"":2955},{""page_index"":7,""viewing_time"":1251},{""page_index"":8,""viewing_time"":2366},{""page_index"":7,""viewing_time"":270},{""page_index"":6,""viewing_time"":714},{""page_index"":7,""viewing_time"":718},{""page_index"":8,""viewing_time"":1160},{""page_index"":7,""viewing_time"":2645},{""page_index"":8,""viewing_time"":892},{""page_index"":9,""viewing_time"":5066},{""page_index"":10,""viewing_time"":1774},{""page_index"":11,""viewing_time"":1707},{""page_index"":12,""viewing_time"":3003},{""page_index"":13,""viewing_time"":2288},{""page_index"":14,""viewing_time"":2090},{""page_index"":15,""viewing_time"":1467},{""page_index"":16,""viewing_time"":966},{""page_index"":17,""viewing_time"":1209},{""page_index"":18,""viewing_time"":773},{""page_index"":19,""viewing_time"":1784},{""page_index"":20,""viewing_time"":1420},{""page_index"":21,""viewing_time"":2528},{""page_index"":22,""viewing_time"":3038},{""page_index"":23,""viewing_time"":875},{""page_index"":24,""viewing_time"":790},{""page_index"":25,""viewing_time"":1635},{""page_index"":26,""viewing_time"":1881},{""page_index"":27,""viewing_time"":2746},{""page_index"":28,""viewing_time"":2305},{""page_index"":29,""viewing_time"":2549},{""page_index"":30,""viewing_time"":1529},{""page_index"":31,""viewing_time"":1922},{""page_index"":32,""viewing_time"":6837},{""page_index"":33,""viewing_time"":3534},{""page_index"":34,""viewing_time"":2494},{""page_index"":33,""viewing_time"":591},{""page_index"":34,""viewing_time"":581},{""page_index"":33,""viewing_time"":418},{""page_index"":34,""viewing_time"":953},{""page_index"":35,""viewing_time"":5369},{""page_index"":36,""viewing_time"":3033},{""page_index"":37,""viewing_time"":3069},{""page_index"":36,""viewing_time"":288},{""page_index"":37,""viewing_time"":405},{""page_index"":36,""viewing_time"":419},{""page_index"":37,""viewing_time"":711},{""page_index"":38,""viewing_time"":4684},{""page_index"":39,""viewing_time"":4872},{""page_index"":40,""viewing_time"":3605},{""page_index"":41,""viewing_time"":1933},{""page_index"":42,""viewing_time"":2733},{""page_index"":43,""viewing_time"":5810},{""page_index"":44,""viewing_time"":7240},{""page_index"":45,""viewing_time"":10697},{""page_index"":46,""viewing_time"":1768},{""page_index"":47,""viewing_time"":2632},{""page_index"":48,""viewing_time"":4895},{""page_index"":49,""viewing_time"":3634},{""page_index"":50,""viewing_time"":7502},{""page_index"":51,""viewing_time"":5292},{""page_index"":50,""viewing_time"":380},{""page_index"":49,""viewing_time"":627},{""page_index"":48,""viewing_time"":2165},{""page_index"":47,""viewing_time"":1614},{""page_index"":48,""viewing_time"":4268},{""page_index"":49,""viewing_time"":2933},{""page_index"":50,""viewing_time"":5471},{""page_index"":51,""viewing_time"":725}]","205872","","","","","","","","","","",""
"","","","","","instructions","5","243667","0.0-5.0","[{""page_index"":0,""viewing_time"":4311}]","4311","","","","","","","","","","",""
"true","false","[]","[]","[]","preload","6","244157","0.0-6.0","","","","","","","","","","","","",""
"","","","","","image-keyboard-response","7","256791","0.0-7.0","","12632","tutorial/task_familiarization_images/part 1/01_N160_K90_cliqueRight_question1.PNG"," ","","","","","","","","",""
"","","","","","image-keyboard-response","8","259413","0.0-8.0","","2621","tutorial/task_familiarization_images/part 1/02_N160_K90_cliqueRight_question2.PNG"," ","","","","","","","","",""
"","","","","","image-keyboard-response","9","262578","0.0-9.0","","3162","tutorial/task_familiarization_images/part 1/03_N160_K90_cliqueRight_question3.PNG","arrowright","","","","","","","","",""
"","","","","","image-keyboard-response","10","264729","0.0-10.0","","2145","tutorial/task_familiarization_images/part 1/04_N160_K90_cliqueRight_solution.PNG"," ","","","","","","","","",""
"","","","","","image-keyboard-response","11","271084","0.0-11.0","","6353","tutorial/task_familiarization_images/part 1/05_N160_K65_cliqueRight_question1.PNG"," ","","","","","","","","",""
"","","","","","image-keyboard-response","12","273191","0.0-12.0","","2105","tutorial/task_familiarization_images/part 1/06_N160_K65_cliqueRight_question2.PNG"," ","","","","","","","","",""
"","","","","","image-keyboard-response","13","274470","0.0-13.0","","1278","tutorial/task_familiarization_images/part 1/07_N160_K65_cliqueRight_question3.PNG","arrowright","","","","","","","","",""
"","","","","","image-keyboard-response","14","277269","0.0-14.0","","2798","tutorial/task_familiarization_images/part 1/08_N160_K65_cliqueRight_solution.PNG"," ","","","","","","","","",""
"","","","","","image-keyboard-response","15","280654","0.0-15.0","","3384","tutorial/task_familiarization_images/part 1/09_N160_K50_cliqueLeft_question1.PNG"," ","","","","","","","","",""
"","","","","","image-keyboard-response","16","281846","0.0-16.0","","1190","tutorial/task_familiarization_images/part 1/10_N160_K50_cliqueLeft_question2.PNG"," ","","","","","","","","",""
"","","","","","image-keyboard-response","17","283629","0.0-17.0","","1783","tutorial/task_familiarization_images/part 1/11_N160_K50_cliqueLeft_question3.PNG","arrowleft","","","","","","","","",""
"","","","","","image-keyboard-response","18","284858","0.0-18.0","","1228","tutorial/task_familiarization_images/part 1/12_N160_K50_cliqueLeft_solution.PNG"," ","","","","","","","","",""
"","","","","","image-keyboard-response","19","287021","0.0-19.0","","2162","tutorial/task_familiarization_images/part 1/13_N160_K80_cliqueLeft_question1.PNG"," ","","","","","","","","",""
"","","","","","image-keyboard-response","20","288372","0.0-20.0","","1351","tutorial/task_familiarization_images/part 1/14_N160_K80_cliqueLeft_question2.PNG"," ","","","","","","","","",""
"","","","","","image-keyboard-response","21","289261","0.0-21.0","","887","tutorial/task_familiarization_images/part 1/15_N160_K80_cliqueLeft_question3.PNG","arrowleft","","","","","","","","",""
"","","","","","image-keyboard-response","22","290193","0.0-22.0","","931","tutorial/task_familiarization_images/part 1/16_N160_K80_cliqueLeft_solution.PNG"," ","","","","","","","","",""
"","","","","","image-keyboard-response","23","295529","0.0-23.0","","5335","tutorial/task_familiarization_images/part 1/17_N160_K40_cliqueRight_question1.PNG"," ","","","","","","","","",""
"","","","","","image-keyboard-response","24","297269","0.0-24.0","","1739","tutorial/task_familiarization_images/part 1/18_N160_K40_cliqueRight_question2.PNG"," ","","","","","","","","",""
"","","","","","image-keyboard-response","25","299108","0.0-25.0","","1838","tutorial/task_familiarization_images/part 1/19_N160_K40_cliqueRight_question3.PNG","arrowright","","","","","","","","",""
"","","","","","image-keyboard-response","26","300059","0.0-26.0","","951","tutorial/task_familiarization_images/part 1/20_N160_K40_cliqueRight_solution.PNG"," ","","","","","","","","",""
"","","","","","image-keyboard-response","27","302134","0.0-27.0","","2074","tutorial/task_familiarization_images/part 1/21_N160_K70_cliqueLeft_question1.PNG"," ","","","","","","","","",""
"","","","","","image-keyboard-response","28","303064","0.0-28.0","","929","tutorial/task_familiarization_images/part 1/22_N160_K70_cliqueLeft_question2.PNG"," ","","","","","","","","",""
"","","","","","image-keyboard-response","29","303753","0.0-29.0","","688","tutorial/task_familiarization_images/part 1/23_N160_K70_cliqueLeft_question3.PNG","arrowleft","","","","","","","","",""
"","","","","","image-keyboard-response","30","304704","0.0-30.0","","951","tutorial/task_familiarization_images/part 1/24_N160_K70_cliqueLeft_solution.PNG"," ","","","","","","","","",""
"true","false","[]","[]","[]","preload","31","304932","0.0-31.0","","","","","","","","","","","","",""
"","","","","","image-keyboard-response","32","320769","0.0-32.0","","15837","tutorial/task_familiarization_images/part 2/01_160_80_cliqueLeft_withFeedback_1.PNG"," ","","","","","","","","",""
"","","","","","image-keyboard-response","33","329154","0.0-33.0","","8384","tutorial/task_familiarization_images/part 2/02_160_80_cliqueLeft_withFeedback_1.PNG"," ","","","","","","","","",""
"","","","","","image-keyboard-response","34","332680","0.0-34.0","","3525","tutorial/task_familiarization_images/part 2/03_160_80_cliqueLeft_withFeedback_3.PNG","arrowleft","","","","","","","","",""
"","","","","","image-keyboard-response","35","335170","0.0-35.0","","2489","tutorial/task_familiarization_images/part 2/04_160_80_cliqueLeft_withFeedback_correct.PNG"," ","","","","","","","","",""
"","","","","","image-keyboard-response","36","457423","0.0-36.0","","122253","tutorial/task_familiarization_images/part 2/05_160_55_cliqueRight_withFeedback_1.PNG"," ","","","","","","","","",""
"","","","","","image-keyboard-response","37","458972","0.0-37.0","","1548","tutorial/task_familiarization_images/part 2/06_160_55_cliqueRight_withFeedback_2.PNG"," ","","","","","","","","",""
"","","","","","image-keyboard-response","38","460105","0.0-38.0","","1132","tutorial/task_familiarization_images/part 2/07_160_55_cliqueRight_withFeedback_3.PNG","arrowright","","","","","","","","",""
"","","","","","image-keyboard-response","39","480611","0.0-39.0","","20505","tutorial/task_familiarization_images/part 2/08_160_55_cliqueRight_withFeedback_correct.PNG"," ","","","","","","","","",""
"","","","","","image-keyboard-response","40","483222","0.0-40.0","","2611","tutorial/task_familiarization_images/part 2/09_160_70_cliqueLeft_withFeedback_1.PNG"," ","","","","","","","","",""
"","","","","","image-keyboard-response","41","484573","0.0-41.0","","1350","tutorial/task_familiarization_images/part 2/10_160_70_cliqueLeft_withFeedback_2.PNG"," ","","","","","","","","",""
"","","","","","image-keyboard-response","42","485463","0.0-42.0","","889","tutorial/task_familiarization_images/part 2/11_160_70_cliqueLeft_withFeedback_3.PNG","arrowleft","","","","","","","","",""
"","","","","","image-keyboard-response","43","487296","0.0-43.0","","1832","tutorial/task_familiarization_images/part 2/12_160_70_cliqueLeft_withFeedback_correct.PNG"," ","","","","","","","","",""
"","","","","","survey-html-form","44","565452","0.0-44.0","","78154","","{""gender"":""female"",""age"":""27""}","","","","","","","","",""
"","","","","","instructions","45","571927","0.0-45.0","[{""page_index"":0,""viewing_time"":6474}]","6475","","","","","","","","","","",""
"true","","","","","fullscreen","46","575938","0.0-47.0","","","","","","","","","","","","",""
"","","","","","canvas-keyboard-response","47","578916","0.0-48.0-0.0-0.0","","2926","","arrowright","[116,257,269,73,224,153,192,82,48,58,298,254,198,51,295,229,190,168,110,32,15,103,45,267,113,214,91,42,16,249,245,240,216,252,161,165,278,232,134,151,204,183,109,260,69,284,120,157,158,53,49,220,23,155,137,286,291,271,287,274,177,64,107,70,65,140,47,156,241,181,296,50,52,200,100,54,193,142,104,285,256,14,67,184,146,133,202,35,136,212,293,166,189,290,122,101,239,74,4,46,170,118,186,160,282,8,89,247,253,154,210,86,60,41,222,130,111,129,279,90,149,121,178,124,94,84,37,6,13,266,43,105,169,218,251,93,159,182,22,244,268,127,175,99,217,95,299,112,75,106,289,63,88,114,34,297,265,221,272,283,17,108,5,145,259,0,57,280,209,123,61,38,167,152,97,2,28,115,203,7,281,206,85,201,143,294,248,199,225,87,233,77,174,273,9,242,292,55,176,80,270,59,180,141,126,231,36,150,24,196,10,135,30,185,11,208,261,12,211,76,62,207,237,72,188,234,187,191,66,19,288,147,197,238,276,164,21,148,275,125,163,117,98,128,226,235,255,263,92,132,228,227,144,215,250,18,56,213,162,264,173,179,33,71,171,236,172,1,262,25,138,39,40,31,44,96,194,246,102,79,195,277,230,131,243,27,119,81,139,26,29,223,3,20,219,83,78,68,205,258]","arrowright","","true","0","0","90","300","[""0014_N0300_K0090_NOCLIQUE"",""0098_N0300_K0090_CLIQUE""]"
"","","","","","audio-keyboard-response","48","579339","0.0-48.0-0.0-1.0","","null","audio_feedback/right/coin01.mp3","null","","","","","0","0","90","300","[""0014_N0300_K0090_NOCLIQUE"",""0098_N0300_K0090_CLIQUE""]"
"","","","","","canvas-keyboard-response","49","581351","0.0-49.0-0.0-0.0","","1972","","arrowright","[64,210,231,83,186,40,156,204,6,63,224,152,295,21,114,259,293,154,268,121,291,107,287,195,166,5,32,65,59,10,133,45,4,123,265,244,258,177,90,73,126,20,241,12,165,52,201,281,99,260,72,42,255,61,95,206,269,149,134,56,11,19,143,3,128,298,262,39,100,77,257,24,263,125,2,124,172,283,208,54,181,27,235,245,118,169,278,110,68,211,282,55,274,198,60,240,215,144,139,18,86,87,97,249,67,151,17,253,85,71,46,207,38,30,248,277,34,225,212,216,164,237,160,297,119,98,173,79,194,88,108,254,187,115,113,70,148,190,101,275,202,236,43,136,111,232,31,256,223,288,264,229,188,175,94,161,62,157,138,91,58,167,170,7,197,137,106,243,178,141,53,146,238,132,228,286,233,227,50,292,250,66,270,23,299,267,155,49,205,158,180,279,120,246,13,145,0,176,183,33,294,185,261,84,163,104,135,200,222,14,182,193,80,266,129,272,41,168,131,47,36,189,96,296,102,112,147,103,74,174,82,8,28,25,29,271,150,252,44,273,35,234,127,57,276,220,242,290,251,285,78,171,142,159,280,191,221,9,153,230,199,117,247,179,89,37,218,122,15,76,109,226,284,209,51,289,162,219,1,217,16,239,130,140,92,203,196,93,116,48,192,75,81,105,214,213,184,26,69,22]","arrowright","","true","0","1","90","300","[""0001_N0300_K0090_NOCLIQUE"",""0067_N0300_K0090_CLIQUE""]"
"","","","","","audio-keyboard-response","50","581760","0.0-49.0-0.0-1.0","","null","audio_feedback/right/coin01.mp3","null","","","","","0","1","90","300","[""0001_N0300_K0090_NOCLIQUE"",""0067_N0300_K0090_CLIQUE""]"
"","","","","","canvas-keyboard-response","51","583133","0.0-50.0-0.0-0.0","","1331","","arrowleft","[60,104,238,50,31,252,230,213,175,49,172,56,153,72,189,73,55,83,59,71,253,151,296,103,288,160,44,35,134,168,171,122,2,17,88,232,188,86,250,227,5,156,283,7,4,203,239,139,9,246,33,102,210,64,277,222,182,8,25,224,178,159,76,218,124,261,148,293,119,34,207,158,138,225,65,93,199,262,229,95,271,286,265,136,258,30,63,214,131,69,70,243,11,112,196,236,116,61,21,129,290,99,133,297,85,298,233,245,292,91,244,78,205,276,217,272,234,269,193,195,20,143,289,237,23,16,278,215,281,81,186,275,162,118,169,132,191,53,68,24,208,111,235,177,212,174,266,197,10,284,3,43,270,192,62,173,299,180,249,163,48,94,254,125,268,176,251,100,110,46,66,161,130,273,79,259,89,128,155,187,120,74,80,121,287,149,14,40,42,279,41,54,167,154,166,179,15,109,255,231,223,267,221,87,216,152,142,295,145,150,58,101,126,257,45,242,200,140,117,280,209,57,263,127,37,194,1,29,219,6,77,241,39,106,260,27,38,248,97,165,67,201,141,19,170,157,137,115,82,22,181,264,183,198,36,28,256,285,13,98,113,184,26,144,114,51,291,108,282,12,18,228,47,274,185,52,107,164,206,92,202,105,240,294,123,0,90,96,204,211,146,220,84,190,247,32,75,226,147,135]","arrowleft","","true","0","2","80","300","[""0071_N0300_K0080_CLIQUE"",""0038_N0300_K0080_NOCLIQUE""]"
"","","","","","audio-keyboard-response","52","583540","0.0-50.0-0.0-1.0","","null","audio_feedback/right/coin01.mp3","null","","","","","0","2","80","300","[""0071_N0300_K0080_CLIQUE"",""0038_N0300_K0080_NOCLIQUE""]"
"","","","","","canvas-keyboard-response","53","585072","0.0-51.0-0.0-0.0","","1489","","arrowleft","[141,201,76,12,93,139,148,282,238,284,162,87,149,52,18,276,192,225,31,194,30,78,70,224,96,228,89,155,98,94,95,39,188,28,57,122,77,241,75,239,216,233,257,221,86,73,117,40,288,82,37,249,208,248,297,104,42,91,158,191,88,140,203,268,143,32,132,219,294,38,131,165,200,46,60,112,240,19,22,49,146,190,232,153,6,259,163,58,167,199,8,261,35,207,47,44,120,285,178,254,236,206,107,172,124,281,128,45,227,115,280,151,293,274,202,84,217,14,111,283,114,25,231,71,237,56,267,250,83,34,289,218,92,133,271,252,144,179,196,286,27,183,243,197,1,11,10,264,100,105,113,24,33,182,9,189,193,204,85,223,13,210,118,53,255,101,258,26,135,119,81,176,170,273,65,147,187,130,152,186,138,279,168,55,222,180,159,260,3,64,15,256,169,142,134,20,235,137,50,129,21,150,275,269,17,292,41,245,66,63,157,62,272,110,205,209,214,185,48,59,72,263,29,79,103,164,80,106,161,116,220,109,123,247,291,154,23,295,234,99,156,246,7,121,184,244,198,174,230,173,125,212,215,16,90,290,61,296,181,253,68,278,242,108,145,2,51,171,251,270,262,43,4,266,175,195,298,74,226,265,177,5,229,211,287,102,299,166,127,54,97,126,69,0,213,67,136,36,160,277]","arrowleft","","true","0","3","80","300","[""0025_N0300_K0080_CLIQUE"",""0090_N0300_K0080_NOCLIQUE""]"
"","","","","","audio-keyboard-response","54","585480","0.0-51.0-0.0-1.0","","null","audio_feedback/right/coin01.mp3","null","","","","","0","3","80","300","[""0025_N0300_K0080_CLIQUE"",""0090_N0300_K0080_NOCLIQUE""]"
"","","","","","canvas-keyboard-response","55","587548","0.0-52.0-0.0-0.0","","2027","","arrowright","[124,142,281,83,14,33,42,121,202,11,150,168,134,25,271,15,87,66,232,6,28,159,8,51,115,186,38,179,259,153,187,167,210,299,201,199,207,90,145,246,54,180,290,82,152,184,193,253,85,220,173,5,30,117,296,235,267,13,270,258,106,200,61,197,56,286,48,102,213,126,9,255,181,251,133,112,214,273,264,60,245,278,105,148,72,166,84,240,151,212,298,211,20,29,209,109,27,16,182,147,191,1,144,57,177,110,218,233,163,4,188,216,67,222,192,130,236,175,297,63,205,138,277,196,257,269,31,88,160,161,226,164,129,275,79,231,123,268,69,44,260,2,265,178,40,154,230,292,295,108,288,92,262,47,100,190,75,252,127,59,36,229,34,171,280,146,238,294,93,272,243,99,70,203,122,234,237,21,244,157,111,71,50,96,43,266,86,0,12,283,74,62,215,94,287,162,118,219,37,76,165,140,95,49,81,7,282,149,247,116,221,174,228,3,170,73,156,80,250,223,18,225,17,26,114,10,98,104,241,276,261,158,19,78,198,176,183,45,289,274,169,248,143,113,32,58,249,189,131,53,64,194,125,185,128,68,97,291,206,242,224,284,103,132,254,263,22,23,107,65,195,172,24,139,279,217,135,91,204,55,77,285,137,208,155,39,46,136,119,101,89,41,256,141,227,35,120,293,239,52]","arrowright","","true","0","4","70","300","[""0010_N0300_K0070_NOCLIQUE"",""0015_N0300_K0070_CLIQUE""]"
"","","","","","audio-keyboard-response","56","587959","0.0-52.0-0.0-1.0","","null","audio_feedback/right/coin01.mp3","null","","","","","0","4","70","300","[""0010_N0300_K0070_NOCLIQUE"",""0015_N0300_K0070_CLIQUE""]"
"","","","","","canvas-keyboard-response","57","589441","0.0-53.0-0.0-0.0","","1443","","arrowleft","[280,22,100,291,19,202,45,229,177,181,255,88,92,243,174,50,207,209,289,146,30,14,166,219,248,71,196,107,163,133,60,254,282,261,256,225,206,15,120,279,73,264,170,153,106,57,77,257,262,95,195,90,67,5,238,23,76,69,260,294,245,141,16,233,221,11,140,82,52,285,205,13,224,79,129,8,286,228,98,137,297,208,39,263,83,283,220,189,250,234,246,211,241,235,183,65,101,190,47,271,172,198,126,1,270,161,102,216,299,33,7,128,25,61,104,154,134,179,178,244,182,125,247,87,212,132,194,31,192,97,200,268,18,41,171,10,176,40,239,42,188,274,287,119,227,186,74,78,215,35,94,231,266,122,251,29,135,24,112,56,240,43,118,46,199,2,152,26,236,180,218,281,113,150,159,136,276,4,168,138,117,288,197,213,59,44,242,131,116,222,201,36,149,49,9,232,62,203,68,147,144,37,105,70,21,86,123,214,108,66,28,80,27,124,130,164,226,273,284,275,204,293,127,93,249,187,296,165,217,32,12,167,175,292,155,51,63,230,265,139,121,295,259,38,115,89,72,64,103,185,34,109,184,151,81,145,210,75,298,53,269,193,252,162,169,258,143,278,0,223,290,267,85,6,173,17,3,148,58,54,99,114,272,237,111,157,277,96,48,158,142,156,91,55,20,253,191,160,84,110]","arrowleft","","true","0","5","70","300","[""0060_N0300_K0070_CLIQUE"",""0075_N0300_K0070_NOCLIQUE""]"
"","","","","","audio-keyboard-response","58","589859","0.0-53.0-0.0-1.0","","null","audio_feedback/right/coin01.mp3","null","","","","","0","5","70","300","[""0060_N0300_K0070_CLIQUE"",""0075_N0300_K0070_NOCLIQUE""]"
"","","","","","canvas-keyboard-response","59","592039","0.0-54.0-0.0-0.0","","2142",""," ","[125,162,132,26,62,86,269,20,138,87,0,291,244,257,180,159,201,221,289,284,77,252,272,293,236,224,292,243,99,287,5,84,128,51,186,54,211,146,213,82,181,235,97,143,210,149,91,267,204,279,166,75,28,36,264,194,229,14,206,298,299,52,68,189,253,113,39,155,65,142,115,227,297,126,124,96,23,61,217,34,50,17,67,286,120,12,198,274,203,248,109,182,226,220,81,150,174,107,79,49,85,40,44,112,135,275,245,225,21,60,160,27,98,3,104,251,280,118,178,208,192,122,209,183,173,78,16,7,154,47,33,241,239,89,25,242,130,56,232,152,103,156,2,57,263,261,133,70,127,262,63,265,270,228,105,255,197,92,223,254,88,66,165,148,294,161,116,190,144,94,22,285,114,46,71,102,95,196,131,8,37,222,117,171,230,260,233,234,205,136,24,268,134,247,108,214,281,218,42,288,72,187,215,231,76,170,137,55,90,167,282,219,172,277,259,13,10,185,6,69,202,296,119,106,193,31,38,295,15,80,9,1,123,176,74,121,200,101,278,18,195,83,177,249,29,199,73,179,100,207,246,283,276,30,238,240,158,41,271,237,4,35,273,147,250,188,129,256,139,110,53,140,45,153,212,93,111,184,64,48,258,169,43,191,164,175,58,59,19,290,151,168,163,216,266,11,141,145,157,32]","arrowright","","","0","6","65","300","[""0008_N0300_K0065_NOCLIQUE"",""0069_N0300_K0065_CLIQUE""]"
"","","","","","audio-keyboard-response","60","592619","0.0-54.0-0.0-1.0","","null","audio_feedback/shuffles/shuffle01.mp3","null","","","","","0","6","65","300","[""0008_N0300_K0065_NOCLIQUE"",""0069_N0300_K0065_CLIQUE""]"
"","","","","","canvas-keyboard-response","61","593756","0.0-54.1-0.1-0.1","","1096","","arrowright","[1,243,13,254,211,256,34,83,16,73,269,146,101,100,95,68,287,246,206,154,283,163,47,286,277,176,291,131,93,289,45,148,160,255,54,271,170,208,261,216,71,194,213,182,249,242,149,281,275,105,74,10,218,201,200,11,29,127,107,225,70,167,234,238,137,204,141,248,119,159,179,18,236,130,35,43,46,147,205,157,260,12,115,103,252,38,240,15,65,99,55,61,145,153,230,214,185,233,239,62,132,267,165,128,66,235,52,58,75,298,139,37,257,156,150,187,207,143,263,266,273,259,191,9,116,224,221,172,251,193,17,219,192,36,184,80,209,161,293,190,102,87,288,227,126,60,231,23,72,188,197,282,245,21,85,250,268,39,0,169,53,294,81,133,122,2,181,247,279,180,295,121,215,229,272,228,299,292,48,278,67,166,63,222,270,88,113,174,280,24,220,91,104,232,77,117,142,265,144,86,57,49,28,199,124,108,183,202,296,92,198,241,120,40,203,212,134,59,78,195,114,76,26,8,175,106,41,284,84,262,177,155,138,97,186,173,31,123,162,79,151,274,44,109,129,90,244,50,290,217,237,32,152,14,226,4,171,210,51,168,3,82,30,94,196,20,19,264,27,178,136,223,98,118,135,164,56,110,189,276,42,25,253,158,96,111,6,285,297,5,7,69,22,64,89,258,112,125,140,33]","arrowright","","true","0","6","65","300","[""0008_N0300_K0065_NOCLIQUE"",""0069_N0300_K0065_CLIQUE""]"
"","","","","","audio-keyboard-response","62","594159","0.0-54.1-0.1-1.1","","null","audio_feedback/right/coin01.mp3","null","","","","","0","6","65","300","[""0008_N0300_K0065_NOCLIQUE"",""0069_N0300_K0065_CLIQUE""]"
"","","","","","canvas-keyboard-response","63","597189","0.0-55.0-0.0-0.0","","2989","","arrowleft","[225,235,73,78,265,80,185,213,129,232,284,37,266,279,146,69,70,234,49,203,208,173,158,194,162,259,97,153,106,118,46,131,77,27,130,149,132,83,99,91,142,216,89,202,7,10,58,295,159,264,245,85,120,39,32,287,6,211,172,126,299,233,196,82,180,191,93,59,187,188,201,71,127,220,102,110,205,263,114,207,182,170,292,273,25,156,242,293,111,12,84,56,72,171,51,121,258,283,134,280,75,145,155,28,31,229,137,298,219,197,204,228,230,178,210,165,297,124,267,154,181,113,8,115,98,251,117,223,38,23,163,276,167,105,43,239,81,45,33,278,34,60,94,133,212,190,101,61,29,209,5,44,125,16,161,123,42,147,47,291,177,268,289,199,222,36,112,255,200,22,128,116,90,107,195,262,119,290,135,277,157,19,40,108,243,9,103,57,122,63,1,198,100,62,54,257,65,274,244,151,2,160,18,217,4,30,50,271,96,66,21,261,3,241,35,247,15,88,139,176,76,143,14,144,11,231,260,246,249,282,294,296,275,168,272,0,109,138,95,286,87,92,270,140,179,281,250,166,150,24,186,237,193,174,189,227,226,254,224,13,148,48,152,79,288,74,183,269,256,136,169,52,141,218,53,221,238,206,236,104,64,68,214,184,17,175,252,240,26,20,248,192,285,41,86,55,253,164,67,215]","arrowleft","","true","0","7","65","300","[""0082_N0300_K0065_CLIQUE"",""0094_N0300_K0065_NOCLIQUE""]"
"","","","","","audio-keyboard-response","64","597599","0.0-55.0-0.0-1.0","","null","audio_feedback/right/coin01.mp3","null","","","","","0","7","65","300","[""0082_N0300_K0065_CLIQUE"",""0094_N0300_K0065_NOCLIQUE""]"
"","","","","","canvas-keyboard-response","65","599223","0.0-56.0-0.0-0.0","","1589","","arrowright","[188,197,236,74,198,88,97,22,132,12,50,190,195,8,213,145,126,56,148,233,16,58,17,149,275,102,243,150,252,165,191,71,131,173,298,201,289,160,41,144,238,118,270,101,295,81,124,130,39,28,209,108,152,237,100,263,33,103,205,116,153,274,249,66,253,202,9,34,222,271,226,43,7,294,106,185,141,283,219,121,278,64,172,170,247,217,11,206,163,157,245,44,259,1,129,49,241,47,254,112,111,227,26,82,36,29,137,120,279,180,147,239,127,35,134,95,63,210,93,151,59,156,69,216,18,183,167,207,0,51,168,299,255,65,204,192,142,264,133,61,119,267,228,208,257,122,85,14,269,258,244,229,220,20,15,109,162,288,19,296,114,27,284,38,98,123,113,48,214,268,94,3,251,79,75,87,89,135,158,68,178,21,189,256,285,266,154,128,53,105,250,246,99,76,175,291,223,225,169,46,272,194,265,140,138,45,290,37,78,273,277,72,196,107,280,54,143,215,62,57,70,139,2,10,184,211,179,83,67,287,6,235,136,248,203,182,52,13,230,212,60,32,77,234,240,276,177,24,55,281,115,261,5,218,146,91,117,86,23,96,231,166,84,181,90,176,164,186,171,92,30,40,193,110,80,232,161,4,297,187,282,42,293,262,221,159,73,125,31,292,224,200,286,260,155,174,199,104,25,242]","arrowright","","true","0","8","60","300","[""0060_N0300_K0060_NOCLIQUE"",""0027_N0300_K0060_CLIQUE""]"
"","","","","","audio-keyboard-response","66","599639","0.0-56.0-0.0-1.0","","null","audio_feedback/right/coin01.mp3","null","","","","","0","8","60","300","[""0060_N0300_K0060_NOCLIQUE"",""0027_N0300_K0060_CLIQUE""]"
"","","","","","canvas-keyboard-response","67","603886","0.0-57.0-0.0-0.0","","4193","","arrowright","[191,34,104,255,115,146,68,77,96,248,250,168,99,74,71,20,298,105,198,229,203,273,42,242,4,73,251,117,190,178,18,165,46,183,114,218,188,75,24,58,22,138,253,132,195,127,173,269,139,241,289,50,245,0,223,234,169,88,210,187,192,182,291,276,56,216,155,287,201,206,193,179,211,219,106,230,62,243,135,91,156,27,118,113,259,240,186,69,1,262,32,297,296,133,256,101,72,100,290,9,202,59,17,246,221,29,209,92,147,145,94,40,43,52,226,93,215,237,214,54,70,258,270,222,238,64,45,176,140,185,136,5,293,121,65,55,247,112,272,249,23,122,108,102,267,189,141,292,180,128,172,86,260,157,164,149,80,236,265,184,268,83,200,264,196,143,107,10,53,51,137,171,131,232,151,125,231,16,271,161,152,257,28,227,148,280,19,120,119,162,13,233,204,103,89,37,235,85,154,124,3,98,177,38,282,11,87,60,153,61,207,36,217,44,111,158,225,160,78,49,199,63,116,2,21,277,48,97,35,170,224,220,228,197,126,150,274,299,26,30,294,166,278,79,205,47,12,286,6,181,239,95,7,281,109,90,41,275,295,159,263,212,8,123,285,110,76,167,57,213,174,67,15,279,252,33,81,261,84,163,130,194,66,283,284,208,129,142,144,254,39,14,31,134,266,82,244,175,25,288]","arrowright","","true","0","9","60","300","[""0026_N0300_K0060_NOCLIQUE"",""0049_N0300_K0060_CLIQUE""]"
"","","","","","audio-keyboard-response","68","604299","0.0-57.0-0.0-1.0","","null","audio_feedback/right/coin01.mp3","null","","","","","0","9","60","300","[""0026_N0300_K0060_NOCLIQUE"",""0049_N0300_K0060_CLIQUE""]"
"","","","","","canvas-keyboard-response","69","607721","0.0-58.0-0.0-0.0","","3384","","arrowleft","[2,21,100,257,268,109,251,144,44,64,195,266,10,249,207,290,201,292,269,259,3,15,125,72,74,267,89,49,88,188,58,122,170,56,273,178,293,97,71,106,77,154,26,270,83,255,101,237,86,158,239,153,182,219,41,13,165,124,45,174,238,107,114,262,131,299,92,93,36,197,8,161,25,7,111,180,278,17,96,145,167,285,274,102,224,143,235,198,218,171,142,0,155,52,243,215,168,16,121,40,1,217,18,298,194,230,271,151,279,84,222,163,252,206,112,61,14,120,48,28,90,245,69,205,246,55,291,24,22,199,287,196,264,91,140,19,282,172,12,34,189,253,129,4,191,59,104,23,241,160,281,75,175,275,212,176,162,95,202,209,213,65,242,94,152,46,137,216,98,147,63,150,105,221,148,173,47,73,223,53,260,141,32,186,38,276,228,20,5,288,294,214,280,29,184,225,33,210,76,200,126,166,277,113,128,66,82,286,265,159,62,31,258,118,51,54,103,284,50,39,220,250,234,110,87,244,248,283,157,146,123,240,132,99,115,81,9,70,35,179,68,229,236,208,211,256,272,80,169,181,60,203,43,297,231,133,193,117,27,295,183,233,127,164,136,192,37,130,79,187,67,108,134,261,185,57,78,119,149,263,227,177,226,42,190,289,116,247,138,156,11,232,135,296,139,204,85,254,30,6]","arrowleft","","true","0","10","55","300","[""0069_N0300_K0055_CLIQUE"",""0061_N0300_K0055_NOCLIQUE""]"
"","","","","","audio-keyboard-response","70","608139","0.0-58.0-0.0-1.0","","null","audio_feedback/right/coin01.mp3","null","","","","","0","10","55","300","[""0069_N0300_K0055_CLIQUE"",""0061_N0300_K0055_NOCLIQUE""]"
"","","","","","canvas-keyboard-response","71","611849","0.0-59.0-0.0-0.0","","3656","","arrowright","[279,230,271,135,262,67,234,280,232,94,272,226,137,83,244,187,231,136,9,292,254,282,35,284,108,145,156,92,117,210,181,119,102,195,25,298,185,115,124,167,294,112,85,275,134,16,297,1,141,224,81,178,121,49,236,37,69,193,127,116,160,149,211,179,63,130,172,71,174,268,242,196,173,158,33,128,29,4,202,290,153,205,60,118,99,248,95,2,276,250,7,190,159,120,177,246,188,144,257,97,22,32,213,73,125,164,75,129,163,14,288,223,299,17,225,47,6,260,88,45,228,239,235,104,215,165,152,50,53,42,255,168,26,207,52,295,208,41,186,148,114,15,98,220,296,70,281,256,214,209,96,87,101,132,162,269,12,155,113,192,3,38,86,261,122,206,93,64,36,143,157,58,20,46,13,151,140,273,166,103,249,74,182,106,217,146,11,21,56,126,147,61,133,8,107,204,161,78,251,5,200,111,80,203,233,39,154,139,100,252,23,54,245,227,191,287,170,197,283,212,263,194,243,90,218,105,265,240,0,247,55,201,241,219,131,68,43,65,66,180,72,216,51,31,266,293,169,109,258,253,285,237,175,291,27,123,222,286,184,267,277,48,57,10,278,84,138,62,183,18,40,150,189,259,79,199,34,198,91,30,289,110,82,24,264,229,142,238,221,28,44,176,171,89,274,77,19,76,59,270]","arrowright","","true","0","11","55","300","[""0091_N0300_K0055_NOCLIQUE"",""0027_N0300_K0055_CLIQUE""]"
"","","","","","audio-keyboard-response","72","612258","0.0-59.0-0.0-1.0","","null","audio_feedback/right/coin01.mp3","null","","","","","0","11","55","300","[""0091_N0300_K0055_NOCLIQUE"",""0027_N0300_K0055_CLIQUE""]"
"","","","","","canvas-keyboard-response","73","616015","0.0-60.0-0.0-0.0","","3719","","arrowright","[244,32,267,208,167,41,25,227,88,83,253,122,126,110,246,238,91,134,265,150,18,76,263,106,213,111,232,228,48,168,277,180,62,195,220,275,191,60,53,184,160,279,40,183,269,225,137,108,250,203,130,165,78,117,295,149,242,179,0,133,31,55,14,251,239,154,118,97,234,287,89,175,15,30,280,87,74,200,270,198,148,274,64,230,7,256,81,85,17,173,128,292,235,259,204,223,43,75,264,288,194,271,116,172,100,245,221,1,127,266,157,201,282,257,283,164,166,132,151,46,59,205,115,28,94,298,185,3,93,99,155,268,131,79,299,202,206,174,61,192,216,124,278,77,90,70,290,143,66,10,156,68,233,241,13,296,161,37,243,71,226,285,162,222,139,231,210,169,237,229,140,38,6,252,177,276,255,45,293,73,125,158,16,187,181,189,215,36,286,42,138,260,9,4,22,273,281,178,236,142,159,212,51,141,102,72,84,113,193,12,101,249,24,34,196,217,82,214,284,182,47,105,56,20,2,107,197,163,29,92,67,35,39,120,258,65,209,218,153,26,291,86,21,109,33,207,121,219,104,188,5,224,69,272,261,80,103,186,171,49,152,98,147,54,176,95,254,144,27,23,240,247,289,44,8,123,135,50,199,11,52,146,294,297,63,19,96,114,57,145,129,211,136,119,58,170,248,190,262,112]","arrowright","","true","0","12","50","300","[""0098_N0300_K0050_NOCLIQUE"",""0017_N0300_K0050_CLIQUE""]"
"","","","","","audio-keyboard-response","74","616418","0.0-60.0-0.0-1.0","","null","audio_feedback/right/coin01.mp3","null","","","","","0","12","50","300","[""0098_N0300_K0050_NOCLIQUE"",""0017_N0300_K0050_CLIQUE""]"
"","","","","","canvas-keyboard-response","75","619830","0.0-61.0-0.0-0.0","","3374","","arrowleft","[193,50,205,16,235,34,291,198,259,180,265,147,115,127,144,38,5,90,48,109,31,29,43,214,58,197,191,125,168,54,123,19,26,175,61,221,160,76,106,162,220,27,245,121,100,93,68,14,1,241,15,298,74,203,258,158,237,275,274,236,269,270,96,276,134,133,167,65,47,165,85,64,243,261,263,229,280,294,218,215,55,190,161,135,297,286,9,24,124,238,219,77,33,113,254,103,86,117,292,139,288,20,89,148,230,153,70,59,81,71,111,105,244,199,8,40,25,189,84,271,7,268,60,184,157,183,182,45,136,201,35,172,164,181,10,143,163,224,228,119,260,94,188,73,75,98,92,204,6,256,166,173,102,57,176,78,21,252,87,233,110,232,179,114,278,72,4,195,137,281,149,222,209,49,211,46,223,226,28,299,129,156,101,118,91,11,242,266,246,17,295,99,122,293,30,95,130,63,186,53,2,196,18,0,108,36,80,51,62,267,56,159,272,262,42,250,208,273,285,283,178,146,67,37,107,177,97,225,142,253,112,141,287,150,82,277,154,290,207,44,152,83,126,171,249,170,187,279,210,13,248,247,206,192,32,128,151,131,132,169,79,264,120,227,239,185,296,22,202,41,240,3,140,155,289,284,282,52,23,255,174,194,213,257,216,39,104,231,66,212,251,69,234,138,88,12,145,116,217,200]","arrowright","","false","0","13","50","300","[""0081_N0300_K0050_NOCLIQUE"",""0044_N0300_K0050_CLIQUE""]"
"","","","","","audio-keyboard-response","76","620419","0.0-61.0-0.0-1.0","","null","audio_feedback/wrong/error01.mp3","null","","","","","0","13","50","300","[""0081_N0300_K0050_NOCLIQUE"",""0044_N0300_K0050_CLIQUE""]"
"","","","","","canvas-keyboard-response","77","625526","0.0-62.0-0.0-0.0","","5068",""," ","[19,116,1,92,281,183,242,69,112,17,145,119,9,294,238,177,97,110,12,94,31,101,132,201,219,297,136,217,131,291,151,222,104,237,245,89,29,125,236,77,191,298,102,230,88,144,130,156,74,244,38,186,143,54,204,62,113,293,20,261,43,41,169,239,6,4,147,196,234,262,111,241,175,122,268,154,135,127,8,47,87,255,227,254,265,68,44,120,178,296,76,134,153,223,65,205,271,98,200,163,129,107,275,123,32,61,106,189,251,292,247,256,240,124,166,137,18,224,152,203,3,277,140,10,21,149,33,155,246,160,289,52,51,198,86,56,75,84,231,249,218,263,257,259,79,46,63,73,27,273,70,195,85,266,80,34,190,5,95,36,243,267,232,264,15,284,181,295,13,214,58,172,22,194,197,45,170,209,282,142,53,192,78,2,100,16,228,269,25,258,226,208,105,118,66,114,11,270,280,139,108,150,165,60,30,59,180,99,115,48,167,252,72,126,81,37,49,286,26,185,82,229,159,23,121,148,173,128,276,233,220,109,42,283,235,182,90,40,168,184,39,174,279,215,93,187,158,96,253,285,199,213,164,91,28,138,290,24,57,216,103,274,188,211,193,221,133,157,179,248,272,146,288,207,206,14,210,55,117,50,7,71,171,35,64,202,225,83,161,162,67,260,278,299,176,141,287,0,212,250]","arrowright","","","0","14","45","300","[""0034_N0300_K0045_NOCLIQUE"",""0081_N0300_K0045_CLIQUE""]"
"","","","","","audio-keyboard-response","78","626099","0.0-62.0-0.0-1.0","","null","audio_feedback/shuffles/shuffle01.mp3","null","","","","","0","14","45","300","[""0034_N0300_K0045_NOCLIQUE"",""0081_N0300_K0045_CLIQUE""]"
"","","","","","canvas-keyboard-response","79","627110","0.0-62.1-0.1-0.1","","970","","arrowright","[245,201,285,142,159,203,94,151,170,206,197,212,180,162,19,277,14,158,103,216,198,58,130,172,85,136,66,108,56,200,146,37,231,257,182,1,52,73,119,219,298,144,131,243,148,242,207,23,209,16,250,244,205,5,84,252,92,27,171,191,288,133,283,63,45,36,129,22,167,214,2,122,215,264,186,202,26,276,226,248,253,99,149,127,121,165,137,232,269,7,185,227,87,141,211,8,110,24,117,64,10,80,48,96,78,42,105,75,251,25,190,220,4,295,28,261,0,230,241,196,266,62,15,259,225,69,59,77,43,194,20,234,287,163,82,271,168,229,115,33,18,178,102,204,32,240,111,218,208,13,83,192,74,273,183,150,145,101,155,262,221,289,65,114,161,255,76,160,222,55,38,217,275,104,106,179,189,296,21,254,235,86,113,70,286,90,88,81,31,199,100,267,118,123,35,124,156,228,268,95,290,29,53,175,265,292,67,297,260,34,68,79,107,126,60,193,132,258,9,89,213,293,12,239,6,184,299,154,291,125,246,39,153,97,274,281,272,30,50,157,173,47,279,98,72,49,224,139,46,3,71,140,236,280,177,223,256,61,109,11,238,181,41,166,282,152,164,187,57,120,270,284,210,91,188,138,93,40,17,169,112,116,44,176,54,237,247,249,294,263,134,143,174,128,147,195,233,278,51,135]","arrowright","","true","0","14","45","300","[""0034_N0300_K0045_NOCLIQUE"",""0081_N0300_K0045_CLIQUE""]"
"","","","","","audio-keyboard-response","80","627519","0.0-62.1-0.1-1.1","","null","audio_feedback/right/coin01.mp3","null","","","","","0","14","45","300","[""0034_N0300_K0045_NOCLIQUE"",""0081_N0300_K0045_CLIQUE""]"
"","","","","","canvas-keyboard-response","81","629113","0.0-63.0-0.0-0.0","","1555","","arrowright","[142,135,279,42,59,1,290,78,137,184,202,181,149,256,281,243,31,218,89,53,207,93,71,287,185,44,4,122,283,50,179,125,128,153,114,158,6,130,14,163,165,57,141,251,67,55,77,226,201,92,66,186,72,263,223,18,29,225,156,104,217,255,94,229,146,33,203,97,24,30,3,160,206,286,47,213,280,15,118,98,129,10,12,28,2,167,211,190,232,108,270,87,249,139,253,176,259,196,132,120,88,22,8,187,296,37,269,138,173,292,166,277,11,63,19,82,136,90,100,271,25,20,36,240,260,144,168,272,27,34,294,264,291,242,204,74,126,205,131,23,192,237,282,193,49,148,26,295,200,113,169,275,76,298,177,238,75,154,102,45,96,230,174,117,134,155,212,172,159,95,119,197,244,111,103,289,175,9,234,297,220,110,209,288,233,16,293,273,274,299,107,64,285,124,266,105,248,178,188,81,231,109,7,48,219,216,80,140,265,41,261,195,151,250,84,171,0,262,215,65,246,182,268,236,245,60,252,221,157,91,145,39,247,68,152,183,191,56,51,17,5,257,189,241,235,32,61,46,210,208,258,180,267,40,164,58,199,276,13,170,239,52,228,214,115,21,38,35,133,161,127,227,79,143,222,85,86,54,194,112,69,254,62,106,123,70,101,284,99,198,224,43,162,73,147,121,150,116,278,83]","arrowright","","true","0","15","45","300","[""0063_N0300_K0045_NOCLIQUE"",""0082_N0300_K0045_CLIQUE""]"
"","","","","","audio-keyboard-response","82","629519","0.0-63.0-0.0-1.0","","null","audio_feedback/right/coin01.mp3","null","","","","","0","15","45","300","[""0063_N0300_K0045_NOCLIQUE"",""0082_N0300_K0045_CLIQUE""]"
"","","","","","canvas-keyboard-response","83","632134","0.0-64.0-0.0-0.0","","2574","","arrowright","[245,214,202,207,250,249,152,175,243,218,50,87,73,262,76,140,165,22,213,264,17,254,101,155,112,62,63,164,38,146,100,267,80,279,273,54,132,42,91,78,46,206,193,157,169,84,208,120,174,138,198,134,261,111,2,190,105,251,129,248,298,293,268,287,107,127,285,33,231,15,178,183,68,263,234,123,150,18,215,162,95,197,110,141,236,271,4,281,235,85,69,265,148,151,219,172,67,226,295,61,3,204,240,244,49,19,31,154,220,10,177,147,41,253,81,294,34,246,70,225,23,282,167,224,75,257,128,280,145,103,278,90,292,212,20,216,291,6,233,77,86,139,217,60,163,144,83,93,229,29,9,44,239,126,283,48,180,104,74,1,211,228,247,252,52,43,115,286,277,55,290,238,199,40,194,94,66,176,297,96,88,255,142,186,102,196,266,47,168,191,8,187,51,137,21,149,59,223,269,259,200,232,136,227,242,288,12,274,13,272,160,188,143,119,28,16,98,30,37,205,32,121,222,159,7,53,39,133,56,89,131,153,189,109,241,124,99,92,289,256,156,170,45,108,26,71,237,57,284,171,275,221,64,97,135,122,209,36,116,185,11,72,181,35,24,182,184,27,276,192,82,117,118,25,270,113,230,58,0,173,130,65,14,210,106,203,125,114,179,158,79,296,201,258,260,161,299,166,195,5]","arrowright","","true","0","16","40","300","[""0087_N0300_K0040_NOCLIQUE"",""0018_N0300_K0040_CLIQUE""]"
"","","","","","audio-keyboard-response","84","632539","0.0-64.0-0.0-1.0","","null","audio_feedback/right/coin01.mp3","null","","","","","0","16","40","300","[""0087_N0300_K0040_NOCLIQUE"",""0018_N0300_K0040_CLIQUE""]"
"","","","","","canvas-keyboard-response","85","637028","0.0-65.0-0.0-0.0","","4438","","arrowright","[164,267,277,49,171,189,299,113,177,229,0,29,102,173,143,53,291,254,135,225,232,279,70,91,124,27,271,146,211,136,215,17,212,98,197,118,67,156,268,59,218,257,214,94,270,39,9,264,296,243,172,236,14,174,230,161,219,45,203,170,121,168,178,73,66,108,133,208,176,207,251,105,85,47,259,283,222,282,26,10,294,37,248,16,103,72,280,86,12,33,50,19,84,122,255,48,265,63,131,153,2,182,36,185,187,62,245,144,262,151,286,253,35,235,11,204,40,132,224,196,288,15,192,206,239,64,134,25,125,106,139,287,126,160,273,285,3,181,117,244,28,199,75,228,216,101,68,42,200,217,246,110,24,201,157,281,71,89,78,23,220,55,60,166,5,202,231,51,83,249,298,93,272,127,292,88,293,130,256,159,104,4,295,209,240,237,165,80,138,210,142,34,252,186,137,111,213,155,179,261,65,97,297,193,32,278,175,234,233,76,269,21,41,77,141,22,180,242,81,109,6,31,56,223,149,92,38,90,221,227,8,147,152,52,167,95,1,79,183,250,30,74,20,194,191,99,162,247,87,290,100,7,188,61,69,284,205,258,96,115,169,266,13,123,44,54,128,198,184,119,260,195,154,241,116,120,129,190,150,107,58,114,57,289,82,276,112,43,18,226,148,275,158,274,238,263,46,140,145,163]","arrowright","","true","0","17","40","300","[""0017_N0300_K0040_NOCLIQUE"",""0060_N0300_K0040_CLIQUE""]"
"","","","","","audio-keyboard-response","86","637439","0.0-65.0-0.0-1.0","","null","audio_feedback/right/coin01.mp3","null","","","","","0","17","40","300","[""0017_N0300_K0040_NOCLIQUE"",""0060_N0300_K0040_CLIQUE""]"
"","","","","","canvas-keyboard-response","87","638702","0.0-66.0-0.0-0.0","","1226","","arrowright","[238,46,47,20,193,168,101,132,236,299,185,74,121,171,52,109,261,22,226,139,39,296,24,107,246,277,286,96,178,292,30,57,245,161,89,50,99,143,215,68,28,10,84,49,197,137,192,115,86,79,113,119,93,177,216,94,282,154,25,31,180,191,69,243,5,41,267,248,200,64,291,269,218,284,239,129,198,174,118,12,264,92,163,53,170,287,33,18,142,103,230,164,173,207,15,44,254,204,213,81,106,48,151,70,268,270,140,11,76,122,146,85,219,273,224,112,38,295,182,159,40,274,211,37,227,114,77,14,72,228,194,43,90,297,7,117,205,78,55,45,201,202,175,124,62,4,23,1,108,289,123,244,234,157,209,190,281,136,63,138,272,82,184,29,27,67,104,42,183,275,293,262,237,16,98,169,35,83,290,259,217,100,247,241,8,61,65,225,120,127,160,162,51,66,167,97,278,131,6,196,125,260,80,252,116,153,2,256,13,229,265,186,298,34,9,59,88,54,150,110,135,21,276,206,288,156,148,105,188,212,133,203,294,223,242,195,222,91,263,199,266,149,26,141,189,102,250,128,253,285,56,134,280,187,235,32,155,95,165,249,130,147,255,214,181,251,17,3,208,145,271,144,176,233,0,221,152,111,58,179,220,36,257,19,279,73,60,158,75,258,210,166,232,87,231,172,126,71,283,240]","arrowleft","","false","0","18","35","300","[""0087_N0300_K0035_CLIQUE"",""0059_N0300_K0035_NOCLIQUE""]"
"","","","","","audio-keyboard-response","88","639299","0.0-66.0-0.0-1.0","","null","audio_feedback/wrong/error01.mp3","null","","","","","0","18","35","300","[""0087_N0300_K0035_CLIQUE"",""0059_N0300_K0035_NOCLIQUE""]"
"","","","","","canvas-keyboard-response","89","641456","0.0-67.0-0.0-0.0","","2111","","arrowleft","[160,255,88,270,278,147,105,25,50,151,249,172,95,293,257,202,122,251,73,54,148,177,5,65,207,238,38,53,217,12,131,212,118,10,64,189,46,36,222,141,154,248,271,170,120,110,116,119,163,179,296,166,97,142,115,152,240,156,44,195,292,111,215,158,16,81,106,41,8,99,121,258,40,290,283,91,190,299,241,223,287,176,239,15,69,191,109,68,224,277,57,103,102,185,173,51,143,252,19,37,286,196,61,298,291,234,227,45,17,289,39,59,145,27,225,285,29,267,112,243,75,203,134,137,82,76,229,149,126,181,294,262,169,233,168,128,231,260,206,89,138,171,209,161,32,187,108,6,261,182,30,2,98,276,66,129,87,90,43,72,214,33,194,85,164,266,159,80,205,83,127,133,230,113,26,216,228,124,3,63,165,247,167,9,208,94,183,280,21,204,218,101,264,197,123,244,295,4,193,62,49,67,284,186,1,48,279,273,150,178,18,35,55,282,107,201,56,78,263,60,47,31,136,245,259,288,135,254,42,24,52,269,297,256,242,125,146,155,104,139,272,7,132,235,192,144,130,79,77,236,20,220,246,226,162,92,23,153,237,198,11,93,157,268,114,213,253,274,188,175,0,13,58,250,71,86,70,28,84,184,265,34,275,117,210,232,219,22,281,174,140,180,74,100,211,200,221,96,199,14]","arrowleft","","true","0","19","35","300","[""0054_N0300_K0035_CLIQUE"",""0045_N0300_K0035_NOCLIQUE""]"
"","","","","","audio-keyboard-response","90","641859","0.0-67.0-0.0-1.0","","null","audio_feedback/right/coin01.mp3","null","","","","","0","19","35","300","[""0054_N0300_K0035_CLIQUE"",""0045_N0300_K0035_NOCLIQUE""]"
"","","","","","canvas-keyboard-response","91","647684","0.0-68.0-0.0-0.0","","5790","","arrowleft","[213,220,158,29,108,89,275,249,191,270,202,195,225,177,214,144,261,242,258,5,155,4,162,74,26,180,57,240,264,287,127,54,232,276,181,207,212,269,32,101,157,112,28,227,266,149,279,172,244,111,124,235,36,25,42,145,99,263,53,288,286,90,151,290,268,67,139,58,210,110,76,252,211,201,148,79,186,218,39,45,88,197,171,20,297,9,146,61,234,283,125,238,168,233,294,229,223,113,114,154,13,152,100,219,282,51,116,130,102,126,281,292,40,204,0,278,86,87,123,73,147,183,133,44,280,128,97,285,166,165,84,257,12,1,236,170,272,15,50,274,226,60,8,80,255,239,115,7,215,192,23,138,72,241,92,78,189,291,66,95,194,6,105,118,75,43,10,284,38,55,296,85,93,222,245,82,33,246,163,37,250,35,203,81,22,295,254,169,265,137,164,98,174,230,70,140,184,228,173,216,106,175,159,65,208,27,16,24,224,77,11,188,134,48,64,206,185,253,217,293,156,237,198,47,193,231,94,91,135,259,104,59,176,136,69,19,260,153,200,3,63,62,161,182,273,71,141,199,103,243,267,247,178,150,96,117,121,119,107,34,262,187,21,160,132,209,277,2,143,179,131,120,205,68,83,56,256,167,52,142,17,18,49,299,109,190,289,122,129,271,41,298,14,30,31,46,196,248,221,251]","arrowleft","","true","0","20","30","300","[""0082_N0300_K0030_CLIQUE"",""0016_N0300_K0030_NOCLIQUE""]"
"","","","","","audio-keyboard-response","92","648098","0.0-68.0-0.0-1.0","","null","audio_feedback/right/coin01.mp3","null","","","","","0","20","30","300","[""0082_N0300_K0030_CLIQUE"",""0016_N0300_K0030_NOCLIQUE""]"
"","","","","","canvas-keyboard-response","93","649672","0.0-69.0-0.0-0.0","","1536","","arrowleft","[147,126,76,256,263,92,74,186,291,274,71,245,233,158,258,61,6,225,284,297,25,189,265,124,38,287,164,266,105,50,135,138,128,108,180,73,82,184,191,75,259,102,48,190,218,86,250,241,157,79,60,167,24,101,238,262,226,166,37,271,9,4,294,152,278,18,7,51,134,0,21,151,67,10,215,197,35,298,107,87,123,69,99,168,8,192,285,171,57,236,264,173,110,81,227,280,170,176,39,121,91,28,296,49,204,54,243,194,149,269,247,279,251,130,47,104,80,252,20,211,195,235,133,283,295,77,253,142,179,272,136,182,150,55,224,94,63,32,165,183,288,95,163,56,223,219,162,257,178,59,117,289,230,244,229,248,120,43,148,46,111,242,286,203,62,169,114,98,1,84,232,26,16,53,275,255,65,3,273,64,103,209,140,58,143,33,260,200,185,293,202,113,109,208,27,231,144,299,261,159,187,160,212,93,106,220,201,88,85,137,45,70,213,141,34,237,42,172,14,193,181,146,177,11,19,281,139,129,228,131,90,292,89,41,206,267,153,78,122,188,119,210,17,290,72,100,125,234,155,132,36,214,282,174,66,217,221,31,216,276,40,44,12,15,29,127,2,96,115,97,30,222,175,254,246,22,23,277,13,207,52,196,198,5,68,118,268,154,112,83,239,161,156,249,240,270,205,145,116,199]","arrowleft","","true","0","21","30","300","[""0079_N0300_K0030_CLIQUE"",""0068_N0300_K0030_NOCLIQUE""]"
"","","","","","audio-keyboard-response","94","650079","0.0-69.0-0.0-1.0","","null","audio_feedback/right/coin01.mp3","null","","","","","0","21","30","300","[""0079_N0300_K0030_CLIQUE"",""0068_N0300_K0030_NOCLIQUE""]"
"","","","","","canvas-keyboard-response","95","652017","0.0-70.0-0.0-0.0","","1898","","arrowleft","[208,185,213,297,229,247,209,121,245,0,248,31,37,262,217,56,122,76,22,154,292,192,172,145,36,273,227,83,233,202,39,165,135,130,186,8,111,65,34,82,57,67,139,109,170,279,178,141,43,182,241,47,77,203,196,55,176,207,63,61,46,38,95,296,88,96,72,160,100,64,277,250,288,283,89,21,210,140,224,35,151,101,225,181,27,24,195,234,162,204,293,190,133,294,166,103,78,252,174,123,290,285,278,184,68,246,144,173,112,13,87,59,265,149,137,97,113,179,199,260,284,23,142,4,58,189,107,253,44,242,257,6,183,159,228,161,291,238,41,222,276,158,155,220,48,150,52,219,216,42,131,169,66,264,147,92,206,236,243,49,146,215,240,84,106,230,281,272,138,50,70,211,175,9,258,10,152,201,214,239,128,19,53,25,134,157,5,188,198,231,104,120,126,91,249,226,60,90,7,156,132,282,232,94,26,287,244,289,237,74,295,259,102,28,129,45,75,168,71,223,29,180,110,298,17,115,51,15,177,32,261,212,270,263,194,256,280,269,73,33,275,30,197,119,2,18,235,193,251,266,200,164,16,11,114,255,79,268,118,108,163,40,93,125,85,69,267,254,105,191,54,62,124,99,80,187,116,20,153,117,3,127,274,148,143,14,1,86,221,218,98,81,299,12,205,171,136,271,286,167]","arrowright","","false","0","22","25","300","[""0033_N0300_K0025_NOCLIQUE"",""0036_N0300_K0025_CLIQUE""]"
"","","","","","audio-keyboard-response","96","652618","0.0-70.0-0.0-1.0","","null","audio_feedback/wrong/error01.mp3","null","","","","","0","22","25","300","[""0033_N0300_K0025_NOCLIQUE"",""0036_N0300_K0025_CLIQUE""]"
"","","","","","canvas-keyboard-response","97","654590","0.0-71.0-0.0-0.0","","1936","","arrowright","[138,125,131,253,289,31,127,117,116,212,186,79,169,223,121,118,161,296,196,34,11,73,75,2,240,5,160,149,298,30,7,267,83,197,36,90,214,207,228,247,60,139,243,89,288,15,29,292,285,244,94,297,74,144,274,40,163,189,76,266,269,295,85,271,69,120,119,268,37,9,95,180,82,299,50,261,10,281,107,20,182,204,191,68,171,6,272,198,190,168,185,44,123,112,66,284,220,162,184,151,115,210,259,156,279,122,208,200,52,24,254,72,111,16,78,54,167,56,278,153,70,28,174,188,96,221,230,92,58,132,287,1,53,203,229,157,209,147,158,249,57,47,154,194,234,166,141,148,145,276,134,294,176,124,155,17,135,48,293,219,152,105,183,199,59,245,282,263,175,130,27,179,270,238,201,275,165,61,181,106,257,86,187,42,33,280,202,18,0,41,84,142,195,239,211,101,217,177,246,260,98,251,21,193,206,170,291,231,104,102,81,255,63,164,133,14,286,4,62,71,110,173,25,65,222,87,262,43,126,93,128,100,13,242,241,12,140,226,236,49,178,114,237,150,159,32,26,216,8,39,252,265,273,91,103,218,108,277,23,264,97,80,109,248,235,45,250,227,136,233,22,35,224,46,172,129,88,143,215,51,38,258,213,146,113,205,64,19,256,55,283,3,225,77,290,137,99,192,67,232]","arrowright","","true","0","23","25","300","[""0025_N0300_K0025_NOCLIQUE"",""0033_N0300_K0025_CLIQUE""]"
"","","","","","audio-keyboard-response","98","654998","0.0-71.0-0.0-1.0","","null","audio_feedback/right/coin01.mp3","null","","","","","0","23","25","300","[""0025_N0300_K0025_NOCLIQUE"",""0033_N0300_K0025_CLIQUE""]"
"","","","","","canvas-keyboard-response","99","656519","0.0-72.0-0.0-0.0","","1485","","arrowright","[147,13,7,81,104,222,189,108,183,282,26,157,213,201,33,265,276,88,155,279,101,150,92,32,173,110,113,214,267,206,148,57,231,219,35,22,293,75,121,287,193,9,18,140,165,208,70,262,43,36,227,259,185,190,31,175,135,63,1,130,218,226,21,286,272,90,120,44,17,139,242,184,149,156,186,290,153,29,41,142,253,46,280,111,187,128,53,179,288,252,158,202,284,159,235,84,48,289,47,72,112,50,129,166,39,28,154,87,89,298,59,98,133,52,116,230,246,270,191,138,117,119,69,250,192,109,2,209,180,170,103,131,296,97,80,100,85,94,146,271,297,11,136,264,281,127,60,107,171,203,216,0,38,64,295,247,37,134,299,82,105,51,240,268,261,241,62,278,124,200,223,126,238,215,255,163,162,73,229,260,27,174,204,56,257,254,232,164,258,61,151,228,294,12,83,15,106,210,217,198,4,45,79,234,68,20,181,167,283,42,54,220,58,86,160,225,91,19,145,3,115,78,95,221,233,275,212,118,71,182,224,251,122,188,144,34,99,77,114,137,25,49,8,169,248,249,67,102,256,14,177,152,161,266,96,178,292,195,196,291,199,263,23,285,269,141,65,245,274,205,10,66,24,194,236,76,237,172,74,273,5,243,176,244,125,40,55,93,123,16,211,207,239,143,6,197,132,30,168,277]","arrowleft","","false","0","24","20","300","[""0009_N0300_K0020_CLIQUE"",""0059_N0300_K0020_NOCLIQUE""]"
"","","","","","audio-keyboard-response","100","657118","0.0-72.0-0.0-1.0","","null","audio_feedback/wrong/error01.mp3","null","","","","","0","24","20","300","[""0009_N0300_K0020_CLIQUE"",""0059_N0300_K0020_NOCLIQUE""]"
"","","","","","canvas-keyboard-response","101","660639","0.0-73.0-0.0-0.0","","3485","","arrowright","[240,174,96,264,153,230,265,47,292,283,105,90,51,172,9,138,46,12,133,286,270,295,179,100,25,40,186,233,63,299,161,257,167,152,170,60,203,3,28,269,145,251,121,196,39,37,42,77,103,277,159,280,210,21,72,142,137,156,222,53,144,274,211,23,287,165,35,220,209,183,231,184,255,134,185,227,291,297,84,127,198,176,151,55,49,69,260,213,248,34,109,282,57,107,206,95,232,66,27,201,24,234,149,85,120,131,79,11,135,171,229,247,279,225,22,258,147,18,93,59,207,10,88,166,113,19,273,241,242,123,82,48,180,228,289,237,150,41,244,155,114,110,235,164,160,81,168,199,94,50,112,141,15,245,281,157,106,194,272,195,223,80,261,190,296,285,44,175,86,215,6,111,65,294,181,136,118,205,290,267,58,33,29,177,129,13,254,246,17,115,124,214,253,16,32,224,78,104,54,154,36,218,102,76,92,64,108,31,158,126,97,14,68,125,189,148,252,178,263,83,236,116,193,208,200,89,38,221,45,278,30,62,191,98,298,212,288,187,117,266,0,169,5,139,128,70,204,239,132,284,73,122,26,217,43,20,249,143,226,2,56,163,99,140,182,119,275,130,256,7,219,146,52,192,67,91,87,262,268,162,276,4,216,202,173,197,71,61,101,1,250,188,293,74,8,238,243,271,75,259]","arrowright","","true","0","25","20","300","[""0056_N0300_K0020_NOCLIQUE"",""0091_N0300_K0020_CLIQUE""]"
"","","","","","audio-keyboard-response","102","661058","0.0-73.0-0.0-1.0","","null","audio_feedback/right/coin01.mp3","null","","","","","0","25","20","300","[""0056_N0300_K0020_NOCLIQUE"",""0091_N0300_K0020_CLIQUE""]"
"","","","","","canvas-keyboard-response","103","663658","0.0-74.0-0.0-0.0","","2564","","arrowright","[64,227,93,210,7,202,240,233,250,181,153,84,58,290,209,297,45,39,74,294,213,280,188,98,205,22,107,142,214,182,3,62,299,66,35,254,172,257,29,124,40,118,234,21,222,194,112,256,185,292,103,223,46,224,169,286,207,296,187,75,19,262,179,2,151,146,255,260,180,196,131,25,14,61,267,95,60,76,148,105,88,199,53,288,28,128,159,212,143,157,8,121,235,42,193,239,23,229,122,283,228,67,141,51,263,206,80,253,136,201,282,248,164,258,82,63,242,20,30,47,130,59,266,116,276,237,91,144,268,43,170,265,44,34,129,231,12,56,83,138,92,247,251,99,150,154,270,125,293,220,287,226,102,89,183,192,289,230,200,191,167,132,50,152,284,174,9,245,246,252,140,291,69,27,72,119,211,145,173,90,171,77,161,264,113,221,285,137,278,295,275,5,31,238,33,81,117,198,168,120,57,261,156,97,104,259,1,195,52,26,11,86,110,190,219,17,203,236,70,216,135,114,123,134,38,273,109,225,215,271,218,4,115,197,96,186,15,108,18,111,100,274,178,147,298,133,78,13,79,177,281,127,48,155,126,204,37,162,101,272,68,73,217,6,160,24,241,16,249,55,94,36,41,85,184,71,279,166,158,106,244,243,208,269,149,176,277,49,65,163,175,189,87,54,10,232,0,139,165,32]","arrowleft","","false","0","26","15","300","[""0023_N0300_K0015_CLIQUE"",""0024_N0300_K0015_NOCLIQUE""]"
"","","","","","audio-keyboard-response","104","664259","0.0-74.0-0.0-1.0","","null","audio_feedback/wrong/error01.mp3","null","","","","","0","26","15","300","[""0023_N0300_K0015_CLIQUE"",""0024_N0300_K0015_NOCLIQUE""]"
"","","","","","canvas-keyboard-response","105","666789","0.0-75.0-0.0-0.0","","2492","","arrowleft","[45,249,186,293,124,245,179,110,210,261,101,121,48,42,17,62,271,277,147,126,16,171,215,53,74,100,120,122,21,60,160,41,173,106,76,136,157,36,180,292,144,4,196,194,23,172,27,40,7,198,282,13,138,268,86,12,259,294,193,94,252,140,107,89,150,209,153,287,195,223,26,63,212,291,99,228,37,18,81,224,227,135,141,91,33,158,61,51,10,197,73,296,244,280,24,92,151,130,64,262,274,58,181,146,204,220,84,29,184,117,0,104,96,75,161,118,241,5,69,264,188,231,132,50,251,185,1,298,82,258,119,182,281,83,187,243,203,248,68,134,254,270,164,125,116,57,128,123,284,236,49,88,246,159,39,6,189,290,102,15,218,127,54,219,272,78,214,19,87,28,177,297,34,8,152,256,201,225,239,93,22,200,285,3,288,80,176,174,253,273,229,14,30,70,154,233,71,211,199,148,283,43,276,166,267,32,217,31,265,207,222,162,98,167,178,247,221,278,266,131,226,111,109,242,155,250,35,115,113,269,65,52,25,149,190,175,11,192,143,133,114,202,90,299,165,38,139,105,238,240,129,67,72,216,255,85,47,137,142,263,213,77,112,97,145,289,103,2,275,208,156,46,168,163,170,232,286,95,279,20,59,230,234,206,169,66,257,56,183,44,9,55,260,108,191,237,205,79,295,235]","arrowleft","","true","0","27","15","300","[""0021_N0300_K0015_CLIQUE"",""0045_N0300_K0015_NOCLIQUE""]"
"","","","","","audio-keyboard-response","106","667199","0.0-75.0-0.0-1.0","","null","audio_feedback/right/coin01.mp3","null","","","","","0","27","15","300","[""0021_N0300_K0015_CLIQUE"",""0045_N0300_K0015_NOCLIQUE""]"
"","","","","","canvas-keyboard-response","107","668351","0.0-76.0-0.0-0.0","","1114","","arrowleft","[176,85,131,181,26,152,266,166,260,265,205,167,46,14,82,32,233,66,5,76,60,155,182,179,184,177,11,221,147,199,81,216,197,23,255,119,246,30,263,6,73,203,102,38,237,35,249,186,39,235,254,126,18,192,19,153,170,80,279,222,207,174,229,178,188,68,238,52,267,275,140,120,37,196,190,223,87,67,219,96,127,108,93,33,0,248,130,195,171,15,247,149,291,212,261,132,282,209,124,122,252,135,49,231,298,13,86,40,28,290,218,105,69,283,25,296,194,94,70,143,2,103,121,21,250,161,144,1,110,47,98,226,273,281,101,64,208,271,157,16,51,9,3,125,17,146,299,168,189,280,228,172,274,112,240,104,151,217,41,44,63,295,241,136,8,88,201,56,156,83,62,78,169,142,134,162,89,288,123,180,111,259,150,77,106,117,158,165,243,114,74,58,133,113,257,270,48,54,65,154,145,230,236,251,107,163,59,234,43,183,57,264,227,211,100,75,232,160,173,175,109,213,191,42,224,204,285,91,53,138,253,202,294,72,36,50,29,193,31,239,215,269,244,10,198,242,4,24,141,200,278,187,79,262,137,99,12,129,95,292,84,20,287,164,206,225,55,115,22,116,268,128,289,210,220,7,276,286,185,293,97,272,45,214,118,245,148,256,139,277,61,27,34,258,159,90,92,284,71,297]","arrowright","","false","0","28","10","300","[""0024_N0300_K0010_NOCLIQUE"",""0017_N0300_K0010_CLIQUE""]"
"","","","","","audio-keyboard-response","108","668939","0.0-76.0-0.0-1.0","","null","audio_feedback/wrong/error01.mp3","null","","","","","0","28","10","300","[""0024_N0300_K0010_NOCLIQUE"",""0017_N0300_K0010_CLIQUE""]"
"","","","","","canvas-keyboard-response","109","669855","0.0-77.0-0.0-0.0","","878","","arrowleft","[165,70,266,32,205,104,175,9,166,4,182,95,219,296,177,83,216,199,23,164,66,140,16,212,210,152,130,258,228,17,211,76,204,180,155,233,272,257,52,224,118,25,89,284,123,87,85,64,287,237,163,57,238,273,62,6,102,71,133,268,209,29,142,260,196,288,247,47,10,86,97,193,174,149,227,7,184,143,249,131,18,173,60,277,234,110,117,295,103,282,289,84,53,275,50,290,8,169,136,241,217,151,203,265,138,132,65,281,239,197,122,114,225,13,200,27,207,54,194,44,137,3,46,230,56,271,235,67,134,162,191,246,253,229,112,147,159,269,34,107,45,189,12,201,206,36,218,172,14,129,263,231,146,98,124,125,153,285,28,5,262,195,92,215,261,21,61,106,167,81,88,176,141,232,37,178,297,274,59,68,293,250,157,236,190,186,120,291,283,49,150,127,20,119,108,156,40,181,0,243,170,58,259,55,94,33,93,22,72,80,24,171,39,11,63,126,90,75,276,115,179,188,251,31,213,73,270,77,223,187,91,299,280,116,158,82,15,154,208,226,26,135,69,192,298,267,145,1,242,221,240,128,220,244,160,252,139,100,111,222,161,254,144,256,41,202,286,38,214,279,245,79,19,30,292,109,198,96,278,121,42,294,264,101,185,168,113,74,78,2,51,48,183,35,43,248,105,255,99,148]","arrowleft","","true","0","29","10","300","[""0097_N0300_K0010_CLIQUE"",""0046_N0300_K0010_NOCLIQUE""]"
"","","","","","audio-keyboard-response","110","670259","0.0-77.0-0.0-1.0","","null","audio_feedback/right/coin01.mp3","null","","","","","0","29","10","300","[""0097_N0300_K0010_CLIQUE"",""0046_N0300_K0010_NOCLIQUE""]"
"","","","","","instructions","111","675686","0.0-78.0","[{""page_index"":0,""viewing_time"":5425}]","5426","","","","","","","","","","",""
"","","","","","canvas-keyboard-response","112","677171","0.0-79.0-0.0-0.0","","1448","","arrowright","[240,174,94,61,1,263,231,286,262,157,37,63,97,294,243,92,196,198,55,280,114,177,249,189,150,3,139,188,256,208,31,274,201,85,155,104,209,222,59,291,221,163,41,35,173,255,287,260,69,96,244,73,253,16,28,52,62,125,264,132,178,186,295,269,179,105,146,228,143,26,278,88,237,118,71,298,78,74,156,273,158,30,282,169,170,48,65,75,226,56,60,54,152,44,299,115,18,195,193,216,53,210,214,248,76,203,13,99,171,83,224,10,122,72,184,106,89,283,246,159,215,251,211,109,239,267,233,258,11,241,272,95,162,67,110,247,206,51,70,259,250,14,192,86,128,120,40,265,238,19,148,225,165,218,200,204,15,223,77,108,124,68,229,180,27,4,293,183,141,227,101,121,145,290,33,144,236,254,230,151,194,82,90,32,149,66,284,29,113,42,285,9,281,219,98,24,123,103,182,166,275,87,261,147,116,84,199,119,187,164,79,207,0,46,131,102,176,5,57,21,197,6,39,117,181,213,47,217,137,167,212,91,292,134,205,64,80,140,126,172,142,23,185,153,276,8,175,160,45,25,257,191,245,279,202,81,252,34,288,20,58,38,234,133,129,190,100,297,232,242,93,270,168,268,289,136,12,138,111,112,271,22,7,43,277,130,235,107,220,266,154,296,2,161,127,36,135,50,17,49]","arrowright","","true","1","0","90","300","[""0095_N0300_K0090_NOCLIQUE"",""0011_N0300_K0090_CLIQUE""]"
"","","","","","audio-keyboard-response","113","677579","0.0-79.0-0.0-1.0","","null","audio_feedback/right/coin01.mp3","null","","","","","1","0","90","300","[""0095_N0300_K0090_NOCLIQUE"",""0011_N0300_K0090_CLIQUE""]"
"","","","","","canvas-keyboard-response","114","678564","0.0-80.0-0.0-0.0","","946","","arrowleft","[164,134,132,253,180,179,286,284,93,174,289,144,85,34,37,82,51,117,196,162,67,188,278,243,285,194,152,146,157,49,224,159,220,267,10,148,24,283,133,131,166,191,229,281,268,189,99,54,80,239,138,263,276,235,1,139,92,186,221,75,91,242,77,102,128,155,112,160,280,28,183,3,270,230,240,17,71,33,83,184,237,130,213,0,192,30,248,269,8,101,13,56,39,87,14,59,46,246,222,150,116,216,290,272,177,42,169,65,265,105,35,25,15,38,245,299,181,58,107,264,123,156,127,271,69,48,187,211,291,32,204,293,149,249,121,234,68,227,202,298,266,238,200,62,219,198,44,254,294,217,199,90,47,11,124,236,55,76,175,209,140,86,98,120,108,109,233,212,176,88,110,143,214,190,256,115,52,78,151,20,2,137,261,297,126,81,129,50,111,45,165,27,288,206,197,64,287,31,26,228,74,53,60,70,63,18,100,57,208,125,251,282,207,205,73,250,95,23,161,142,106,96,29,147,171,36,295,218,193,244,231,203,226,61,7,104,141,103,114,172,178,79,210,273,163,89,4,223,279,225,136,94,16,232,154,292,260,252,258,119,275,262,135,113,247,255,22,43,257,170,274,9,296,6,215,241,158,97,72,145,173,195,118,182,21,168,5,41,12,185,259,167,66,84,40,201,277,19,122,153]","arrowleft","","true","1","1","90","300","[""0035_N0300_K0090_CLIQUE"",""0099_N0300_K0090_NOCLIQUE""]"
"","","","","","audio-keyboard-response","115","678979","0.0-80.0-0.0-1.0","","null","audio_feedback/right/coin01.mp3","null","","","","","1","1","90","300","[""0035_N0300_K0090_CLIQUE"",""0099_N0300_K0090_NOCLIQUE""]"
"","","","","","canvas-keyboard-response","116","679974","0.0-81.0-0.0-0.0","","956","","arrowleft","[228,86,127,246,256,238,298,260,171,280,90,96,222,206,63,180,129,143,71,52,275,250,203,225,224,288,78,22,268,192,135,235,92,87,220,213,20,106,30,27,258,226,130,257,249,74,241,255,136,273,218,97,140,156,278,242,162,245,23,59,237,88,41,157,10,126,7,295,181,36,5,190,125,16,240,210,286,75,163,161,122,54,204,83,67,174,56,142,13,24,116,53,19,284,118,123,68,209,194,236,89,112,57,107,253,65,198,291,110,211,120,138,77,1,169,276,79,178,164,292,199,0,9,281,32,148,60,293,42,152,289,62,146,151,70,4,72,186,271,221,287,124,227,176,105,155,279,207,81,133,55,254,134,48,184,247,58,119,15,117,297,195,259,251,132,11,188,103,193,145,166,99,274,84,25,265,2,282,197,234,38,3,147,263,149,217,272,137,28,100,44,114,14,201,212,175,102,252,35,170,47,219,150,230,191,128,33,76,93,229,173,214,177,108,231,111,113,131,43,61,73,248,153,200,243,159,139,205,264,121,187,172,82,12,158,34,244,37,91,232,179,26,80,189,239,17,277,51,165,18,168,66,109,94,104,185,183,69,49,160,223,29,167,85,261,196,202,269,296,98,215,64,115,8,45,95,285,283,270,101,144,154,50,141,21,290,31,39,267,46,208,294,182,40,6,262,216,266,233,299]","arrowleft","","true","1","2","80","300","[""0081_N0300_K0080_CLIQUE"",""0016_N0300_K0080_NOCLIQUE""]"
"","","","","","audio-keyboard-response","117","680379","0.0-81.0-0.0-1.0","","null","audio_feedback/right/coin01.mp3","null","","","","","1","2","80","300","[""0081_N0300_K0080_CLIQUE"",""0016_N0300_K0080_NOCLIQUE""]"
"","","","","","canvas-keyboard-response","118","681319","0.0-82.0-0.0-0.0","","903","","arrowright","[165,113,262,202,72,20,182,226,284,209,111,294,55,118,12,197,251,94,191,281,32,9,104,268,211,134,224,35,117,95,190,92,123,198,65,278,69,67,153,280,59,298,149,107,181,296,220,275,264,237,195,132,179,119,170,23,108,162,155,201,143,235,216,68,282,299,77,274,86,243,6,4,269,263,53,291,13,295,89,249,8,2,30,276,125,0,188,256,47,54,120,85,171,254,78,64,252,142,260,150,154,62,161,18,218,293,242,248,144,223,60,205,27,98,215,29,99,192,271,180,265,148,290,174,152,287,41,227,175,185,45,270,285,289,79,75,167,178,133,196,28,43,183,210,232,286,219,277,84,56,37,74,71,52,187,225,101,158,172,58,16,261,229,136,217,139,140,160,70,88,63,19,199,212,151,90,31,128,173,106,3,222,208,221,159,145,82,105,234,130,112,255,230,239,129,288,147,204,121,124,253,122,244,283,80,127,292,114,44,97,207,50,14,10,259,24,5,169,61,1,17,57,87,258,176,146,141,189,228,7,177,240,26,110,39,48,157,279,21,273,66,164,116,238,36,241,115,168,15,135,236,257,233,186,81,214,184,297,137,73,96,266,100,231,83,267,40,25,193,49,76,91,247,200,126,194,103,38,245,102,246,250,42,138,213,272,156,166,206,51,93,46,33,109,22,11,131,34,163,203]","arrowright","","true","1","3","80","300","[""0099_N0300_K0080_NOCLIQUE"",""0018_N0300_K0080_CLIQUE""]"
"","","","","","audio-keyboard-response","119","681739","0.0-82.0-0.0-1.0","","null","audio_feedback/right/coin01.mp3","null","","","","","1","3","80","300","[""0099_N0300_K0080_NOCLIQUE"",""0018_N0300_K0080_CLIQUE""]"
"","","","","","canvas-keyboard-response","120","682587","0.0-83.0-0.0-0.0","","793","","arrowright","[158,77,59,14,47,290,136,197,57,63,30,22,90,49,157,95,280,23,219,56,134,205,119,15,253,168,3,6,247,52,294,242,33,186,173,259,96,75,68,216,183,11,162,142,5,65,0,191,170,156,130,93,287,262,140,154,151,299,230,46,124,161,117,255,84,164,145,61,74,288,97,98,163,206,181,224,38,234,271,116,270,227,222,58,179,246,53,87,72,92,265,228,296,292,239,272,31,251,122,103,121,217,261,16,19,107,48,166,115,226,109,45,88,249,208,178,24,111,214,113,190,8,143,69,169,237,146,128,199,220,126,37,101,2,82,18,295,233,21,99,176,29,196,73,44,285,120,215,257,236,66,198,42,139,211,35,177,9,100,83,54,275,80,276,34,250,244,55,71,147,110,184,133,62,283,32,277,189,278,10,297,67,167,13,125,144,182,172,221,40,185,282,229,17,108,209,76,298,263,252,135,267,12,20,112,195,284,248,64,264,160,106,39,7,25,148,70,286,279,153,289,175,200,225,41,207,141,78,194,231,91,94,180,127,291,159,243,51,114,201,152,132,240,258,43,36,210,129,138,187,86,26,149,171,266,79,89,188,174,260,150,193,202,28,137,293,245,131,85,203,241,155,212,102,204,232,4,118,27,123,105,104,213,254,274,268,218,192,235,238,256,269,50,60,223,1,81,165,281,273]","arrowright","","true","1","4","70","300","[""0018_N0300_K0070_NOCLIQUE"",""0095_N0300_K0070_CLIQUE""]"
"","","","","","audio-keyboard-response","121","682999","0.0-83.0-0.0-1.0","","null","audio_feedback/right/coin01.mp3","null","","","","","1","4","70","300","[""0018_N0300_K0070_NOCLIQUE"",""0095_N0300_K0070_CLIQUE""]"
"","","","","","canvas-keyboard-response","122","684033","0.0-84.0-0.0-0.0","","984","","arrowright","[153,90,134,60,252,17,87,196,7,218,293,120,147,255,104,68,220,221,277,207,31,116,27,263,122,57,65,61,59,176,265,236,131,209,188,152,45,136,14,38,149,96,135,126,1,167,180,29,67,279,35,0,79,299,133,216,217,239,43,237,50,83,200,157,112,4,26,144,159,178,210,224,238,80,264,283,163,192,296,259,227,158,19,84,179,295,143,246,44,23,125,16,280,54,212,203,10,32,206,272,198,194,34,72,139,172,162,234,78,184,55,249,71,9,141,261,39,287,75,92,226,230,222,85,107,183,223,271,155,6,70,248,106,52,231,145,191,110,3,121,276,98,281,117,24,190,40,177,251,274,99,219,21,202,74,82,12,240,11,254,62,166,25,51,97,94,130,48,81,132,174,127,278,204,197,186,88,118,37,267,156,66,214,115,270,290,233,2,298,146,18,170,242,275,91,13,286,49,128,294,73,114,297,103,41,292,215,5,140,101,36,245,138,8,205,102,119,154,213,89,262,15,291,168,46,76,173,137,64,20,260,269,273,160,175,201,250,171,150,63,28,285,33,111,199,30,235,241,165,69,195,151,258,244,58,148,182,123,108,164,109,100,142,266,161,228,42,225,129,208,56,257,185,113,256,169,289,247,268,105,124,229,86,253,93,189,187,22,232,181,288,211,77,243,47,284,53,282,193,95]","arrowright","","true","1","5","70","300","[""0086_N0300_K0070_NOCLIQUE"",""0022_N0300_K0070_CLIQUE""]"
"","","","","","audio-keyboard-response","123","684439","0.0-84.0-0.0-1.0","","null","audio_feedback/right/coin01.mp3","null","","","","","1","5","70","300","[""0086_N0300_K0070_NOCLIQUE"",""0022_N0300_K0070_CLIQUE""]"
"","","","","","canvas-keyboard-response","124","685189","0.0-85.0-0.0-0.0","","713","","arrowleft","[52,169,200,36,49,181,266,278,53,112,27,140,175,153,297,102,147,15,231,158,93,217,5,74,171,35,77,95,284,232,295,63,226,56,66,62,59,68,258,146,289,76,242,81,90,111,269,164,198,3,6,83,199,214,208,33,172,40,294,12,220,190,298,156,182,185,160,141,271,51,290,26,180,292,64,98,29,0,44,260,213,89,273,267,150,114,106,296,187,244,119,136,189,125,252,42,255,221,20,201,123,23,247,264,230,241,144,222,84,268,7,22,280,155,236,203,262,70,196,179,118,67,282,275,206,219,216,195,173,25,188,47,79,135,129,75,154,184,192,205,18,124,227,101,151,209,254,133,122,65,37,46,43,291,162,99,127,120,97,202,19,276,2,115,285,249,246,167,183,137,32,223,263,143,157,110,91,126,139,109,105,170,142,149,259,148,138,71,237,10,287,48,54,72,86,9,61,286,224,207,165,21,233,251,80,24,31,121,58,45,38,69,55,248,245,92,279,281,1,163,250,235,50,243,28,168,130,14,191,100,229,57,13,197,41,257,256,131,16,113,4,178,94,272,134,239,176,116,78,194,238,299,128,152,177,96,85,82,210,265,166,87,108,17,204,11,240,60,174,103,283,132,159,73,274,34,225,234,117,228,39,215,88,186,193,8,161,104,293,277,30,288,253,270,212,211,261,107,218,145]","arrowleft","","true","1","6","65","300","[""0061_N0300_K0065_CLIQUE"",""0021_N0300_K0065_NOCLIQUE""]"
"","","","","","audio-keyboard-response","125","685599","0.0-85.0-0.0-1.0","","null","audio_feedback/right/coin01.mp3","null","","","","","1","6","65","300","[""0061_N0300_K0065_CLIQUE"",""0021_N0300_K0065_NOCLIQUE""]"
"","","","","","canvas-keyboard-response","126","686502","0.0-86.0-0.0-0.0","","859","","arrowleft","[152,96,63,215,141,240,290,184,0,55,296,221,226,33,202,207,197,25,91,154,22,28,60,268,251,196,104,230,3,73,11,16,278,187,109,208,156,241,155,279,199,142,34,258,90,259,21,219,284,4,123,246,249,274,178,252,61,179,162,131,220,264,174,205,203,253,206,79,64,40,100,145,188,37,85,112,124,236,267,250,299,160,271,12,1,128,84,148,248,134,95,122,232,43,254,144,86,157,195,18,255,69,224,181,164,237,225,176,291,114,117,262,77,135,35,200,227,125,42,62,175,209,133,48,13,5,111,275,247,24,116,163,47,38,191,53,88,273,288,17,89,72,293,198,159,8,182,94,242,286,119,298,231,98,222,27,192,201,295,107,266,260,204,216,93,276,106,132,19,263,217,30,244,7,245,285,102,92,83,161,165,44,138,126,228,180,172,20,282,281,52,223,292,58,105,103,127,32,153,243,140,287,183,289,9,189,143,270,149,70,234,110,137,50,147,238,211,171,170,54,45,214,166,2,233,120,51,265,81,139,26,294,229,99,146,41,213,39,186,74,212,150,118,108,121,130,97,235,193,269,87,129,49,14,194,210,283,66,256,71,6,169,277,80,56,68,65,261,218,36,76,190,10,31,158,115,177,167,57,113,168,75,136,297,78,29,173,46,185,59,82,67,15,280,101,239,151,23,272,257]","arrowleft","","true","1","7","65","300","[""0022_N0300_K0065_CLIQUE"",""0083_N0300_K0065_NOCLIQUE""]"
"","","","","","audio-keyboard-response","127","686918","0.0-86.0-0.0-1.0","","null","audio_feedback/right/coin01.mp3","null","","","","","1","7","65","300","[""0022_N0300_K0065_CLIQUE"",""0083_N0300_K0065_NOCLIQUE""]"
"","","","","","canvas-keyboard-response","128","687743","0.0-87.0-0.0-0.0","","789","","arrowright","[86,77,84,35,129,123,173,266,256,217,242,168,288,249,191,56,208,237,120,289,233,140,43,150,200,239,21,52,257,15,172,243,218,260,81,24,136,246,231,298,221,216,271,225,236,108,154,152,194,267,171,72,230,182,60,188,119,31,199,89,234,80,69,90,17,115,46,144,296,76,143,291,295,130,184,276,157,141,259,137,187,58,160,238,117,226,85,227,149,269,198,45,111,33,28,95,110,53,197,134,176,263,210,124,286,151,203,163,112,274,96,63,175,27,178,68,2,94,272,135,219,10,250,146,19,40,180,79,23,100,107,253,78,34,164,3,73,59,128,142,156,99,183,292,179,264,270,247,282,47,114,212,83,201,248,213,294,61,98,109,11,104,252,145,287,82,55,186,38,254,1,215,25,41,133,7,118,50,285,280,113,26,174,241,158,51,170,261,202,224,161,126,193,189,205,116,138,62,13,125,71,195,293,5,284,93,64,32,44,192,240,299,122,278,297,275,121,101,153,245,106,155,97,102,283,148,16,181,279,159,222,268,9,167,196,87,255,147,131,228,66,214,290,70,6,229,8,57,18,258,277,12,49,262,91,162,166,139,223,177,244,281,206,22,220,165,36,29,127,0,39,30,48,67,54,235,105,42,75,20,88,209,207,65,273,190,92,103,265,4,251,232,132,211,204,37,14,185,74,169]","arrowleft","","false","1","8","60","300","[""0026_N0300_K0060_CLIQUE"",""0073_N0300_K0060_NOCLIQUE""]"
"","","","","","audio-keyboard-response","129","688338","0.0-87.0-0.0-1.0","","null","audio_feedback/wrong/error01.mp3","null","","","","","1","8","60","300","[""0026_N0300_K0060_CLIQUE"",""0073_N0300_K0060_NOCLIQUE""]"
"","","","","","canvas-keyboard-response","130","689083","0.0-88.0-0.0-0.0","","709","","arrowright","[91,299,221,297,86,288,243,275,128,152,63,172,284,165,205,93,115,265,132,167,56,185,184,142,27,273,276,220,182,124,192,211,125,71,216,114,238,20,33,163,179,166,217,214,232,250,3,290,234,39,199,2,83,32,34,175,201,79,5,23,30,170,258,47,161,61,97,98,282,156,251,187,203,65,13,31,77,89,248,280,228,95,154,291,202,244,150,256,70,110,181,189,147,85,131,293,188,235,96,11,241,37,35,117,191,88,126,285,213,206,116,153,48,26,60,168,233,270,43,17,266,160,249,140,45,41,162,75,292,112,118,94,62,28,19,237,268,10,259,236,155,149,105,123,137,298,59,239,68,196,240,4,247,90,113,274,134,136,0,267,57,24,263,50,67,102,87,133,12,121,129,29,111,119,52,208,229,145,255,169,92,16,135,226,144,212,252,9,173,159,148,104,269,225,78,18,22,42,8,120,294,49,272,14,289,51,109,130,107,80,157,222,210,176,230,283,231,271,138,74,277,195,21,245,54,36,246,15,171,25,73,295,278,40,215,204,106,76,99,143,264,193,151,218,296,64,81,146,178,38,227,200,69,224,254,55,260,141,177,257,253,100,122,46,158,207,72,183,286,262,180,103,197,7,242,127,53,139,58,84,6,66,194,44,209,219,1,198,174,279,281,82,108,190,223,186,287,261,101,164]","arrowright","","true","1","9","60","300","[""0028_N0300_K0060_NOCLIQUE"",""0093_N0300_K0060_CLIQUE""]"
"","","","","","audio-keyboard-response","131","689498","0.0-88.0-0.0-1.0","","null","audio_feedback/right/coin01.mp3","null","","","","","1","9","60","300","[""0028_N0300_K0060_NOCLIQUE"",""0093_N0300_K0060_CLIQUE""]"
"","","","","","canvas-keyboard-response","132","691138","0.0-89.0-0.0-0.0","","1603","","arrowleft","[36,70,219,78,292,139,220,204,21,34,150,106,101,168,156,167,116,75,289,223,39,118,186,141,270,33,65,144,229,286,180,201,188,241,193,261,52,255,272,184,81,243,225,83,51,215,221,263,77,120,189,153,228,20,149,164,143,37,121,133,297,273,58,57,72,127,25,227,271,137,283,69,152,73,165,246,202,195,274,275,31,80,50,276,23,26,88,265,249,280,102,135,140,251,285,47,89,262,296,63,279,260,191,55,40,110,22,210,160,170,218,62,257,10,8,224,134,238,130,247,199,84,100,175,66,233,123,268,183,16,293,181,226,284,49,166,17,41,136,125,157,32,24,97,232,13,0,230,234,99,185,176,96,155,129,266,38,76,161,237,190,19,54,290,12,98,112,216,108,18,90,250,7,107,71,43,208,295,132,74,231,128,291,278,169,177,91,245,288,206,45,259,239,44,222,236,211,159,192,85,42,254,172,182,145,299,117,200,207,205,122,298,213,2,240,126,111,203,15,209,198,115,60,9,67,187,242,147,119,151,79,30,142,248,287,269,113,162,14,252,103,86,244,82,95,277,179,256,197,48,56,105,158,93,27,138,11,171,53,28,214,6,258,163,92,148,4,267,194,94,64,61,294,146,173,154,59,124,174,282,178,281,46,253,5,131,217,109,68,35,196,1,87,3,264,114,29,212,235,104]","arrowleft","","true","1","10","55","300","[""0089_N0300_K0055_CLIQUE"",""0043_N0300_K0055_NOCLIQUE""]"
"","","","","","audio-keyboard-response","133","691559","0.0-89.0-0.0-1.0","","null","audio_feedback/right/coin01.mp3","null","","","","","1","10","55","300","[""0089_N0300_K0055_CLIQUE"",""0043_N0300_K0055_NOCLIQUE""]"
"","","","","","canvas-keyboard-response","134","692569","0.0-90.0-0.0-0.0","","973","","arrowleft","[41,161,277,151,279,185,51,256,109,268,128,267,170,131,159,143,271,75,63,190,29,297,202,225,162,52,115,62,67,224,119,46,61,191,153,107,265,145,43,121,104,294,237,249,7,74,229,89,272,169,194,245,57,34,181,90,59,106,25,37,92,247,263,32,218,188,2,234,83,123,70,99,112,220,100,126,189,54,290,192,127,108,9,81,259,19,255,275,0,135,167,180,111,129,117,144,289,285,65,139,53,222,158,152,18,134,102,94,76,5,293,287,122,149,105,219,68,16,238,257,133,82,295,31,132,142,276,200,64,201,80,274,168,154,55,266,216,208,96,232,98,233,44,93,258,195,264,47,164,85,12,36,30,239,226,130,10,296,299,125,157,179,27,230,235,78,11,48,88,210,291,198,113,254,26,49,199,165,193,86,23,280,13,175,171,250,50,6,124,178,20,42,114,103,288,211,138,173,4,197,73,97,196,141,8,38,77,118,72,15,252,269,24,182,174,236,240,120,262,69,40,281,176,160,45,273,282,215,22,205,231,1,116,101,39,253,87,155,66,150,186,203,187,221,292,217,60,183,246,28,146,95,227,270,140,214,147,137,21,17,283,284,260,286,278,163,248,166,172,14,136,223,228,243,35,91,242,251,84,298,184,33,204,261,177,241,244,110,148,156,71,79,3,58,206,209,56,212,207,213]","arrowright","","false","1","11","55","300","[""0069_N0300_K0055_NOCLIQUE"",""0061_N0300_K0055_CLIQUE""]"
"","","","","","audio-keyboard-response","135","693158","0.0-90.0-0.0-1.0","","null","audio_feedback/wrong/error01.mp3","null","","","","","1","11","55","300","[""0069_N0300_K0055_NOCLIQUE"",""0061_N0300_K0055_CLIQUE""]"
"","","","","","canvas-keyboard-response","136","694381","0.0-91.0-0.0-0.0","","1186","","arrowright","[40,106,42,271,74,48,138,13,84,234,199,216,130,56,23,51,63,128,139,231,243,211,293,72,135,132,227,244,52,255,119,241,62,238,232,104,215,109,98,158,203,107,140,94,282,172,191,96,264,90,103,212,3,19,261,58,73,247,2,228,287,207,153,187,122,17,182,81,224,235,16,15,159,10,160,57,93,194,137,54,197,134,294,229,217,136,141,177,226,149,278,38,113,92,249,276,240,89,164,225,246,170,213,156,70,82,178,154,123,147,99,32,163,29,260,64,190,204,195,112,263,186,24,291,183,41,114,14,120,145,121,37,65,258,221,50,245,68,80,298,236,25,180,250,202,34,219,179,125,150,279,53,173,18,296,146,69,198,274,110,43,77,66,242,129,193,171,118,230,36,281,223,208,67,101,237,189,297,288,266,55,280,30,71,133,131,102,155,79,27,201,248,85,124,26,117,11,116,111,60,87,148,167,126,270,269,86,152,151,35,268,142,59,49,12,209,169,254,251,299,284,8,200,205,127,253,185,184,143,75,256,105,22,257,181,289,20,78,61,252,97,162,95,5,283,192,239,275,115,292,46,39,267,0,76,295,188,166,28,45,277,175,220,44,196,176,259,31,218,272,108,47,88,285,6,168,233,161,9,91,206,100,222,1,265,21,290,83,273,214,262,157,210,165,144,33,7,4,286,174]","arrowright","","true","1","12","50","300","[""0084_N0300_K0050_NOCLIQUE"",""0022_N0300_K0050_CLIQUE""]"
"","","","","","audio-keyboard-response","137","694799","0.0-91.0-0.0-1.0","","null","audio_feedback/right/coin01.mp3","null","","","","","1","12","50","300","[""0084_N0300_K0050_NOCLIQUE"",""0022_N0300_K0050_CLIQUE""]"
"","","","","","canvas-keyboard-response","138","696370","0.0-92.0-0.0-0.0","","1532","","arrowright","[226,177,169,0,2,204,223,296,146,105,45,141,19,287,171,64,142,208,132,21,162,273,244,275,215,79,123,242,225,239,274,214,203,200,100,197,152,94,137,15,284,235,180,282,18,5,240,25,272,63,27,110,120,58,279,59,179,41,247,289,194,156,47,97,113,165,37,72,172,138,44,292,231,147,176,170,65,95,34,164,149,153,157,276,43,160,38,228,192,33,78,136,173,9,12,199,189,238,135,166,168,257,22,245,82,8,85,185,67,237,1,40,129,56,29,205,66,20,182,68,69,32,57,229,102,255,295,52,252,207,127,188,183,298,291,286,71,202,280,55,114,216,134,131,150,3,270,62,264,73,213,211,26,227,236,253,234,232,4,297,11,117,36,181,75,140,178,35,50,130,254,133,219,258,106,299,265,167,89,7,93,49,283,271,285,248,186,46,101,92,74,124,76,96,98,77,104,209,139,249,81,163,17,112,221,103,145,278,184,230,111,107,175,241,154,109,293,90,161,144,60,115,53,84,217,269,224,210,39,243,10,48,28,108,116,256,61,212,260,126,196,277,80,16,193,261,122,262,91,155,54,125,14,267,290,281,118,13,246,288,294,119,218,250,191,23,6,128,268,151,222,42,206,30,158,266,174,198,51,259,83,201,187,190,143,70,148,233,88,263,31,24,87,99,121,220,251,86,195,159]","arrowright","","true","1","13","50","300","[""0034_N0300_K0050_NOCLIQUE"",""0070_N0300_K0050_CLIQUE""]"
"","","","","","audio-keyboard-response","139","696779","0.0-92.0-0.0-1.0","","null","audio_feedback/right/coin01.mp3","null","","","","","1","13","50","300","[""0034_N0300_K0050_NOCLIQUE"",""0070_N0300_K0050_CLIQUE""]"
"","","","","","canvas-keyboard-response","140","697835","0.0-93.0-0.0-0.0","","1017","","arrowright","[241,174,286,53,203,288,239,13,12,231,93,94,190,273,34,15,64,209,38,121,9,124,225,7,10,196,167,195,187,160,139,245,277,229,120,101,164,92,33,274,197,264,111,78,105,186,161,83,242,184,23,28,208,263,182,103,168,155,129,259,230,119,163,287,156,70,30,85,221,89,169,147,262,43,251,210,79,146,268,47,281,133,204,217,237,238,1,158,106,293,125,98,157,109,185,99,256,180,248,22,260,194,26,82,261,154,31,42,29,115,153,48,11,86,127,110,279,292,165,247,284,145,126,236,191,143,91,267,71,17,21,20,8,35,280,5,253,123,114,2,216,198,45,290,265,128,226,118,81,14,144,222,16,215,135,278,188,61,250,205,52,201,65,179,178,246,240,4,141,276,224,55,183,272,36,294,162,88,170,269,3,159,295,80,116,77,130,148,18,202,117,235,37,19,134,75,44,213,112,252,275,255,67,298,228,140,151,291,249,100,177,211,244,113,74,41,227,283,189,243,152,172,212,296,299,257,32,258,137,39,24,104,234,76,192,49,176,95,223,181,72,63,108,132,232,166,90,59,60,199,97,266,219,131,25,214,297,69,50,56,207,0,40,271,173,138,282,220,206,107,150,87,51,6,58,62,136,285,142,233,171,218,68,57,46,200,54,27,96,73,66,175,254,270,289,193,122,102,84,149]","arrowright","","true","1","14","45","300","[""0068_N0300_K0045_NOCLIQUE"",""0062_N0300_K0045_CLIQUE""]"
"","","","","","audio-keyboard-response","141","698239","0.0-93.0-0.0-1.0","","null","audio_feedback/right/coin01.mp3","null","","","","","1","14","45","300","[""0068_N0300_K0045_NOCLIQUE"",""0062_N0300_K0045_CLIQUE""]"
"","","","","","canvas-keyboard-response","142","699536","0.0-94.0-0.0-0.0","","1258","","arrowright","[164,184,91,185,49,83,214,82,174,245,171,287,205,1,268,27,210,211,144,107,114,183,143,73,5,132,8,33,97,227,80,93,78,275,127,57,168,74,233,288,291,72,177,28,276,99,102,61,239,43,18,213,189,166,50,284,125,197,38,175,237,222,138,264,84,298,65,41,203,296,299,108,48,223,79,155,133,149,282,29,188,111,194,136,294,289,151,139,89,85,247,77,122,10,195,25,153,249,2,152,118,281,242,280,9,172,238,46,59,187,243,17,19,135,6,186,105,156,236,67,94,234,116,255,198,52,159,206,251,100,58,277,173,146,169,160,40,15,200,220,225,285,269,128,235,240,256,47,148,278,140,292,207,64,24,11,215,42,181,262,192,191,244,126,124,81,70,216,158,142,39,199,112,263,266,106,228,32,270,163,0,283,95,71,16,117,221,161,76,54,176,193,56,55,35,30,196,88,20,22,36,202,104,286,53,217,115,69,190,37,45,147,13,252,230,182,90,120,75,110,267,260,272,145,274,232,246,218,179,12,86,229,212,137,4,123,60,3,261,109,23,271,293,265,257,297,96,295,103,162,231,248,26,34,241,219,21,113,209,259,154,63,87,226,254,250,290,129,66,167,180,92,157,62,130,253,119,101,208,68,98,178,141,134,204,279,258,224,165,14,31,273,44,121,201,131,7,170,51,150]","arrowleft","","false","1","15","45","300","[""0076_N0300_K0045_CLIQUE"",""0071_N0300_K0045_NOCLIQUE""]"
"","","","","","audio-keyboard-response","143","700138","0.0-94.0-0.0-1.0","","null","audio_feedback/wrong/error01.mp3","null","","","","","1","15","45","300","[""0076_N0300_K0045_CLIQUE"",""0071_N0300_K0045_NOCLIQUE""]"
"","","","","","canvas-keyboard-response","144","701300","0.0-95.0-0.0-0.0","","1126","","arrowright","[85,143,131,247,263,231,159,260,27,69,178,39,279,217,173,259,218,13,31,172,53,276,145,7,246,10,188,48,167,196,17,74,244,226,72,286,105,206,110,229,262,50,170,267,243,9,249,91,180,161,272,255,242,23,195,177,289,108,37,189,215,233,1,299,251,75,47,26,84,214,12,208,190,80,98,86,176,119,236,96,207,112,182,46,157,250,62,284,237,121,79,292,38,147,120,93,33,117,298,193,155,136,257,100,232,211,171,273,56,269,87,114,210,128,118,223,165,111,19,32,219,275,28,297,103,285,150,11,5,230,163,8,277,282,81,238,127,162,261,54,216,295,51,107,83,16,164,154,212,221,113,44,132,283,92,18,68,4,15,158,144,63,104,109,287,148,174,124,30,149,152,252,71,225,203,137,199,266,66,14,115,78,228,73,281,151,125,123,241,90,153,204,235,77,65,280,25,268,21,160,265,64,213,102,133,2,3,291,130,185,191,200,294,61,187,43,58,122,258,95,293,183,240,198,146,60,41,290,34,256,227,134,99,135,67,116,274,192,205,40,106,142,76,20,52,0,138,288,70,156,59,248,197,140,57,169,224,201,245,278,194,254,45,186,36,141,184,271,89,270,101,55,253,209,166,24,94,139,88,35,296,49,175,202,129,220,42,234,97,179,22,239,126,222,29,82,181,6,168,264]","arrowright","","true","1","16","40","300","[""0092_N0300_K0040_NOCLIQUE"",""0050_N0300_K0040_CLIQUE""]"
"","","","","","audio-keyboard-response","145","701718","0.0-95.0-0.0-1.0","","null","audio_feedback/right/coin01.mp3","null","","","","","1","16","40","300","[""0092_N0300_K0040_NOCLIQUE"",""0050_N0300_K0040_CLIQUE""]"
"","","","","","canvas-keyboard-response","146","703687","0.0-96.0-0.0-0.0","","1932",""," ","[218,79,31,272,1,281,167,129,234,143,263,212,211,91,23,59,221,169,238,71,135,202,134,163,126,42,99,200,75,49,81,17,105,289,89,226,250,292,2,77,257,85,268,232,8,207,41,34,111,140,215,13,299,32,194,82,117,14,148,118,64,179,261,177,86,102,294,185,5,113,172,127,10,90,112,95,100,158,120,264,297,239,16,160,133,121,243,54,56,139,298,131,285,107,69,18,274,222,278,186,192,96,286,22,51,110,259,262,122,270,103,233,188,266,170,67,201,173,256,214,246,52,271,224,88,153,290,7,141,198,104,279,33,24,68,247,9,165,228,252,98,94,253,190,109,254,3,248,80,123,76,37,12,183,197,92,72,181,146,227,53,176,187,101,295,25,84,11,44,128,283,208,119,150,58,195,284,20,29,4,206,114,39,213,27,149,83,124,182,55,168,151,288,162,277,245,199,276,38,136,46,205,175,189,161,155,43,258,251,74,209,30,191,166,144,60,164,220,296,15,171,26,6,203,293,66,36,47,35,156,108,145,282,210,240,152,65,147,244,219,21,73,273,280,223,265,159,106,291,125,241,180,196,93,260,235,0,242,45,174,216,249,267,87,225,137,184,236,63,204,275,97,217,62,230,142,287,193,229,138,40,61,255,130,78,70,157,57,28,19,132,231,48,154,115,116,50,269,237,178]","arrowright","","","1","17","40","300","[""0064_N0300_K0040_NOCLIQUE"",""0049_N0300_K0040_CLIQUE""]"
"","","","","","audio-keyboard-response","147","704258","0.0-96.0-0.0-1.0","","null","audio_feedback/shuffles/shuffle01.mp3","null","","","","","1","17","40","300","[""0064_N0300_K0040_NOCLIQUE"",""0049_N0300_K0040_CLIQUE""]"
"","","","","","canvas-keyboard-response","148","706235","0.0-96.1-0.1-0.1","","1939",""," ","[294,239,284,246,243,168,209,30,114,4,276,281,160,44,17,74,197,227,123,247,43,41,285,137,236,86,180,126,54,151,167,64,139,182,108,115,88,248,226,263,7,264,172,60,230,279,155,107,71,250,231,204,224,5,179,272,266,105,67,103,193,72,195,128,242,94,255,82,244,15,85,76,257,181,206,69,47,175,200,171,118,278,218,225,199,62,111,191,260,162,202,23,258,61,296,277,53,291,38,27,267,65,124,14,292,26,19,119,143,68,198,40,256,251,187,241,84,29,164,96,228,219,91,280,98,211,101,194,216,298,274,66,144,125,127,8,176,87,57,77,95,295,153,70,282,235,59,51,188,147,156,13,80,31,178,223,16,140,92,190,299,110,9,245,201,21,42,135,109,122,192,286,289,24,33,212,2,157,273,131,133,254,63,290,146,233,18,238,22,232,45,252,32,73,185,106,113,100,214,12,35,170,269,288,262,158,293,163,177,3,270,297,174,49,237,10,166,104,89,138,1,56,208,205,142,78,120,79,152,169,183,271,102,121,196,129,83,39,283,268,173,25,222,215,159,99,141,261,265,0,46,58,117,136,184,145,6,37,52,253,149,234,150,134,240,130,20,207,116,55,75,203,210,221,93,259,148,186,287,36,217,90,34,249,275,132,154,220,81,229,48,28,165,50,97,189,213,112,161,11]","arrowright","","","1","17","40","300","[""0064_N0300_K0040_NOCLIQUE"",""0049_N0300_K0040_CLIQUE""]"
"","","","","","audio-keyboard-response","149","706799","0.0-96.1-0.1-1.1","","null","audio_feedback/shuffles/shuffle01.mp3","null","","","","","1","17","40","300","[""0064_N0300_K0040_NOCLIQUE"",""0049_N0300_K0040_CLIQUE""]"
"","","","","","canvas-keyboard-response","150","708340","0.0-96.2-0.2-0.2","","1505","","arrowleft","[56,73,165,45,102,17,226,177,23,293,145,62,211,234,37,66,284,18,76,248,273,81,33,112,60,148,200,32,140,143,130,90,221,244,194,91,276,277,124,189,259,199,172,8,34,212,47,116,6,85,292,228,88,272,297,254,206,158,105,1,150,185,264,250,160,198,227,86,197,93,267,251,299,13,43,296,11,117,96,55,159,20,136,19,142,0,270,131,95,280,53,240,171,75,202,249,262,54,80,256,188,59,207,232,176,104,27,121,2,271,278,147,25,294,26,151,288,187,61,182,97,12,255,186,123,190,115,67,166,181,192,69,36,184,161,46,183,237,233,266,72,196,231,65,41,57,94,214,50,139,70,146,135,157,127,217,71,289,21,106,290,58,265,222,44,28,285,163,239,155,298,118,39,218,14,261,180,107,101,156,83,138,204,78,108,173,263,210,208,68,113,269,260,219,48,30,128,170,42,167,215,92,235,98,195,281,10,246,201,120,247,213,279,132,169,126,275,193,243,282,31,174,209,99,258,153,225,16,224,144,230,252,5,179,141,291,191,24,64,295,164,100,40,274,253,15,89,110,52,220,35,111,229,168,7,38,119,77,87,9,133,22,286,241,82,283,84,205,51,4,29,152,216,74,287,109,175,134,203,238,149,154,125,129,137,162,257,103,122,236,245,63,223,114,242,49,268,178,3,79]","arrowright","","false","1","17","40","300","[""0064_N0300_K0040_NOCLIQUE"",""0049_N0300_K0040_CLIQUE""]"
"","","","","","audio-keyboard-response","151","708940","0.0-96.2-0.2-1.2","","null","audio_feedback/wrong/error01.mp3","null","","","","","1","17","40","300","[""0064_N0300_K0040_NOCLIQUE"",""0049_N0300_K0040_CLIQUE""]"
"","","","","","canvas-keyboard-response","152","710612","0.0-97.0-0.0-0.0","","1631","","arrowright","[105,64,189,265,144,130,19,113,109,175,180,92,95,181,246,4,119,212,185,71,72,116,191,7,108,219,259,216,287,257,76,107,256,30,282,66,34,291,162,80,48,178,271,231,153,29,53,84,32,264,139,3,12,167,240,254,154,145,294,50,172,117,226,127,51,297,6,164,126,106,241,150,138,235,244,97,267,111,214,196,275,270,5,146,148,258,193,40,2,268,220,266,218,45,252,86,286,245,0,281,155,67,118,205,24,253,142,278,96,31,183,163,10,26,17,223,215,68,238,42,114,208,18,125,25,170,279,165,56,221,293,187,89,198,156,8,140,158,37,199,277,35,186,131,103,237,192,133,85,147,284,99,194,206,77,79,151,152,128,283,52,58,28,210,65,91,55,239,236,242,75,182,176,195,13,290,204,81,229,143,122,173,136,251,110,101,63,249,263,169,274,102,1,129,137,41,61,228,141,250,299,11,120,201,36,190,261,225,188,123,197,14,62,69,272,269,298,27,280,38,93,88,276,174,115,248,207,39,217,90,255,202,132,227,166,33,157,168,260,292,98,20,285,211,135,159,232,222,121,209,184,273,82,87,234,295,94,47,22,288,160,233,54,23,247,43,78,262,104,230,203,179,149,44,21,100,224,200,15,49,213,46,59,177,16,9,73,171,57,74,112,60,243,296,289,70,161,83,134,124]","arrowleft","","false","1","18","35","300","[""0046_N0300_K0035_CLIQUE"",""0099_N0300_K0035_NOCLIQUE""]"
"","","","","","audio-keyboard-response","153","711199","0.0-97.0-0.0-1.0","","null","audio_feedback/wrong/error01.mp3","null","","","","","1","18","35","300","[""0046_N0300_K0035_CLIQUE"",""0099_N0300_K0035_NOCLIQUE""]"
"","","","","","canvas-keyboard-response","154","712046","0.0-98.0-0.0-0.0","","805","","arrowright","[50,131,49,127,222,176,276,145,43,36,20,63,71,237,190,21,171,52,44,56,85,244,259,294,135,225,163,11,205,80,217,233,286,121,272,137,241,133,191,96,172,112,42,6,81,69,101,26,260,232,111,170,203,179,283,165,152,216,67,59,266,64,82,122,3,292,277,224,97,279,7,61,206,178,125,32,193,29,103,192,153,290,72,147,218,273,66,173,243,102,212,74,126,295,287,128,168,33,0,245,195,60,115,123,118,107,88,9,94,146,1,189,285,136,35,275,197,129,231,109,99,280,24,274,139,142,46,19,161,78,254,53,45,141,79,124,257,144,296,265,51,151,22,31,57,15,132,104,227,184,255,55,235,210,239,288,143,289,208,223,226,269,258,77,180,264,155,47,221,247,159,202,174,200,119,4,251,134,37,253,267,70,291,130,249,240,138,40,30,148,250,261,281,183,48,14,201,156,187,185,213,248,117,238,116,149,278,100,284,207,17,181,150,268,158,262,164,34,177,86,194,73,105,108,256,299,204,68,8,293,18,188,229,83,91,252,90,113,92,214,65,209,25,10,84,62,196,28,75,199,89,219,157,98,230,23,271,154,27,236,162,198,246,166,228,114,263,169,39,270,87,220,298,182,160,12,5,13,167,215,58,41,106,242,175,110,211,186,38,140,2,120,282,76,93,54,297,16,95,234]","arrowright","","true","1","19","35","300","[""0095_N0300_K0035_NOCLIQUE"",""0002_N0300_K0035_CLIQUE""]"
"","","","","","audio-keyboard-response","155","712460","0.0-98.0-0.0-1.0","","null","audio_feedback/right/coin01.mp3","null","","","","","1","19","35","300","[""0095_N0300_K0035_NOCLIQUE"",""0002_N0300_K0035_CLIQUE""]"
"","","","","","canvas-keyboard-response","156","713467","0.0-99.0-0.0-0.0","","968","","arrowright","[70,191,216,77,7,190,122,85,76,183,285,275,17,271,136,184,117,242,20,66,97,112,213,39,167,21,90,14,296,72,145,279,137,215,272,158,18,221,298,64,28,103,43,294,260,228,236,48,170,165,33,194,89,282,105,106,91,290,98,155,235,108,96,150,234,232,182,61,13,186,151,239,134,157,222,147,258,139,266,263,22,149,241,185,289,195,276,226,281,259,99,60,67,25,53,100,35,255,168,261,63,193,34,86,154,56,243,23,9,126,212,270,265,71,210,247,250,207,44,50,268,36,286,262,246,59,284,148,152,135,5,12,83,144,299,3,175,274,24,160,16,138,27,244,162,87,140,143,211,47,219,80,205,69,133,254,46,31,166,181,52,173,68,164,163,187,204,2,95,29,78,141,264,109,295,197,179,40,119,251,42,32,8,94,209,220,231,280,81,128,225,124,293,123,156,180,287,132,120,277,177,224,114,169,198,189,37,45,208,146,178,217,73,229,214,1,291,58,62,202,240,196,88,174,233,15,102,172,118,115,38,65,161,57,82,26,203,253,256,159,245,237,199,200,142,230,269,6,252,51,218,248,188,201,297,238,93,267,130,176,10,206,113,79,55,121,129,125,249,84,278,4,292,171,19,288,273,111,131,127,0,223,257,283,54,110,11,74,30,92,192,107,227,104,49,116,75,101,41,153]","arrowright","","true","1","20","30","300","[""0088_N0300_K0030_NOCLIQUE"",""0072_N0300_K0030_CLIQUE""]"
"","","","","","audio-keyboard-response","157","713879","0.0-99.0-0.0-1.0","","null","audio_feedback/right/coin01.mp3","null","","","","","1","20","30","300","[""0088_N0300_K0030_NOCLIQUE"",""0072_N0300_K0030_CLIQUE""]"
"","","","","","canvas-keyboard-response","158","714913","0.0-100.0-0.0-0.0","","999","","arrowright","[35,77,126,294,55,67,258,155,19,295,222,197,110,162,76,48,143,99,58,271,176,169,6,189,193,28,184,241,210,219,269,166,1,135,121,202,285,173,286,254,69,71,141,216,157,204,235,45,282,7,63,170,201,159,38,5,133,34,243,59,111,145,144,130,212,3,220,68,205,251,131,194,129,91,242,244,120,296,83,164,152,10,284,54,138,140,113,127,36,175,9,297,114,257,214,207,180,262,119,209,112,46,87,105,283,261,146,217,62,240,223,23,42,33,47,259,44,158,78,245,185,260,232,224,199,195,236,66,65,81,265,291,0,181,52,88,171,84,190,27,233,188,13,227,72,8,39,174,272,221,187,30,249,191,292,229,101,51,183,266,167,73,95,20,161,15,163,268,255,177,102,151,122,153,74,31,208,25,100,287,225,116,238,79,132,29,123,273,80,215,61,211,279,178,154,165,97,263,226,90,250,49,94,246,149,290,50,288,21,128,270,70,85,276,24,264,179,136,293,107,117,248,108,267,253,160,103,11,228,299,198,256,247,277,218,278,118,196,274,115,200,2,75,280,134,289,124,57,18,147,86,82,41,213,56,22,206,182,53,64,275,298,17,109,192,172,148,106,37,150,60,125,237,43,142,156,186,252,92,40,89,16,230,139,32,96,98,12,239,137,281,104,4,14,93,168,203,234,231,26]","arrowleft","","false","1","21","30","300","[""0013_N0300_K0030_CLIQUE"",""0012_N0300_K0030_NOCLIQUE""]"
"","","","","","audio-keyboard-response","159","715499","0.0-100.0-0.0-1.0","","null","audio_feedback/wrong/error01.mp3","null","","","","","1","21","30","300","[""0013_N0300_K0030_CLIQUE"",""0012_N0300_K0030_NOCLIQUE""]"
"","","","","","canvas-keyboard-response","160","717063","0.0-101.0-0.0-0.0","","1522",""," ","[14,31,201,206,231,74,54,182,217,176,263,298,295,152,132,148,9,8,90,12,106,179,156,66,125,123,159,16,260,150,142,113,181,280,0,144,59,145,17,222,232,178,259,273,172,38,253,276,202,151,162,92,45,249,50,297,247,122,225,221,82,284,281,80,44,229,116,89,189,174,24,135,42,194,98,96,167,138,205,163,211,165,241,137,111,204,226,26,184,265,60,239,39,70,243,246,216,47,224,25,268,101,65,11,234,61,1,49,233,114,78,3,177,67,108,88,57,244,77,40,81,32,212,126,87,209,55,220,293,190,154,41,219,109,95,214,84,118,64,245,107,86,22,149,240,261,19,128,15,13,35,215,237,130,203,23,294,117,75,10,257,147,275,279,207,112,53,7,285,227,218,124,34,197,236,238,105,133,134,171,51,164,168,103,121,102,158,76,43,256,110,29,278,292,254,104,62,274,170,187,173,208,289,131,85,83,242,183,270,27,160,283,100,188,20,79,36,248,250,161,198,94,5,37,73,93,97,21,195,58,199,48,269,272,166,230,99,291,153,72,185,2,28,277,175,18,115,143,264,180,210,141,267,193,191,157,169,290,282,120,186,30,235,63,258,271,200,33,213,139,146,296,4,69,68,52,255,136,56,288,286,140,266,192,228,91,6,127,299,119,129,196,71,262,287,252,46,251,155,223]","arrowright","","","1","22","25","300","[""0069_N0300_K0025_NOCLIQUE"",""0068_N0300_K0025_CLIQUE""]"
"","","","","","audio-keyboard-response","161","717639","0.0-101.0-0.0-1.0","","null","audio_feedback/shuffles/shuffle01.mp3","null","","","","","1","22","25","300","[""0069_N0300_K0025_NOCLIQUE"",""0068_N0300_K0025_CLIQUE""]"
"","","","","","canvas-keyboard-response","162","718447","0.0-101.1-0.1-0.1","","773","","arrowleft","[42,275,180,249,224,211,133,253,142,26,43,2,227,174,62,144,155,145,45,101,202,261,225,276,22,242,137,289,82,68,248,285,128,0,34,290,293,46,14,201,129,103,268,109,123,47,6,219,279,75,185,17,170,28,117,141,278,67,271,217,31,194,90,163,121,283,70,41,237,158,36,160,113,166,86,183,59,159,23,111,61,27,238,58,186,294,20,57,200,246,4,254,12,39,73,115,37,296,232,206,51,21,287,171,56,212,124,259,19,97,298,10,291,138,252,234,258,104,15,270,18,297,210,274,50,78,132,165,260,147,105,30,243,198,146,247,282,13,226,292,228,193,5,69,179,240,266,196,299,8,199,110,136,134,99,40,192,245,244,241,205,143,91,80,118,81,197,96,162,3,214,265,152,207,175,89,32,24,229,93,213,208,130,209,295,139,188,215,84,203,164,92,71,119,263,54,11,195,230,106,107,74,281,269,251,60,120,169,125,264,250,156,29,48,157,176,177,126,83,7,221,65,149,267,135,222,153,9,140,288,284,122,102,85,88,49,187,52,273,77,218,64,231,190,178,184,44,79,220,53,94,223,127,204,182,167,100,148,114,76,98,236,280,154,35,191,233,55,87,66,161,33,181,63,286,257,25,172,1,16,277,173,262,72,151,235,216,108,150,116,272,131,189,256,38,255,168,112,239,95]","arrowright","","false","1","22","25","300","[""0069_N0300_K0025_NOCLIQUE"",""0068_N0300_K0025_CLIQUE""]"
