"trial_type","trial_index","time_elapsed","internal_node_id","subject_id","study_id","session_id","width","height","webaudio","browser","browser_version","mobile","os","fullscreen","vsync_rate","webcam","microphone","value","screenWidth","screenHeight","stimuliVerticalProportion","success","timeout","failed_images","failed_audio","failed_video","view_history","rt","stimulus","response","nodes_order","correct_response","correct","block_index","presentation_index","clique_size","graph_size","graphs_names"
"pavlovia","0","528","0.0-0.0","6464d1a0e2462ab7b78661e7","67ed0ec48e071cae26115168","04r1udhn9j0d","","","","","","","","","","","","","","","","","","","","","","","","","","","","","","","",""
"browser-check","1","1520","0.0-1.0","6464d1a0e2462ab7b78661e7","67ed0ec48e071cae26115168","04r1udhn9j0d","1536","695","true","chrome","134.0.0","false","Windows 10","true","61.11","true","true","","","","","","","","","","","","","","","","","","","","",""
"call-function","2","1582","0.0-2.0","6464d1a0e2462ab7b78661e7","67ed0ec48e071cae26115168","04r1udhn9j0d","","","","","","","","","","","","","1920","1080","0.93","","","","","","","","","","","","","","","","",""
"preload","3","1678","0.0-3.0","6464d1a0e2462ab7b78661e7","67ed0ec48e071cae26115168","04r1udhn9j0d","","","","","","","","","","","","","","","","true","false","[]","[]","[]","","","","","","","","","","","",""
"instructions","4","67680","0.0-4.0","6464d1a0e2462ab7b78661e7","67ed0ec48e071cae26115168","04r1udhn9j0d","","","","","","","","","","","","","","","","","","","","","[{""page_index"":0,""viewing_time"":65826},{""page_index"":1,""viewing_time"":173}]","65999","","","","","","","","","",""
"html-keyboard-response","5","75493","0.0-5.0-0.0","6464d1a0e2462ab7b78661e7","67ed0ec48e071cae26115168","04r1udhn9j0d","","","","","","","","","","","","","","","","","","","","","","7810","By accepting to participate in this study, you confirm:
                <p style='text-align:left'>
                    - That I have carefully read the explanations regarding this study and the entire experimental procedure;<br>
                    - That I have been informed about the aims and objectives of this research;<br>
                    - That I am aware of the inconveniences, if any, caused by the experiment;<br>
                    - That I have received satisfactory assurances regarding the confidentiality of the information obtained from the examination of my own person; <br>
                    - That I am aware that I can withdraw at any stage of the study.
                <p>
                <span style=""color: #808080"">
                    Press [Y] to <strong>accept</strong>.
                </span> <br>
                <span style=""color: #808080"">
                    Press [N] to <strong>refuse</strong>.
                </span>","n","","","","","","","",""
"html-keyboard-response","6","95800","0.0-5.0-1.0-0.0","6464d1a0e2462ab7b78661e7","67ed0ec48e071cae26115168","04r1udhn9j0d","","","","","","","","","","","","","","","","","","","","","","20306","Do you confirm you refuse to go on?
            <p> 
                By pressing [Y], you will end the experiment <strong>without reward</strong> and will be redirected to Prolific.<br>
                By pressing [N] you will be redirected to the <strong>informed consent</strong> to read again the informations and accept the conditions.
            <p>
                <span style=""color: #808080"">Press [Y] to <strong>end the experiment</strong>.</span> <br>
                <span style=""color: #808080"">Press [N] to <strong>go back to the informed consent page</strong>.</span>","n","","","","","","","",""
"html-keyboard-response","7","97724","0.0-5.1-0.1","6464d1a0e2462ab7b78661e7","67ed0ec48e071cae26115168","04r1udhn9j0d","","","","","","","","","","","","","","","","","","","","","","1922","By accepting to participate in this study, you confirm:
                <p style='text-align:left'>
                    - That I have carefully read the explanations regarding this study and the entire experimental procedure;<br>
                    - That I have been informed about the aims and objectives of this research;<br>
                    - That I am aware of the inconveniences, if any, caused by the experiment;<br>
                    - That I have received satisfactory assurances regarding the confidentiality of the information obtained from the examination of my own person; <br>
                    - That I am aware that I can withdraw at any stage of the study.
                <p>
                <span style=""color: #808080"">
                    Press [Y] to <strong>accept</strong>.
                </span> <br>
                <span style=""color: #808080"">
                    Press [N] to <strong>refuse</strong>.
                </span>","y","","","","","","","",""
"survey-html-form","8","103833","0.0-6.0","6464d1a0e2462ab7b78661e7","67ed0ec48e071cae26115168","04r1udhn9j0d","","","","","","","","","","","","","","","","","","","","","","6102","","{""gender"":""male"",""age"":""34""}","","","","","","","",""
"preload","9","103894","0.0-7.0","6464d1a0e2462ab7b78661e7","67ed0ec48e071cae26115168","04r1udhn9j0d","","","","","","","","","","","","","","","","true","false","[]","[]","[]","","","","","","","","","","","",""
"instructions","10","113360","0.0-8.0","6464d1a0e2462ab7b78661e7","67ed0ec48e071cae26115168","04r1udhn9j0d","","","","","","","","","","","","","","","","","","","","","[{""page_index"":0,""viewing_time"":1364},{""page_index"":1,""viewing_time"":164},{""page_index"":2,""viewing_time"":164},{""page_index"":3,""viewing_time"":281},{""page_index"":4,""viewing_time"":142},{""page_index"":5,""viewing_time"":150},{""page_index"":6,""viewing_time"":144},{""page_index"":7,""viewing_time"":149},{""page_index"":8,""viewing_time"":154},{""page_index"":9,""viewing_time"":134},{""page_index"":10,""viewing_time"":145},{""page_index"":11,""viewing_time"":173},{""page_index"":12,""viewing_time"":152},{""page_index"":13,""viewing_time"":140},{""page_index"":14,""viewing_time"":151},{""page_index"":15,""viewing_time"":178},{""page_index"":16,""viewing_time"":131},{""page_index"":17,""viewing_time"":200},{""page_index"":18,""viewing_time"":141},{""page_index"":19,""viewing_time"":129},{""page_index"":20,""viewing_time"":166},{""page_index"":21,""viewing_time"":150},{""page_index"":22,""viewing_time"":149},{""page_index"":23,""viewing_time"":132},{""page_index"":24,""viewing_time"":110},{""page_index"":25,""viewing_time"":143},{""page_index"":26,""viewing_time"":133},{""page_index"":27,""viewing_time"":121},{""page_index"":28,""viewing_time"":202},{""page_index"":29,""viewing_time"":125},{""page_index"":30,""viewing_time"":299},{""page_index"":31,""viewing_time"":157},{""page_index"":32,""viewing_time"":165},{""page_index"":33,""viewing_time"":160},{""page_index"":34,""viewing_time"":161},{""page_index"":35,""viewing_time"":141},{""page_index"":36,""viewing_time"":146},{""page_index"":37,""viewing_time"":155},{""page_index"":38,""viewing_time"":150},{""page_index"":39,""viewing_time"":157},{""page_index"":40,""viewing_time"":159},{""page_index"":41,""viewing_time"":125},{""page_index"":42,""viewing_time"":164},{""page_index"":43,""viewing_time"":192},{""page_index"":44,""viewing_time"":177},{""page_index"":45,""viewing_time"":181},{""page_index"":46,""viewing_time"":166},{""page_index"":47,""viewing_time"":175},{""page_index"":48,""viewing_time"":148},{""page_index"":49,""viewing_time"":165},{""page_index"":50,""viewing_time"":117},{""page_index"":51,""viewing_time"":191}]","9466","","","","","","","","","",""
"instructions","11","114528","0.0-9.0","6464d1a0e2462ab7b78661e7","67ed0ec48e071cae26115168","04r1udhn9j0d","","","","","","","","","","","","","","","","","","","","","[{""page_index"":0,""viewing_time"":1167}]","1167","","","","","","","","","",""
"preload","12","114573","0.0-10.0","6464d1a0e2462ab7b78661e7","67ed0ec48e071cae26115168","04r1udhn9j0d","","","","","","","","","","","","","","","","true","false","[]","[]","[]","","","","","","","","","","","",""
"image-keyboard-response","13","114919","0.0-11.0","6464d1a0e2462ab7b78661e7","67ed0ec48e071cae26115168","04r1udhn9j0d","","","","","","","","","","","","","","","","","","","","","","344","tutorial/p_reduce/task_familiarization_images/part 1/01_N160_K90_cliqueRight_question1.PNG"," ","","","","","","","",""
"image-keyboard-response","14","115146","0.0-12.0","6464d1a0e2462ab7b78661e7","67ed0ec48e071cae26115168","04r1udhn9j0d","","","","","","","","","","","","","","","","","","","","","","225","tutorial/p_reduce/task_familiarization_images/part 1/02_N160_K90_cliqueRight_question2.PNG"," ","","","","","","","",""
"image-keyboard-response","15","117028","0.0-13.0","6464d1a0e2462ab7b78661e7","67ed0ec48e071cae26115168","04r1udhn9j0d","","","","","","","","","","","","","","","","","","","","","","1880","tutorial/p_reduce/task_familiarization_images/part 1/03_N160_K90_cliqueRight_question3.PNG","arrowright","","","","","","","",""
"image-keyboard-response","16","117241","0.0-14.0","6464d1a0e2462ab7b78661e7","67ed0ec48e071cae26115168","04r1udhn9j0d","","","","","","","","","","","","","","","","","","","","","","212","tutorial/p_reduce/task_familiarization_images/part 1/04_N160_K90_cliqueRight_solution.PNG"," ","","","","","","","",""
"image-keyboard-response","17","117471","0.0-15.0","6464d1a0e2462ab7b78661e7","67ed0ec48e071cae26115168","04r1udhn9j0d","","","","","","","","","","","","","","","","","","","","","","228","tutorial/p_reduce/task_familiarization_images/part 1/05_N160_K65_cliqueRight_question1.PNG"," ","","","","","","","",""
"image-keyboard-response","18","117668","0.0-16.0","6464d1a0e2462ab7b78661e7","67ed0ec48e071cae26115168","04r1udhn9j0d","","","","","","","","","","","","","","","","","","","","","","194","tutorial/p_reduce/task_familiarization_images/part 1/06_N160_K65_cliqueRight_question2.PNG"," ","","","","","","","",""
"image-keyboard-response","19","117947","0.0-17.0","6464d1a0e2462ab7b78661e7","67ed0ec48e071cae26115168","04r1udhn9j0d","","","","","","","","","","","","","","","","","","","","","","278","tutorial/p_reduce/task_familiarization_images/part 1/07_N160_K65_cliqueRight_question3.PNG","arrowleft","","","","","","","",""
"image-keyboard-response","20","118118","0.0-18.0","6464d1a0e2462ab7b78661e7","67ed0ec48e071cae26115168","04r1udhn9j0d","","","","","","","","","","","","","","","","","","","","","","170","tutorial/p_reduce/task_familiarization_images/part 1/08_N160_K65_cliqueRight_solution.PNG"," ","","","","","","","",""
"image-keyboard-response","21","118376","0.0-19.0","6464d1a0e2462ab7b78661e7","67ed0ec48e071cae26115168","04r1udhn9j0d","","","","","","","","","","","","","","","","","","","","","","257","tutorial/p_reduce/task_familiarization_images/part 1/09_N160_K50_cliqueLeft_question1.PNG"," ","","","","","","","",""
"image-keyboard-response","22","118591","0.0-20.0","6464d1a0e2462ab7b78661e7","67ed0ec48e071cae26115168","04r1udhn9j0d","","","","","","","","","","","","","","","","","","","","","","214","tutorial/p_reduce/task_familiarization_images/part 1/10_N160_K50_cliqueLeft_question2.PNG"," ","","","","","","","",""
"image-keyboard-response","23","118700","0.0-21.0","6464d1a0e2462ab7b78661e7","67ed0ec48e071cae26115168","04r1udhn9j0d","","","","","","","","","","","","","","","","","","","","","","108","tutorial/p_reduce/task_familiarization_images/part 1/11_N160_K50_cliqueLeft_question3.PNG","arrowleft","","","","","","","",""
"image-keyboard-response","24","118831","0.0-22.0","6464d1a0e2462ab7b78661e7","67ed0ec48e071cae26115168","04r1udhn9j0d","","","","","","","","","","","","","","","","","","","","","","129","tutorial/p_reduce/task_familiarization_images/part 1/12_N160_K50_cliqueLeft_solution.PNG"," ","","","","","","","",""
"image-keyboard-response","25","119232","0.0-23.0","6464d1a0e2462ab7b78661e7","67ed0ec48e071cae26115168","04r1udhn9j0d","","","","","","","","","","","","","","","","","","","","","","399","tutorial/p_reduce/task_familiarization_images/part 1/13_N160_K80_cliqueLeft_question1.PNG"," ","","","","","","","",""
"image-keyboard-response","26","119483","0.0-24.0","6464d1a0e2462ab7b78661e7","67ed0ec48e071cae26115168","04r1udhn9j0d","","","","","","","","","","","","","","","","","","","","","","250","tutorial/p_reduce/task_familiarization_images/part 1/14_N160_K80_cliqueLeft_question2.PNG"," ","","","","","","","",""
"image-keyboard-response","27","119492","0.0-25.0","6464d1a0e2462ab7b78661e7","67ed0ec48e071cae26115168","04r1udhn9j0d","","","","","","","","","","","","","","","","","","","","","","7","tutorial/p_reduce/task_familiarization_images/part 1/15_N160_K80_cliqueLeft_question3.PNG","arrowright","","","","","","","",""
"image-keyboard-response","28","119697","0.0-26.0","6464d1a0e2462ab7b78661e7","67ed0ec48e071cae26115168","04r1udhn9j0d","","","","","","","","","","","","","","","","","","","","","","204","tutorial/p_reduce/task_familiarization_images/part 1/16_N160_K80_cliqueLeft_solution.PNG"," ","","","","","","","",""
"image-keyboard-response","29","119965","0.0-27.0","6464d1a0e2462ab7b78661e7","67ed0ec48e071cae26115168","04r1udhn9j0d","","","","","","","","","","","","","","","","","","","","","","266","tutorial/p_reduce/task_familiarization_images/part 1/17_N160_K40_cliqueRight_question1.PNG"," ","","","","","","","",""
"image-keyboard-response","30","120172","0.0-28.0","6464d1a0e2462ab7b78661e7","67ed0ec48e071cae26115168","04r1udhn9j0d","","","","","","","","","","","","","","","","","","","","","","206","tutorial/p_reduce/task_familiarization_images/part 1/18_N160_K40_cliqueRight_question2.PNG"," ","","","","","","","",""
"image-keyboard-response","31","120200","0.0-29.0","6464d1a0e2462ab7b78661e7","67ed0ec48e071cae26115168","04r1udhn9j0d","","","","","","","","","","","","","","","","","","","","","","26","tutorial/p_reduce/task_familiarization_images/part 1/19_N160_K40_cliqueRight_question3.PNG","arrowright","","","","","","","",""
"image-keyboard-response","32","120393","0.0-30.0","6464d1a0e2462ab7b78661e7","67ed0ec48e071cae26115168","04r1udhn9j0d","","","","","","","","","","","","","","","","","","","","","","193","tutorial/p_reduce/task_familiarization_images/part 1/20_N160_K40_cliqueRight_solution.PNG"," ","","","","","","","",""
"image-keyboard-response","33","120669","0.0-31.0","6464d1a0e2462ab7b78661e7","67ed0ec48e071cae26115168","04r1udhn9j0d","","","","","","","","","","","","","","","","","","","","","","275","tutorial/p_reduce/task_familiarization_images/part 1/21_N160_K70_cliqueLeft_question1.PNG"," ","","","","","","","",""
"image-keyboard-response","34","120888","0.0-32.0","6464d1a0e2462ab7b78661e7","67ed0ec48e071cae26115168","04r1udhn9j0d","","","","","","","","","","","","","","","","","","","","","","217","tutorial/p_reduce/task_familiarization_images/part 1/22_N160_K70_cliqueLeft_question2.PNG"," ","","","","","","","",""
"image-keyboard-response","35","121454","0.0-33.0","6464d1a0e2462ab7b78661e7","67ed0ec48e071cae26115168","04r1udhn9j0d","","","","","","","","","","","","","","","","","","","","","","565","tutorial/p_reduce/task_familiarization_images/part 1/23_N160_K70_cliqueLeft_question3.PNG","arrowleft","","","","","","","",""
"image-keyboard-response","36","121525","0.0-34.0","6464d1a0e2462ab7b78661e7","67ed0ec48e071cae26115168","04r1udhn9j0d","","","","","","","","","","","","","","","","","","","","","","62","tutorial/p_reduce/task_familiarization_images/part 1/24_N160_K70_cliqueLeft_solution.PNG"," ","","","","","","","",""
"preload","37","121555","0.0-35.0","6464d1a0e2462ab7b78661e7","67ed0ec48e071cae26115168","04r1udhn9j0d","","","","","","","","","","","","","","","","true","false","[]","[]","[]","","","","","","","","","","","",""
"image-keyboard-response","38","121688","0.0-36.0","6464d1a0e2462ab7b78661e7","67ed0ec48e071cae26115168","04r1udhn9j0d","","","","","","","","","","","","","","","","","","","","","","132","tutorial/p_reduce/task_familiarization_images/part 2/01_N160_K80_cliqueLeft_withFeedback_1.PNG"," ","","","","","","","",""
"image-keyboard-response","39","121980","0.0-37.0","6464d1a0e2462ab7b78661e7","67ed0ec48e071cae26115168","04r1udhn9j0d","","","","","","","","","","","","","","","","","","","","","","290","tutorial/p_reduce/task_familiarization_images/part 2/02_N160_K80_cliqueLeft_withFeedback_2.PNG"," ","","","","","","","",""
"image-keyboard-response","40","122182","0.0-38.0","6464d1a0e2462ab7b78661e7","67ed0ec48e071cae26115168","04r1udhn9j0d","","","","","","","","","","","","","","","","","","","","","","201","tutorial/p_reduce/task_familiarization_images/part 2/03_N160_K80_cliqueLeft_withFeedback_3.PNG","arrowright","","","","","","","",""
"image-keyboard-response","41","122357","0.0-39.0","6464d1a0e2462ab7b78661e7","67ed0ec48e071cae26115168","04r1udhn9j0d","","","","","","","","","","","","","","","","","","","","","","173","tutorial/p_reduce/task_familiarization_images/part 2/04_N160_K80_cliqueLeft_withFeedback_wrong.PNG"," ","","","","","","","",""
"image-keyboard-response","42","122544","0.0-40.0","6464d1a0e2462ab7b78661e7","67ed0ec48e071cae26115168","04r1udhn9j0d","","","","","","","","","","","","","","","","","","","","","","186","tutorial/p_reduce/task_familiarization_images/part 2/05_N160_K55_cliqueRight_withFeedback_1.PNG"," ","","","","","","","",""
"image-keyboard-response","43","122718","0.0-41.0","6464d1a0e2462ab7b78661e7","67ed0ec48e071cae26115168","04r1udhn9j0d","","","","","","","","","","","","","","","","","","","","","","173","tutorial/p_reduce/task_familiarization_images/part 2/06_N160_K55_cliqueRight_withFeedback_2.PNG"," ","","","","","","","",""
"image-keyboard-response","44","122791","0.0-42.0","6464d1a0e2462ab7b78661e7","67ed0ec48e071cae26115168","04r1udhn9j0d","","","","","","","","","","","","","","","","","","","","","","72","tutorial/p_reduce/task_familiarization_images/part 2/07_N160_K55_cliqueRight_withFeedback_3.PNG","arrowleft","","","","","","","",""
"image-keyboard-response","45","122908","0.0-43.0","6464d1a0e2462ab7b78661e7","67ed0ec48e071cae26115168","04r1udhn9j0d","","","","","","","","","","","","","","","","","","","","","","116","tutorial/p_reduce/task_familiarization_images/part 2/08_N160_K55_cliqueRight_withFeedback_wrong.PNG"," ","","","","","","","",""
"image-keyboard-response","46","123117","0.0-44.0","6464d1a0e2462ab7b78661e7","67ed0ec48e071cae26115168","04r1udhn9j0d","","","","","","","","","","","","","","","","","","","","","","208","tutorial/p_reduce/task_familiarization_images/part 2/09_N160_K70_cliqueLeft_withFeedback_1.PNG"," ","","","","","","","",""
"image-keyboard-response","47","123303","0.0-45.0","6464d1a0e2462ab7b78661e7","67ed0ec48e071cae26115168","04r1udhn9j0d","","","","","","","","","","","","","","","","","","","","","","184","tutorial/p_reduce/task_familiarization_images/part 2/10_N160_K70_cliqueLeft_withFeedback_2.PNG"," ","","","","","","","",""
"image-keyboard-response","48","123346","0.0-46.0","6464d1a0e2462ab7b78661e7","67ed0ec48e071cae26115168","04r1udhn9j0d","","","","","","","","","","","","","","","","","","","","","","43","tutorial/p_reduce/task_familiarization_images/part 2/11_N160_K70_cliqueLeft_withFeedback_3.PNG","arrowleft","","","","","","","",""
"image-keyboard-response","49","123498","0.0-47.0","6464d1a0e2462ab7b78661e7","67ed0ec48e071cae26115168","04r1udhn9j0d","","","","","","","","","","","","","","","","","","","","","","151","tutorial/p_reduce/task_familiarization_images/part 2/12_N160_K70_cliqueLeft_withFeedback_correct.PNG"," ","","","","","","","",""
"preload","50","123515","0.0-48.0","6464d1a0e2462ab7b78661e7","67ed0ec48e071cae26115168","04r1udhn9j0d","","","","","","","","","","","","","","","","true","false","[]","[]","[]","","","","","","","","","","","",""
"instructions","51","123939","0.0-49.0","6464d1a0e2462ab7b78661e7","67ed0ec48e071cae26115168","04r1udhn9j0d","","","","","","","","","","","","","","","","","","","","","[{""page_index"":0,""viewing_time"":424}]","424","","","","","","","","","",""
"fullscreen","52","126735","0.0-51.0","6464d1a0e2462ab7b78661e7","67ed0ec48e071cae26115168","04r1udhn9j0d","","","","","","","","","","","","","","","","true","","","","","","","","","","","","","","","",""
"canvas-keyboard-response","53","129667","0.0-52.0-0.0-0.0","6464d1a0e2462ab7b78661e7","67ed0ec48e071cae26115168","04r1udhn9j0d","","","","","","","","","","","","","","","","","","","","","","1809","","arrowright","[234,291,572,394,977,93,654,593,261,52,679,271,357,215,887,183,853,736,444,856,895,226,796,249,705,857,137,510,965,33,9,147,313,536,535,252,50,547,790,756,975,713,316,602,594,336,329,505,443,540,381,25,619,27,630,37,754,62,744,464,521,433,685,680,439,882,148,422,980,714,47,318,22,532,359,818,795,517,169,569,611,457,282,87,109,883,710,191,743,127,676,889,787,130,997,870,6,36,816,471,566,129,353,646,167,807,735,620,268,276,133,986,723,702,774,436,5,543,830,992,595,564,728,819,231,953,516,210,1,65,587,240,476,364,230,302,16,890,117,487,488,225,388,769,867,257,793,580,766,431,79,410,798,88,209,844,866,983,908,284,171,55,31,333,400,835,872,650,945,948,237,145,988,792,690,843,971,64,486,164,943,213,527,277,817,950,448,140,193,156,26,166,596,363,563,764,745,693,608,352,412,256,299,653,466,405,661,153,435,428,582,638,404,90,451,178,312,858,131,838,562,801,434,534,386,107,581,749,636,541,319,667,427,920,141,111,778,460,550,124,946,456,248,163,46,221,929,229,376,625,518,430,401,727,836,814,934,783,73,320,678,0,931,372,347,765,789,188,504,42,805,267,633,671,144,832,432,332,757,374,398,574,605,340,932,182,392,59,871,884,999,808,900,583,568,865,190,375,446,972,722,840,964,647,825,385,905,822,852,301,974,606,657,458,881,334,715,868,473,32,707,251,768,97,296,933,411,295,108,17,484,656,699,752,349,694,253,684,172,810,622,98,537,368,306,293,599,396,242,876,616,34,343,479,406,348,926,677,711,740,94,423,246,706,513,815,640,250,437,888,786,609,383,122,421,981,254,44,416,544,198,197,327,961,758,10,669,461,420,641,659,212,539,382,493,220,799,326,885,892,365,304,775,956,545,49,709,474,634,397,579,930,377,61,571,425,704,175,878,898,725,612,453,409,181,204,947,741,51,880,512,978,632,603,525,442,200,651,294,40,951,922,342,957,216,328,700,126,86,590,631,162,686,53,875,194,615,848,698,831,624,833,21,726,180,770,426,851,314,136,910,555,610,297,174,514,309,751,962,399,189,262,753,998,393,925,642,762,478,38,522,733,243,445,203,954,984,955,637,896,224,467,351,692,155,120,321,450,936,7,782,233,96,497,341,168,648,91,260,729,227,874,732,645,459,991,662,143,48,492,287,211,274,761,89,266,369,621,994,447,862,548,904,70,99,879,303,116,511,495,759,990,626,850,592,102,4,589,222,588,960,845,577,206,84,356,719,959,387,247,996,114,146,897,652,939,8,560,742,335,58,813,689,258,720,860,846,278,11,361,418,613,803,238,371,907,280,556,820,307,724,317,687,241,69,864,800,236,339,67,746,967,29,549,688,75,649,834,346,730,106,823,812,125,760,298,300,123,30,989,837,76,894,567,565,826,202,455,159,494,208,283,56,60,617,413,132,290,207,331,490,354,520,463,103,308,533,773,995,263,643,80,821,737,472,530,223,115,501,909,924,269,366,228,827,829,828,893,600,362,791,187,591,802,797,911,841,506,666,627,628,139,85,670,949,515,373,323,717,173,529,781,469,784,151,777,279,66,915,161,675,914,355,697,664,477,57,809,177,179,985,72,391,502,703,165,523,288,601,923,219,78,77,551,480,552,3,928,970,916,674,731,901,270,68,963,531,19,524,289,644,906,481,160,708,849,755,665,322,509,578,292,39,128,245,441,716,462,604,104,358,570,811,265,281,663,738,315,82,750,935,496,499,324,201,101,629,150,863,449,176,390,718,23,192,855,979,379,149,305,18,196,618,232,121,597,414,779,598,635,186,785,623,508,903,607,772,987,338,938,337,218,712,701,330,244,952,217,15,969,788,419,45,639,14,35,452,454,185,475,311,259,747,519,973,24,558,170,415,83,696,483,370,861,854,63,557,976,438,367,28,927,429,112,576,417,157,919,672,71,345,748,542,804,503,389,195,152,682,489,20,877,668,214,105,92,944,806,110,264,81,275,498,95,899,573,135,776,966,119,691,272,360,942,378,842,395,142,941,12,739,403,344,869,660,886,118,402,575,673,982,273,586,561,470,491,528,507,286,440,584,350,968,134,154,13,465,721,921,734,184,538,199,255,138,424,695,681,839,553,655,325,554,384,500,771,912,993,113,205,285,763,794,485,918,380,408,891,958,468,780,767,917,43,235,940,310,937,873,859,482,546,407,683,913,74,559,239,847,526,158,824,54,41,902,100,585,2,658,614]","arrowright","true","0","0","300","1000","[""0014_N1000_K0300_NOCLIQUE"",""0093_N1000_K0300_CLIQUE""]"
"audio-keyboard-response","54","131058","0.0-52.0-0.0-1.0","6464d1a0e2462ab7b78661e7","67ed0ec48e071cae26115168","04r1udhn9j0d","","","","","","","","","","","","","","","","","","","","","","null","audio_feedback/right/coin01.mp3","null","","","","0","0","300","1000","[""0014_N1000_K0300_NOCLIQUE"",""0093_N1000_K0300_CLIQUE""]"
"canvas-keyboard-response","55","132676","0.0-53.0-0.0-0.0","6464d1a0e2462ab7b78661e7","67ed0ec48e071cae26115168","04r1udhn9j0d","","","","","","","","","","","","","","","","","","","","","","560","","arrowleft","[649,350,230,213,664,733,899,67,188,645,739,251,70,325,203,547,730,369,970,614,86,825,20,607,87,103,742,420,149,365,510,430,719,750,394,690,326,353,612,652,667,595,628,888,125,358,74,10,56,451,323,696,915,212,179,359,441,834,111,883,79,126,909,585,140,35,576,110,162,596,311,989,6,302,465,482,957,399,130,9,156,793,859,905,711,644,211,339,511,999,633,486,270,135,641,954,911,354,210,115,977,192,745,597,380,96,471,272,183,694,223,948,740,321,69,405,479,532,238,663,484,844,474,364,826,390,985,814,994,164,303,398,417,992,925,327,668,736,222,567,469,204,250,46,557,880,120,845,632,651,328,475,396,300,264,715,65,807,986,348,894,890,152,528,676,236,549,951,336,11,411,100,440,84,48,504,978,760,190,584,556,786,735,412,137,267,729,626,49,225,795,756,727,876,878,569,128,836,566,810,808,600,13,695,66,309,924,940,402,341,721,691,462,30,643,57,101,306,811,333,871,280,869,884,177,273,618,901,861,261,304,186,761,235,78,922,237,277,490,93,847,665,106,619,294,105,602,254,681,31,734,487,697,368,515,102,675,171,433,55,16,637,226,224,247,498,755,170,868,815,927,141,753,208,581,855,672,973,374,744,344,14,792,444,375,875,950,428,544,467,138,759,217,266,318,949,258,534,159,176,776,227,136,526,445,38,554,133,926,799,906,485,611,684,361,543,88,241,552,920,590,459,553,588,523,895,307,764,592,202,524,746,627,53,134,145,54,425,351,872,427,660,214,180,489,332,580,780,39,316,698,458,670,499,620,148,509,613,63,640,723,147,207,703,946,599,392,158,391,26,865,669,503,434,519,983,393,5,959,464,848,71,743,939,535,564,896,638,774,44,647,121,984,728,822,714,95,829,507,123,343,650,570,538,4,962,687,754,712,279,447,993,43,7,623,828,443,29,918,154,938,401,151,426,41,240,404,801,565,370,904,610,812,384,449,331,816,892,383,605,974,955,851,197,964,33,195,658,572,928,578,514,89,349,577,546,409,907,841,442,850,283,856,476,24,421,967,446,252,560,263,941,988,305,860,738,157,378,513,765,215,679,330,551,705,995,36,34,85,936,720,450,493,621,747,879,530,3,692,582,562,579,72,73,889,231,483,62,942,319,842,881,312,81,200,324,794,653,268,288,22,558,371,259,817,189,624,127,299,615,766,282,295,491,291,529,139,187,477,548,864,625,635,175,382,206,779,355,773,573,540,497,726,27,481,172,787,415,913,706,820,431,545,363,900,367,788,278,290,775,397,758,340,929,867,767,216,285,741,155,722,416,527,897,677,377,969,98,448,898,843,778,360,931,846,945,205,506,953,286,124,606,791,119,271,293,132,996,233,64,284,301,99,704,275,555,831,960,525,1,568,381,591,805,601,832,274,862,598,571,839,77,708,470,91,589,536,952,965,982,429,813,228,542,818,937,976,934,292,870,310,593,659,178,83,418,242,209,718,781,403,298,802,517,346,50,395,751,853,784,852,655,617,873,25,313,956,413,575,143,887,160,17,603,782,37,114,819,366,419,763,168,385,587,260,131,104,682,8,683,508,912,15,770,193,823,244,639,410,636,857,322,642,198,185,452,347,512,932,153,229,910,0,61,248,287,762,494,563,707,804,854,232,797,604,671,502,379,453,966,749,468,943,710,21,752,76,947,531,82,789,439,165,980,246,191,975,689,335,709,673,516,803,800,488,748,849,51,356,891,838,18,998,320,58,699,866,466,161,400,52,914,622,406,68,42,438,181,594,435,541,731,968,23,220,342,253,769,122,150,678,315,317,757,725,329,473,990,688,916,537,255,256,97,243,45,352,654,47,500,75,923,92,550,919,661,737,835,109,824,472,790,201,520,334,337,376,686,456,196,117,521,917,257,495,234,297,218,958,657,357,387,885,249,701,634,561,674,432,902,455,631,94,424,837,194,436,142,414,700,28,716,40,586,785,60,492,239,827,608,166,972,281,630,461,457,583,276,184,146,362,886,338,961,174,388,702,732,163,167,616,199,944,262,19,518,987,724,533,609,12,882,693,422,107,437,935,921,59,777,345,680,118,219,182,173,783,2,981,629,501,407,480,454,408,289,460,930,112,646,798,903,666,308,505,116,971,221,496,830,108,772,269,314,144,265,423,372,833,997,877,80,169,863,979,933,685,991,893,840,574,296,821,32,245,858,648,129,656,771,386,717,539,478,389,713,768,113,662,90,963,908,809,463,874,522,806,796,373,559]","arrowleft","true","0","1","300","1000","[""0026_N1000_K0300_CLIQUE"",""0093_N1000_K0300_NOCLIQUE""]"
"audio-keyboard-response","56","133678","0.0-53.0-0.0-1.0","6464d1a0e2462ab7b78661e7","67ed0ec48e071cae26115168","04r1udhn9j0d","","","","","","","","","","","","","","","","","","","","","","null","audio_feedback/right/coin01.mp3","null","","","","0","1","300","1000","[""0026_N1000_K0300_CLIQUE"",""0093_N1000_K0300_NOCLIQUE""]"
"canvas-keyboard-response","57","136346","0.0-54.0-0.0-0.0","6464d1a0e2462ab7b78661e7","67ed0ec48e071cae26115168","04r1udhn9j0d","","","","","","","","","","","","","","","","","","","","","","1547","","arrowleft","[827,159,554,739,203,565,5,626,13,458,623,726,27,504,264,191,577,257,785,478,727,400,31,700,550,891,419,433,141,501,64,158,569,63,961,107,315,93,160,10,539,979,227,34,930,973,444,513,408,936,282,276,556,704,334,17,951,798,840,686,768,639,508,977,758,819,488,938,675,756,186,839,652,685,630,914,355,543,673,880,344,50,358,531,434,208,841,328,162,507,481,2,845,976,108,248,701,794,142,283,764,379,912,625,773,459,853,729,386,881,165,123,212,959,161,644,114,646,511,453,670,903,505,364,674,163,496,509,830,317,964,305,990,215,138,497,44,980,620,72,645,833,342,295,77,37,125,349,456,702,563,279,1,167,918,391,719,705,897,429,604,801,861,292,655,241,277,482,967,591,761,950,579,933,970,450,380,484,298,946,766,500,679,435,755,540,78,185,814,931,915,759,692,188,14,7,848,520,603,55,171,793,23,541,201,297,551,713,237,995,975,321,804,677,740,455,132,115,769,244,564,368,463,151,828,168,572,869,304,346,855,94,134,164,712,67,395,971,823,940,860,957,446,222,535,461,415,173,694,120,711,406,193,238,74,998,494,485,561,155,33,868,653,381,452,136,649,150,939,182,157,526,770,311,192,195,597,322,524,599,360,681,95,499,28,991,133,229,776,409,610,791,910,343,228,116,477,387,197,6,559,347,706,119,266,153,529,194,475,716,588,204,754,251,137,287,808,636,281,538,294,306,263,892,640,651,587,800,284,179,140,779,92,641,57,467,338,949,445,254,314,480,183,454,420,184,335,549,449,715,906,797,448,624,269,753,965,205,956,870,261,397,418,324,209,876,666,48,710,75,234,532,118,629,947,725,922,638,350,372,199,632,255,371,83,506,252,178,124,665,517,0,590,778,253,717,176,607,29,521,523,326,110,598,695,473,303,810,219,732,36,399,278,525,427,722,431,402,596,917,12,884,757,567,862,718,865,365,98,562,981,348,608,907,451,654,422,921,190,765,972,152,586,728,611,51,81,272,274,38,544,181,789,198,671,246,714,223,235,978,852,945,290,21,748,887,469,874,650,619,829,465,466,668,100,143,313,826,780,788,414,225,416,637,583,405,935,786,275,924,601,514,357,731,578,130,231,698,974,878,877,489,807,904,359,49,875,218,684,510,330,989,128,609,568,217,834,658,96,70,73,942,82,553,214,806,428,106,271,39,385,352,820,662,393,232,460,691,202,407,169,363,983,534,821,76,518,71,592,267,772,24,744,824,471,929,948,672,857,984,589,396,56,240,91,265,351,260,537,310,472,911,648,61,341,512,62,738,527,412,519,117,331,285,669,447,873,440,490,301,325,323,144,11,602,417,318,249,423,932,300,955,370,560,642,647,102,221,850,105,573,657,154,582,908,743,963,628,15,533,680,376,84,805,211,8,224,374,864,730,737,319,656,243,206,982,339,308,750,745,88,986,968,994,734,708,42,80,87,557,443,687,812,859,697,262,893,548,836,752,394,885,256,104,667,503,576,760,411,58,268,771,127,799,863,216,259,149,404,59,558,895,846,296,242,493,492,43,913,633,627,815,226,825,156,790,97,210,60,842,362,424,180,571,762,900,312,872,682,816,735,135,236,613,280,474,491,316,47,476,247,546,926,570,843,909,196,545,634,782,145,9,584,375,954,631,483,515,146,606,871,622,849,969,438,742,992,239,495,690,847,767,109,937,468,605,121,18,678,774,600,353,802,366,85,693,99,66,899,643,442,90,886,439,960,207,111,953,796,345,369,993,333,996,175,552,575,220,79,377,858,233,332,889,425,916,307,941,101,621,741,457,751,441,41,340,905,403,131,139,230,844,777,688,542,293,660,746,166,86,65,413,54,854,837,783,683,594,962,663,177,661,289,498,635,45,486,189,593,378,835,26,382,696,555,213,901,795,32,430,52,595,617,147,803,831,958,612,736,516,356,148,126,928,987,925,288,902,822,470,659,40,784,426,689,245,174,4,187,817,747,809,699,122,966,401,502,392,943,721,89,112,896,462,22,361,615,944,270,250,384,920,709,410,832,616,818,882,16,390,320,707,367,354,664,580,890,172,614,329,997,291,781,487,437,676,286,813,723,3,703,20,30,373,867,25,35,749,787,720,547,574,389,337,200,724,888,581,432,436,113,838,336,775,69,856,866,19,388,68,898,879,103,988,585,923,934,811,919,129,398,53,479,985,883,894,327,299,792,258,421,566,46,851,302,528,170,464,927,733,383,763,309,952,618,999,536,530,273,522]","arrowleft","true","0","2","267","1000","[""0057_N1000_K0267_CLIQUE"",""0088_N1000_K0267_NOCLIQUE""]"
"audio-keyboard-response","58","137338","0.0-54.0-0.0-1.0","6464d1a0e2462ab7b78661e7","67ed0ec48e071cae26115168","04r1udhn9j0d","","","","","","","","","","","","","","","","","","","","","","null","audio_feedback/right/coin01.mp3","null","","","","0","2","267","1000","[""0057_N1000_K0267_CLIQUE"",""0088_N1000_K0267_NOCLIQUE""]"
"canvas-keyboard-response","59","141532","0.0-55.0-0.0-0.0","6464d1a0e2462ab7b78661e7","67ed0ec48e071cae26115168","04r1udhn9j0d","","","","","","","","","","","","","","","","","","","","","","3145","","arrowleft","[372,360,713,505,301,204,416,3,18,332,944,833,649,233,371,535,872,436,511,622,389,958,777,742,151,554,466,640,57,607,894,854,668,133,338,677,459,982,394,278,462,671,319,696,417,851,470,65,611,678,264,786,542,620,304,476,247,412,528,234,46,559,939,488,918,71,563,43,202,996,377,784,661,950,494,634,285,292,483,664,39,410,283,685,919,254,840,35,599,836,785,680,116,553,684,703,48,850,665,580,238,307,853,279,160,878,871,532,106,718,910,614,16,745,347,715,600,540,504,953,699,245,13,801,780,766,954,819,521,596,230,152,781,569,561,846,27,889,333,73,15,689,928,980,193,91,923,883,403,262,17,931,439,97,940,222,379,702,29,909,771,137,672,602,670,392,306,58,215,357,294,862,656,158,789,788,623,227,260,904,426,273,144,34,324,655,348,370,613,651,271,308,721,828,223,945,393,407,538,628,173,453,422,886,225,571,927,510,736,56,427,860,126,317,64,515,591,174,66,995,770,295,82,967,579,858,644,266,481,127,657,194,935,147,811,962,432,902,711,843,30,259,343,582,361,131,534,468,138,228,414,153,793,186,212,794,449,585,318,629,852,570,642,420,87,557,508,70,901,5,712,759,398,362,52,568,641,477,188,434,564,884,299,406,354,724,208,669,891,315,929,480,454,117,199,89,754,44,552,805,551,900,937,195,792,444,536,297,296,487,820,209,268,760,761,526,509,381,382,989,787,109,674,388,473,547,577,869,686,310,168,203,218,539,514,169,627,807,507,161,959,556,192,111,814,972,314,365,618,282,598,374,10,112,252,124,838,636,101,330,719,67,499,461,769,452,256,525,352,867,963,302,130,750,654,336,728,698,725,729,839,616,367,136,779,415,915,277,63,523,841,524,189,248,69,229,946,275,1,911,705,267,460,326,588,969,166,737,446,337,47,817,619,517,998,896,798,159,94,767,281,290,61,783,157,107,163,303,356,405,475,809,876,182,345,956,979,594,49,590,390,932,506,331,38,610,79,162,37,961,587,53,457,818,981,42,492,687,300,586,20,856,877,675,938,581,734,693,797,679,339,544,765,727,815,11,831,411,95,447,280,899,150,78,573,827,113,773,250,957,495,880,757,710,198,329,701,4,977,100,408,632,191,659,879,868,479,72,369,8,350,231,748,873,206,881,2,895,400,706,920,110,344,567,190,589,441,593,363,835,76,386,437,214,500,888,844,822,122,512,249,825,395,624,118,903,635,62,349,328,638,908,743,893,489,740,648,442,673,108,220,925,321,949,830,824,746,866,467,987,782,615,768,531,224,804,803,885,239,68,25,575,912,289,207,96,530,700,558,172,32,566,775,992,114,103,691,28,478,421,396,941,183,156,875,653,633,842,790,378,574,666,167,425,59,41,741,692,253,184,121,726,334,490,471,92,966,676,973,837,496,608,276,438,545,874,905,368,261,376,662,753,964,84,942,251,325,943,484,129,882,975,383,694,857,120,21,936,834,971,178,914,518,211,387,502,309,342,549,983,83,105,346,316,704,897,430,142,898,140,968,965,148,774,373,986,952,859,335,778,993,451,756,404,503,456,572,366,799,974,934,23,821,845,221,978,409,241,832,520,397,485,197,177,313,240,776,284,960,9,200,716,829,45,55,187,286,455,341,813,464,164,128,90,413,849,205,550,201,513,733,458,646,445,639,429,948,994,431,576,123,658,340,548,180,755,722,322,921,353,772,717,196,243,115,999,584,527,714,217,14,955,810,385,7,491,991,255,802,890,443,440,85,933,683,391,424,595,739,423,604,51,179,501,864,763,578,732,134,135,435,637,272,450,930,647,242,533,170,541,181,997,606,428,625,682,320,257,749,537,592,650,265,907,213,892,358,139,708,269,497,149,219,74,486,697,731,26,660,529,565,695,141,601,287,132,643,863,380,50,216,419,305,119,463,24,145,720,583,288,806,800,263,758,543,31,402,235,631,747,81,165,375,465,621,870,847,951,236,667,609,86,351,603,143,22,970,327,988,474,33,560,723,258,764,125,916,418,0,384,663,175,36,855,913,816,926,562,652,823,597,60,40,795,751,298,237,364,482,93,102,270,516,185,796,493,848,311,399,861,709,791,323,99,605,690,355,401,210,630,244,291,612,617,104,359,645,985,522,312,75,77,546,735,808,293,226,626,6,812,752,730,448,887,707,155,744,98,472,176,681,80,976,924,12,984,146,922,88,555,865,917,19,433,826,171,738,906,990,688,274,762,519,469,498,246,54,232,154,947]","arrowleft","true","0","3","267","1000","[""0032_N1000_K0267_CLIQUE"",""0056_N1000_K0267_NOCLIQUE""]"
"audio-keyboard-response","60","142538","0.0-55.0-0.0-1.0","6464d1a0e2462ab7b78661e7","67ed0ec48e071cae26115168","04r1udhn9j0d","","","","","","","","","","","","","","","","","","","","","","null","audio_feedback/right/coin01.mp3","null","","","","0","3","267","1000","[""0032_N1000_K0267_CLIQUE"",""0056_N1000_K0267_NOCLIQUE""]"
"canvas-keyboard-response","61","150492","0.0-56.0-0.0-0.0","6464d1a0e2462ab7b78661e7","67ed0ec48e071cae26115168","04r1udhn9j0d","","","","","","","","","","","","","","","","","","","","","","6823","","arrowleft","[487,443,430,694,676,903,186,517,179,298,36,735,209,489,536,691,943,205,176,419,825,551,869,726,479,363,785,742,414,212,466,890,197,227,780,504,278,41,864,184,875,132,714,256,314,687,696,261,603,572,271,381,120,382,713,769,347,211,644,643,933,675,357,721,213,729,567,868,897,778,233,370,135,294,286,973,821,81,40,998,511,42,853,77,526,977,598,940,456,722,660,684,380,846,156,153,930,520,463,123,30,245,677,125,20,904,44,438,589,238,685,705,140,647,365,748,152,999,441,316,416,379,144,352,404,509,175,914,277,746,631,83,137,997,46,226,119,521,33,262,10,151,584,389,102,223,763,101,662,116,908,37,38,527,570,482,852,571,29,983,104,849,808,436,415,749,528,323,74,937,483,529,859,605,493,465,146,760,418,458,686,288,724,866,646,534,788,757,402,268,968,611,283,73,432,304,54,809,403,770,275,629,87,9,796,231,201,855,552,80,280,145,192,816,810,351,302,666,506,193,70,1,4,892,35,688,803,995,315,576,260,422,953,737,407,388,840,619,727,228,642,618,142,246,826,34,258,874,719,448,924,321,948,496,454,909,79,106,637,893,889,251,51,59,736,865,697,741,242,954,622,126,484,221,26,299,224,601,160,812,385,310,237,320,630,313,508,975,515,177,71,329,745,842,66,993,114,884,324,208,533,45,730,623,581,503,665,689,423,744,326,207,452,282,720,170,566,784,295,400,468,797,960,984,11,592,15,171,761,166,764,337,485,23,239,602,711,336,190,457,225,390,467,113,255,648,471,147,568,287,181,610,172,162,805,891,531,349,488,398,678,945,638,462,93,996,259,518,306,578,497,92,604,420,693,149,658,459,555,3,583,296,794,127,476,807,573,5,353,879,492,373,959,620,562,269,371,63,716,290,699,421,103,387,325,157,523,738,725,480,704,712,281,399,477,406,935,557,199,698,783,929,52,50,108,183,670,21,538,671,550,966,703,963,912,606,401,375,615,820,490,558,994,68,516,946,67,500,424,232,410,141,367,569,16,682,425,867,588,813,219,397,907,824,958,564,248,988,412,158,625,174,717,417,900,922,799,359,55,667,332,525,253,906,877,925,319,97,563,700,289,96,519,115,547,850,861,128,951,545,575,750,129,542,167,792,409,768,159,828,895,464,706,587,639,168,374,986,723,636,731,472,878,668,596,334,597,94,107,89,791,626,345,844,411,265,502,779,806,654,358,494,949,189,478,992,673,440,931,641,801,888,62,85,822,758,829,522,920,449,469,331,617,220,947,266,628,491,263,13,88,901,91,210,7,913,405,743,915,180,830,709,980,834,952,556,279,751,122,27,395,386,65,710,882,594,607,273,110,967,276,777,964,839,445,392,747,117,318,987,376,333,234,683,715,474,732,327,661,740,860,982,804,203,378,507,814,776,599,680,936,863,582,640,49,652,939,0,923,317,595,335,621,561,241,831,585,815,754,613,339,433,426,718,793,851,264,32,136,707,450,243,501,17,781,553,645,841,881,200,800,58,121,109,985,442,486,148,530,348,252,2,847,165,546,782,974,322,854,191,627,532,307,857,217,950,970,774,229,312,634,499,182,917,827,577,133,86,64,330,78,819,941,655,185,435,591,579,39,455,8,118,918,513,429,270,391,554,692,759,885,649,728,498,739,300,364,305,635,771,143,366,222,360,216,155,377,669,663,965,350,899,862,772,150,656,368,24,921,926,475,962,979,309,439,905,616,163,775,451,870,512,773,752,453,833,240,969,898,236,447,372,971,838,565,848,154,57,362,590,12,47,369,934,600,473,957,872,43,250,19,798,413,753,695,832,100,214,756,481,540,961,911,84,702,178,61,292,938,230,679,795,56,560,510,311,75,161,274,549,653,818,786,896,355,14,131,981,836,856,124,194,880,659,308,539,543,871,198,18,817,431,612,843,535,593,559,95,340,69,910,111,164,303,461,90,254,932,989,297,614,328,505,444,428,674,955,672,894,394,384,767,338,204,887,886,837,218,196,267,427,928,82,72,272,632,609,690,681,25,99,537,944,651,249,708,60,789,608,624,356,701,343,188,956,285,393,22,112,76,408,195,586,580,845,762,301,235,291,139,434,734,354,396,524,858,361,664,942,244,495,978,6,173,247,134,755,823,53,790,650,976,284,766,346,835,765,344,215,342,446,105,916,544,383,657,470,98,802,633,787,460,437,873,206,169,972,991,293,28,574,257,341,187,919,902,927,541,811,138,130,548,202,990,31,514,733,876,48,883]","arrowleft","true","0","4","233","1000","[""0034_N1000_K0233_CLIQUE"",""0083_N1000_K0233_NOCLIQUE""]"
"audio-keyboard-response","62","151477","0.0-56.0-0.0-1.0","6464d1a0e2462ab7b78661e7","67ed0ec48e071cae26115168","04r1udhn9j0d","","","","","","","","","","","","","","","","","","","","","","null","audio_feedback/right/coin01.mp3","null","","","","0","4","233","1000","[""0034_N1000_K0233_CLIQUE"",""0083_N1000_K0233_NOCLIQUE""]"
"canvas-keyboard-response","63","152828","0.0-57.0-0.0-0.0","6464d1a0e2462ab7b78661e7","67ed0ec48e071cae26115168","04r1udhn9j0d","","","","","","","","","","","","","","","","","","","","","","421","","arrowleft","[844,411,657,694,680,463,545,177,69,629,805,2,54,717,523,728,299,786,979,315,920,703,851,878,322,532,53,75,531,564,495,802,672,516,696,730,171,178,21,753,230,746,501,28,706,655,784,143,581,459,891,367,83,854,242,387,159,869,429,289,5,530,808,866,814,858,560,187,34,325,217,157,383,96,437,982,421,686,888,511,795,308,24,434,498,940,468,440,894,491,197,592,480,280,117,822,430,709,916,94,66,142,647,515,42,910,413,671,377,73,189,46,461,499,648,540,240,203,456,394,700,290,483,9,777,363,207,386,470,925,23,742,500,109,392,747,424,815,115,302,914,52,396,469,341,270,279,419,146,43,30,4,776,222,950,255,915,991,855,946,527,780,941,613,847,412,890,486,719,304,750,264,848,677,374,574,224,484,400,64,769,426,965,526,287,130,457,969,580,8,998,870,585,346,20,134,80,7,679,654,818,623,349,807,273,16,831,702,919,626,538,44,444,976,205,489,180,901,26,235,676,319,778,989,633,725,82,247,554,186,762,668,160,506,565,788,681,813,496,688,275,732,370,198,873,820,744,666,917,787,282,137,508,826,108,271,983,662,968,653,415,575,165,401,156,37,546,699,609,533,735,317,428,518,541,494,927,11,797,583,977,335,141,316,310,639,268,832,524,170,889,974,145,391,875,617,281,923,912,796,358,378,693,748,949,640,127,882,153,106,707,204,276,107,588,336,507,41,414,288,608,90,830,22,368,987,351,435,660,211,519,641,338,862,849,476,768,139,245,295,416,836,684,493,38,722,410,477,845,567,19,978,510,846,898,595,267,307,552,399,632,729,154,811,806,861,423,934,175,683,65,953,286,193,715,661,192,332,218,800,994,757,726,50,458,330,47,879,859,667,328,448,610,690,25,212,799,323,123,911,342,420,445,116,10,239,972,624,173,122,320,164,909,785,871,643,573,169,209,823,896,810,943,659,685,237,622,966,955,935,131,418,913,767,292,100,600,921,450,188,570,119,905,314,758,313,522,249,535,348,718,454,603,345,637,120,714,364,687,148,63,59,231,765,631,326,942,556,487,380,738,669,548,651,475,625,745,964,417,182,931,947,166,727,243,988,229,938,562,571,674,783,981,210,126,514,132,62,259,513,971,587,497,586,627,104,863,791,867,147,40,904,216,113,736,827,809,897,638,360,559,227,225,555,804,697,285,843,970,812,293,32,607,713,442,331,77,611,462,649,899,724,720,194,926,877,980,99,233,756,528,321,201,254,485,220,265,441,81,635,474,68,27,135,547,615,17,488,95,36,467,45,563,782,260,824,959,471,277,460,952,604,749,957,893,883,244,439,963,537,261,443,864,752,274,433,67,650,356,453,536,393,70,741,543,112,388,397,163,398,312,362,835,944,605,353,183,402,213,136,318,521,200,223,29,168,74,692,248,817,771,996,689,948,405,997,673,658,296,937,161,880,452,557,118,618,56,675,569,191,395,167,102,840,492,553,930,228,833,250,359,381,825,97,907,404,258,278,465,344,152,589,6,246,509,819,721,842,837,385,343,490,793,984,431,975,306,576,544,992,577,150,594,60,652,390,98,221,375,190,999,301,663,31,478,174,451,900,379,365,821,72,138,772,15,798,664,606,436,885,84,838,630,337,670,928,743,701,520,865,140,35,252,473,238,33,876,226,340,251,214,232,924,781,48,860,61,887,801,482,908,372,202,708,103,593,636,892,384,620,87,406,619,682,936,199,551,850,591,933,534,76,158,408,78,382,634,602,829,334,91,590,755,181,886,294,111,114,339,857,792,561,550,712,962,291,572,790,55,18,852,990,803,155,986,298,906,678,366,504,196,403,89,263,614,329,770,759,284,1,373,149,85,985,958,598,704,903,105,764,324,121,645,642,12,79,740,761,481,599,144,110,973,794,466,311,86,739,128,376,597,124,409,774,737,828,656,13,269,779,922,49,447,361,993,371,932,266,954,539,0,88,432,438,176,517,241,455,208,354,584,297,665,71,872,773,582,711,816,93,3,58,691,723,612,967,219,705,57,257,716,834,502,389,881,558,427,195,14,357,568,754,206,352,751,698,710,789,525,101,766,529,579,407,503,995,644,449,884,162,172,902,185,601,733,300,305,256,472,446,960,369,566,874,184,151,945,731,479,918,841,350,929,621,133,596,234,179,422,646,512,956,961,868,125,895,695,51,129,272,578,760,505,333,347,734,92,215,39,853,763,939,951,309,856,303,253,425,283,542,839,616,327,236,775,628,464,262,355,549]","arrowleft","true","0","5","233","1000","[""0011_N1000_K0233_CLIQUE"",""0053_N1000_K0233_NOCLIQUE""]"
"audio-keyboard-response","64","153818","0.0-57.0-0.0-1.0","6464d1a0e2462ab7b78661e7","67ed0ec48e071cae26115168","04r1udhn9j0d","","","","","","","","","","","","","","","","","","","","","","null","audio_feedback/right/coin01.mp3","null","","","","0","5","233","1000","[""0011_N1000_K0233_CLIQUE"",""0053_N1000_K0233_NOCLIQUE""]"
"canvas-keyboard-response","65","163374","0.0-58.0-0.0-0.0","6464d1a0e2462ab7b78661e7","67ed0ec48e071cae26115168","04r1udhn9j0d","","","","","","","","","","","","","","","","","","","","","","8604","","arrowleft","[780,831,292,840,899,855,510,202,934,869,579,435,477,383,690,718,228,659,91,578,337,801,852,197,759,401,186,88,6,460,560,274,34,747,229,746,811,306,781,864,83,241,647,440,713,540,549,584,820,158,134,922,536,312,326,199,180,643,888,548,380,601,915,437,955,28,33,86,610,2,788,749,684,768,38,372,484,444,240,27,310,103,966,322,895,997,20,405,987,795,138,247,514,215,804,765,5,650,912,677,750,828,660,681,829,415,118,515,97,878,965,466,875,676,783,597,926,499,744,837,988,129,50,429,708,481,402,526,652,324,979,393,642,672,943,602,847,427,483,769,634,963,387,307,341,13,423,264,0,656,504,145,467,590,408,999,218,7,812,236,881,910,904,137,111,568,279,349,198,64,907,755,252,206,109,952,679,398,104,877,784,541,273,141,352,474,339,448,522,531,703,68,284,646,815,846,546,498,426,668,547,265,362,25,232,245,230,961,309,534,525,329,573,340,557,585,225,75,162,595,52,900,914,628,84,432,489,986,717,760,100,908,358,620,729,694,588,438,347,843,772,213,286,928,739,505,303,894,210,807,23,905,700,663,57,139,897,682,876,334,378,330,816,779,813,442,617,203,957,704,506,454,294,48,290,574,299,262,856,11,939,377,281,49,386,479,806,936,728,671,116,564,669,70,550,733,325,200,933,975,183,513,421,720,357,771,406,244,992,128,107,208,606,169,76,436,389,607,562,882,413,553,85,774,778,155,211,874,494,896,842,456,535,159,509,280,748,237,776,890,154,527,234,956,950,485,174,488,112,428,785,291,277,163,968,82,256,991,320,497,927,604,45,168,115,122,932,14,559,862,670,854,184,148,587,493,364,356,300,648,797,173,880,959,736,106,976,722,608,58,761,317,868,283,745,54,314,613,392,217,36,311,396,1,446,845,296,693,304,261,370,935,117,95,645,605,422,696,930,758,227,887,516,664,108,512,554,757,209,921,121,529,995,710,99,417,688,685,10,51,146,591,923,611,316,410,848,839,953,18,629,537,491,572,182,451,156,686,433,631,678,707,630,323,430,319,817,649,204,125,207,766,814,566,55,544,697,615,263,42,520,178,661,409,886,12,43,175,445,189,989,248,974,865,434,826,581,98,397,62,983,424,948,949,833,792,692,552,60,318,609,443,328,619,977,796,706,714,26,282,639,147,859,937,879,764,990,253,476,819,391,924,289,469,674,87,272,165,142,691,368,916,110,276,637,123,315,31,954,561,911,984,502,411,594,822,74,709,463,127,480,216,96,920,101,503,490,188,730,470,221,519,998,249,823,721,301,563,731,482,737,381,752,832,450,789,363,942,891,528,403,738,375,683,711,255,638,715,336,969,41,805,361,719,287,478,794,313,993,565,275,964,689,622,439,495,92,618,181,192,592,24,29,302,78,614,593,67,219,394,751,382,726,872,278,365,16,132,603,224,716,400,420,473,335,297,940,161,947,577,268,883,866,458,285,640,702,972,705,371,114,376,419,69,449,360,753,824,827,734,599,35,73,32,416,61,818,830,441,699,902,171,220,532,81,124,791,342,521,379,898,133,698,799,662,653,37,732,727,153,860,790,332,492,94,487,254,193,131,176,496,616,144,152,500,858,472,524,486,172,267,390,385,191,366,331,844,259,345,802,944,185,787,369,523,223,589,9,723,530,543,857,777,994,344,913,835,190,889,388,571,654,461,135,810,305,586,598,194,632,346,695,468,395,447,308,105,21,235,982,65,63,226,576,657,851,951,113,164,558,941,414,996,418,258,665,160,93,246,44,195,4,946,742,938,980,257,367,231,906,918,354,327,929,725,250,457,743,348,825,242,741,641,871,773,621,196,967,754,655,462,233,575,374,507,960,803,455,214,538,407,556,838,167,350,39,909,201,464,624,501,925,635,270,800,901,673,873,793,583,985,978,770,767,471,373,80,351,53,903,892,582,518,724,808,102,266,157,570,658,740,89,333,849,251,600,625,15,260,66,459,973,756,295,958,853,465,56,170,321,867,19,271,786,17,945,243,962,763,511,119,627,580,508,551,612,143,850,150,72,136,431,884,667,452,863,971,675,666,239,821,917,238,71,3,633,40,701,149,885,517,809,919,626,130,355,623,205,735,931,269,596,298,140,687,542,539,651,404,46,126,353,970,475,90,567,338,762,834,644,30,399,981,870,533,120,359,782,8,177,545,187,798,293,841,166,412,288,893,680,59,77,212,222,861,47,775,22,425,836,569,179,79,636,343,151,384,555,453,712]","arrowleft","true","0","6","217","1000","[""0036_N1000_K0217_CLIQUE"",""0029_N1000_K0217_NOCLIQUE""]"
"audio-keyboard-response","66","164377","0.0-58.0-0.0-1.0","6464d1a0e2462ab7b78661e7","67ed0ec48e071cae26115168","04r1udhn9j0d","","","","","","","","","","","","","","","","","","","","","","null","audio_feedback/right/coin01.mp3","null","","","","0","6","217","1000","[""0036_N1000_K0217_CLIQUE"",""0029_N1000_K0217_NOCLIQUE""]"
"canvas-keyboard-response","67","165400","0.0-59.0-0.0-0.0","6464d1a0e2462ab7b78661e7","67ed0ec48e071cae26115168","04r1udhn9j0d","","","","","","","","","","","","","","","","","","","","","","2","","arrowleft","[867,827,609,704,499,527,91,129,738,37,458,50,205,966,108,172,339,71,377,488,773,349,261,142,425,634,482,826,32,140,150,110,381,203,337,620,128,90,99,103,272,821,456,12,734,961,515,442,967,547,918,45,428,409,689,595,493,857,998,604,230,114,333,801,174,61,195,341,657,413,149,343,534,56,329,386,699,429,322,35,524,260,792,600,523,992,193,376,112,443,965,427,460,67,385,326,954,263,955,399,220,887,598,959,245,247,562,461,107,505,851,382,698,621,825,532,145,950,912,731,977,993,858,290,822,490,924,277,404,445,566,602,29,391,317,147,626,160,60,279,664,793,748,373,658,23,580,695,204,637,470,742,169,613,363,294,215,40,873,59,512,471,607,315,724,606,371,982,560,735,402,194,582,165,771,375,554,387,164,383,352,592,985,798,252,519,113,366,212,258,783,784,901,288,477,100,990,268,81,80,957,246,638,531,733,266,906,755,432,922,818,46,754,93,561,641,441,469,384,842,22,716,878,476,250,137,20,565,889,285,690,199,457,760,984,668,162,522,788,991,244,557,549,928,921,77,940,502,42,931,497,170,146,622,893,485,853,286,10,256,125,615,227,183,7,269,671,769,475,920,407,444,316,737,694,422,158,226,494,179,697,558,849,640,820,659,102,583,865,646,189,828,703,741,16,553,302,313,418,834,811,293,520,572,571,97,909,281,790,177,200,803,327,916,712,814,805,57,813,66,927,832,74,248,510,243,864,570,856,421,132,736,127,451,844,4,89,370,941,411,138,540,802,758,648,408,197,667,706,25,817,717,876,684,318,752,296,951,925,440,936,228,238,396,908,868,635,5,546,257,548,577,846,725,44,157,654,394,221,186,594,919,874,739,467,141,787,903,231,568,722,459,567,645,544,617,938,983,340,180,933,439,675,357,630,338,292,576,839,225,47,823,863,585,946,68,438,453,612,932,749,988,297,96,809,94,8,84,436,794,680,575,578,713,767,202,124,26,711,599,1,417,860,676,168,76,880,710,500,610,930,895,975,393,271,378,365,300,511,368,209,3,53,474,723,848,944,109,789,58,503,289,948,167,782,49,155,301,190,123,334,681,964,312,201,836,481,361,971,772,945,388,359,556,219,552,852,276,280,521,17,649,593,970,911,608,778,116,86,885,910,424,151,501,508,616,542,353,891,987,356,696,19,506,105,139,555,31,389,587,781,255,237,304,785,564,192,980,861,284,877,144,88,718,372,894,833,351,136,854,847,866,651,815,483,879,362,462,633,65,187,364,709,211,207,196,850,700,799,574,412,249,730,884,707,270,914,223,181,319,899,185,674,380,14,450,705,395,216,159,466,479,410,923,726,779,541,913,55,478,348,9,131,960,720,369,902,367,550,224,507,513,947,688,611,251,631,36,753,355,824,797,579,188,986,278,590,85,997,79,492,433,625,627,171,63,426,153,653,806,324,956,240,729,973,890,303,952,762,350,661,161,262,678,241,892,314,780,969,54,239,232,841,358,28,845,498,173,298,331,423,942,517,743,431,452,591,69,518,374,904,495,437,573,656,27,830,48,669,989,414,360,896,629,299,95,21,121,686,644,120,184,2,291,900,643,449,628,831,400,744,871,130,537,210,397,347,390,98,953,994,328,603,13,330,962,682,693,75,198,655,354,840,999,332,672,92,601,218,484,308,869,283,996,974,307,795,679,536,917,15,949,398,379,430,514,719,888,264,406,72,972,111,119,691,751,979,305,405,18,163,538,273,584,715,732,420,662,807,666,897,650,496,392,275,714,156,963,126,597,62,943,222,886,692,978,677,415,335,242,235,740,446,855,687,166,882,875,545,504,401,135,702,543,489,175,786,812,24,208,776,721,41,605,134,533,636,323,254,104,757,819,70,236,915,182,115,0,673,265,728,419,995,336,526,586,346,763,632,206,808,750,670,464,589,176,569,768,774,463,191,73,958,253,214,981,472,447,480,976,320,274,619,618,870,486,764,816,33,804,455,837,535,310,934,665,800,898,883,311,345,766,229,342,468,117,233,51,929,939,810,829,39,872,525,838,87,52,756,859,746,34,83,448,143,434,596,403,881,267,509,791,968,11,660,234,465,133,416,178,122,152,473,559,563,516,926,683,101,777,862,435,745,118,306,6,905,765,937,82,907,154,325,344,663,309,106,217,759,796,701,727,321,639,843,213,539,287,38,487,528,747,761,652,685,64,775,148,935,708,43,647,491,623,529,588,295,642,770,78,454,581,30,259,614,530,551,282,835,624]","arrowleft","true","0","7","217","1000","[""0018_N1000_K0217_CLIQUE"",""0033_N1000_K0217_NOCLIQUE""]"
"audio-keyboard-response","68","166398","0.0-59.0-0.0-1.0","6464d1a0e2462ab7b78661e7","67ed0ec48e071cae26115168","04r1udhn9j0d","","","","","","","","","","","","","","","","","","","","","","null","audio_feedback/right/coin01.mp3","null","","","","0","7","217","1000","[""0018_N1000_K0217_CLIQUE"",""0033_N1000_K0217_NOCLIQUE""]"
"canvas-keyboard-response","69","168069","0.0-60.0-0.0-0.0","6464d1a0e2462ab7b78661e7","67ed0ec48e071cae26115168","04r1udhn9j0d","","","","","","","","","","","","","","","","","","","","","","603","","arrowright","[889,565,13,220,628,12,901,642,985,72,41,900,960,654,821,165,486,693,951,284,829,362,217,906,332,909,175,586,971,973,888,75,955,844,5,643,752,421,645,591,535,88,344,588,26,45,76,359,967,192,310,526,44,347,56,189,632,791,724,626,413,2,199,685,379,927,260,699,20,668,629,319,412,918,863,340,735,549,335,273,140,355,122,274,204,424,647,783,128,266,54,876,952,872,576,40,812,692,827,881,329,11,849,369,892,157,636,173,577,82,637,744,756,372,861,74,297,593,616,702,61,431,595,455,957,60,770,551,85,851,100,257,53,49,962,115,430,603,124,802,701,390,666,253,465,164,608,132,736,556,221,265,395,121,448,557,271,915,167,815,715,33,405,697,294,775,825,574,497,891,859,897,613,210,247,38,561,106,774,725,203,810,768,868,382,832,633,757,78,387,743,975,509,252,691,352,742,572,182,728,107,439,804,670,615,681,704,650,707,392,855,261,186,907,933,990,345,440,784,587,926,869,552,542,231,601,276,227,370,451,81,934,249,462,494,508,240,198,525,506,363,208,765,452,578,334,780,202,999,357,381,514,461,480,206,858,620,66,657,987,443,375,104,343,258,15,847,408,978,303,893,730,624,170,884,171,110,823,946,942,336,378,219,634,808,529,185,263,887,590,96,596,286,925,731,669,417,361,524,152,402,46,722,73,466,445,555,89,404,533,499,360,457,836,830,399,546,37,8,127,427,384,959,507,797,415,501,520,766,545,843,475,267,841,984,511,79,878,528,638,22,788,17,964,562,864,871,312,779,183,512,672,120,708,374,4,333,852,905,471,953,671,502,55,689,776,317,837,769,212,246,418,237,181,151,553,464,255,997,568,625,592,313,485,712,982,527,585,376,940,478,831,447,195,612,623,346,394,309,111,785,694,131,114,144,850,711,789,639,517,806,62,191,166,929,27,575,35,215,65,532,570,444,910,409,819,713,747,709,31,459,805,939,548,936,816,554,158,824,209,174,52,560,301,510,976,873,895,316,228,993,673,498,539,201,594,280,283,146,536,867,648,582,48,492,663,272,196,298,726,688,659,605,600,772,980,870,117,116,50,226,684,147,882,142,341,547,598,435,95,193,364,63,43,287,989,678,179,813,323,1,609,102,751,308,505,875,268,108,945,811,983,977,760,513,3,433,656,331,419,787,880,714,29,664,543,92,599,923,690,36,83,434,566,523,569,441,677,326,530,503,149,197,125,705,617,894,727,351,299,109,401,716,216,761,368,534,854,23,426,414,30,563,373,848,396,822,420,496,254,495,449,773,9,564,943,911,981,187,700,290,899,25,353,57,748,932,754,80,470,289,500,771,67,679,559,833,544,903,614,584,484,627,371,958,902,148,463,966,991,177,877,293,686,232,397,377,161,251,948,367,366,938,676,207,126,269,330,242,234,687,292,883,218,621,291,675,764,86,583,950,155,741,6,898,456,749,912,504,139,388,235,321,597,94,39,233,51,717,817,123,446,472,403,477,324,141,695,188,489,264,537,93,698,474,807,602,338,0,924,968,777,354,916,327,721,18,630,781,860,184,994,469,745,589,890,436,660,920,865,428,256,259,238,410,949,516,840,740,853,767,135,683,467,168,738,885,917,279,758,995,550,244,118,667,937,248,453,468,406,288,429,90,800,479,21,998,954,119,476,640,820,432,803,391,706,315,314,190,653,134,737,941,450,398,311,778,389,282,729,996,213,105,277,763,723,488,325,674,845,169,230,790,241,798,385,28,438,400,919,407,611,136,112,296,796,473,200,71,129,921,380,604,842,243,58,567,579,935,160,718,809,680,365,792,47,618,908,245,270,163,223,658,285,914,518,794,481,782,130,172,99,986,250,607,68,521,239,162,262,211,573,278,224,98,180,178,930,143,59,931,581,963,896,696,755,846,531,661,19,437,635,710,979,801,337,786,138,24,176,972,342,295,944,961,7,300,904,662,719,482,97,356,222,91,137,64,814,214,762,818,318,386,349,442,750,69,154,886,153,631,423,922,835,77,799,16,866,646,619,965,460,322,558,150,306,538,947,746,493,879,720,956,487,281,753,229,411,454,793,571,732,205,834,606,305,838,491,856,733,339,113,458,393,320,826,236,425,10,913,739,483,416,350,652,515,988,992,682,857,622,42,541,540,358,828,703,103,307,70,862,304,969,655,133,641,328,225,348,302,974,519,649,839,644,422,874,14,156,970,759,383,734,101,194,275,580,610,34,32,795,159,87,84,665,522,651,145,928,490]","arrowright","true","0","8","200","1000","[""0082_N1000_K0200_NOCLIQUE"",""0055_N1000_K0200_CLIQUE""]"
"audio-keyboard-response","70","169057","0.0-60.0-0.0-1.0","6464d1a0e2462ab7b78661e7","67ed0ec48e071cae26115168","04r1udhn9j0d","","","","","","","","","","","","","","","","","","","","","","null","audio_feedback/right/coin01.mp3","null","","","","0","8","200","1000","[""0082_N1000_K0200_NOCLIQUE"",""0055_N1000_K0200_CLIQUE""]"
"canvas-keyboard-response","71","170822","0.0-61.0-0.0-0.0","6464d1a0e2462ab7b78661e7","67ed0ec48e071cae26115168","04r1udhn9j0d","","","","","","","","","","","","","","","","","","","","","","681","","arrowright","[133,605,596,451,791,517,587,424,225,112,255,9,299,450,881,678,484,241,310,403,305,589,511,778,135,220,1,430,148,808,69,191,624,436,980,575,770,237,39,545,699,767,233,127,38,519,91,499,395,344,710,732,252,894,832,49,752,786,654,189,170,731,482,916,598,563,66,240,218,126,613,958,326,168,207,352,431,901,292,146,68,962,807,287,728,11,137,52,975,566,83,590,695,910,180,723,472,528,453,505,323,169,712,591,946,14,279,938,692,834,913,867,541,27,468,497,40,686,166,319,173,494,28,873,643,576,636,396,755,161,327,435,460,272,390,610,535,721,959,564,754,152,167,947,398,650,10,580,75,889,197,698,623,95,101,888,827,228,969,570,172,557,586,504,779,844,640,911,706,309,73,248,856,926,777,67,471,579,729,413,622,381,757,509,275,929,293,531,935,559,841,342,212,124,838,488,347,111,139,635,36,74,625,853,93,940,205,753,415,96,483,356,186,393,974,361,661,300,84,81,13,307,902,925,86,950,278,825,970,530,2,790,90,263,206,741,945,743,684,388,119,627,200,719,842,848,115,748,928,510,835,985,128,915,893,25,32,735,955,55,446,71,290,793,329,676,533,147,336,747,981,608,463,648,574,246,651,258,280,402,405,391,567,824,452,418,601,966,658,993,102,780,918,318,308,276,440,437,214,617,775,349,527,320,277,983,507,217,994,236,346,234,642,857,600,163,181,48,532,539,130,898,830,900,421,906,260,285,33,797,713,242,335,762,204,809,715,798,232,607,668,716,859,54,534,544,401,306,921,208,345,680,618,199,766,942,800,768,19,817,976,202,492,548,781,253,657,543,264,512,836,243,675,979,238,158,858,64,882,37,422,737,914,592,193,682,896,526,341,210,516,646,464,76,996,886,110,749,92,0,428,473,198,989,905,372,988,470,573,645,986,478,963,297,850,411,584,457,761,362,215,542,196,85,56,711,235,353,143,520,273,878,29,652,919,862,105,22,612,187,50,619,321,467,343,159,123,691,165,461,338,998,630,176,621,140,720,876,637,477,883,523,498,156,522,736,665,447,932,604,864,365,847,226,465,271,99,615,727,949,367,201,18,313,550,562,861,697,357,192,239,875,655,63,185,701,851,792,897,518,500,730,939,317,818,756,138,404,400,609,663,653,662,417,153,486,3,813,745,693,77,506,15,491,954,216,429,454,595,673,259,245,860,909,553,536,129,426,879,726,540,265,758,266,525,24,795,262,826,45,633,21,339,992,611,788,109,78,629,384,558,330,302,82,602,94,286,599,717,374,887,174,815,46,708,714,937,789,671,113,872,304,177,58,696,828,806,244,26,106,933,100,556,190,314,811,763,157,298,991,251,427,8,943,104,485,221,31,445,17,195,108,866,870,281,649,571,524,783,689,927,634,707,941,803,568,822,4,493,334,213,854,839,325,62,995,389,687,537,750,978,324,799,501,774,660,581,274,620,773,899,5,359,296,97,301,987,142,837,188,179,459,283,577,718,60,628,644,408,332,144,70,930,502,456,503,912,203,433,34,270,6,364,804,249,967,679,150,578,641,116,508,340,725,891,223,16,555,65,751,209,59,79,852,432,12,288,944,560,194,348,57,268,997,229,476,254,141,831,733,360,43,801,936,593,350,984,466,149,419,631,820,23,311,377,764,709,973,583,514,480,160,175,184,379,846,72,98,744,399,380,829,874,594,35,782,438,368,722,515,694,794,284,117,739,923,895,406,823,162,865,787,355,257,394,44,956,328,614,441,131,704,120,819,796,638,363,561,315,934,145,425,487,333,977,885,256,423,924,469,546,183,597,746,88,681,444,322,121,569,136,904,812,387,552,455,51,890,784,479,922,103,821,291,375,449,495,554,439,358,869,920,880,603,960,182,814,769,125,677,868,840,392,434,690,772,366,734,931,409,230,703,474,269,53,669,30,740,171,371,606,247,481,442,855,903,616,227,155,416,760,957,884,964,765,448,369,948,785,585,771,738,672,582,458,475,378,907,802,250,951,289,122,972,667,917,294,849,462,89,354,965,407,551,892,664,565,376,47,952,496,114,87,222,107,961,267,688,312,843,971,61,513,549,805,759,490,282,383,999,666,397,489,529,816,151,331,261,683,670,908,351,42,303,702,178,845,154,7,639,656,547,659,134,373,370,724,521,572,700,231,982,810,382,386,420,132,588,705,412,118,877,685,863,80,20,385,990,414,833,316,626,674,632,538,953,211,776,410,337,224,968,647,443,41,871,742,219,164,295]","arrowright","true","0","9","200","1000","[""0100_N1000_K0200_NOCLIQUE"",""0093_N1000_K0200_CLIQUE""]"
"audio-keyboard-response","72","171817","0.0-61.0-0.0-1.0","6464d1a0e2462ab7b78661e7","67ed0ec48e071cae26115168","04r1udhn9j0d","","","","","","","","","","","","","","","","","","","","","","null","audio_feedback/right/coin01.mp3","null","","","","0","9","200","1000","[""0100_N1000_K0200_NOCLIQUE"",""0093_N1000_K0200_CLIQUE""]"
"canvas-keyboard-response","73","173640","0.0-62.0-0.0-0.0","6464d1a0e2462ab7b78661e7","67ed0ec48e071cae26115168","04r1udhn9j0d","","","","","","","","","","","","","","","","","","","","","","836","","arrowright","[141,507,898,272,871,247,249,341,104,193,894,138,90,836,770,633,251,604,571,151,227,50,378,702,764,675,616,801,511,761,457,588,71,243,85,628,802,423,77,287,16,759,810,374,671,368,775,606,601,350,823,303,129,412,257,40,546,862,469,749,867,762,432,101,525,662,139,408,695,561,715,498,669,69,848,553,924,148,279,116,124,538,211,754,225,673,145,86,746,199,48,734,31,431,699,174,760,651,476,137,52,414,157,165,625,653,568,262,223,56,508,398,217,830,501,646,343,256,421,608,535,940,711,167,902,413,172,120,24,337,98,14,583,66,94,946,791,360,42,609,776,964,598,654,35,232,705,966,427,982,839,891,545,96,91,293,196,99,134,713,140,422,934,357,700,479,659,558,577,641,670,731,438,292,757,840,57,939,645,424,289,309,542,565,213,825,295,252,888,325,657,393,17,941,979,490,253,580,925,875,784,973,748,926,942,503,92,768,767,892,903,195,461,231,161,171,21,310,931,107,526,721,944,735,965,928,44,554,198,160,201,709,610,826,799,592,132,719,460,745,250,820,383,890,739,248,895,536,909,543,910,778,216,901,153,882,591,389,475,15,27,954,407,777,442,453,714,224,179,811,632,642,9,301,794,194,831,43,200,33,809,615,923,987,168,245,660,47,988,896,381,2,792,977,551,420,643,530,837,265,226,34,471,995,365,409,918,853,78,807,672,937,121,975,570,630,681,385,828,738,331,369,488,639,215,136,537,596,326,255,959,652,416,487,611,720,506,763,556,229,185,560,440,844,474,49,718,288,210,429,346,790,626,843,370,963,703,573,18,155,188,514,70,202,410,240,46,845,575,362,239,305,854,540,336,82,102,704,582,581,534,869,180,203,314,747,347,61,569,236,947,191,970,359,418,54,961,866,263,181,587,906,396,600,539,395,415,142,447,650,793,297,88,19,484,852,827,958,505,458,860,766,737,602,386,3,619,922,900,833,63,388,779,212,220,930,320,150,858,313,298,951,656,274,269,824,372,655,384,547,454,80,450,382,322,622,463,679,676,380,470,106,342,798,443,666,222,8,723,143,696,446,439,744,130,584,491,445,685,118,967,691,352,668,103,919,743,607,758,189,459,736,419,585,637,686,876,980,821,974,872,861,877,166,502,599,163,631,846,23,612,885,290,327,541,971,361,472,623,905,500,816,235,376,724,183,863,7,559,787,334,783,753,819,278,968,58,329,209,335,186,65,465,605,516,873,517,81,403,533,28,387,981,750,789,315,11,448,914,154,884,813,751,771,464,433,324,111,880,280,962,804,613,693,354,234,857,707,904,67,356,780,712,899,190,449,773,146,755,756,864,983,644,943,855,156,897,177,467,436,740,113,805,815,527,618,304,394,358,752,276,955,282,159,307,308,123,911,176,504,74,994,379,170,351,392,908,375,114,87,131,318,549,706,486,228,125,466,788,624,649,455,921,832,729,75,89,617,434,841,595,390,208,332,567,814,932,237,562,284,544,847,37,184,949,499,135,817,164,366,960,246,38,849,312,936,426,399,795,25,206,510,39,522,29,62,667,664,593,489,333,401,838,452,127,566,147,316,850,109,241,192,972,277,482,957,10,122,230,859,726,55,76,108,330,717,22,948,629,865,84,115,519,497,796,521,480,552,355,311,349,338,45,772,806,812,169,682,564,451,769,822,128,597,317,345,367,563,158,20,340,207,594,162,765,741,285,260,294,286,665,614,425,377,730,100,0,339,518,579,242,478,259,344,495,920,993,483,182,878,742,708,266,883,985,494,267,912,406,870,913,404,6,945,531,976,59,363,323,555,697,512,300,658,205,933,306,636,64,989,492,635,105,477,722,233,916,110,12,774,214,397,574,578,621,485,481,221,674,4,523,258,893,842,917,244,969,834,992,586,927,692,728,405,998,430,800,493,319,32,634,119,698,683,373,271,520,576,264,781,874,532,126,999,299,444,175,725,296,36,173,701,435,661,348,648,238,856,589,929,112,529,638,915,528,5,178,797,627,402,291,694,710,688,13,684,144,889,515,678,620,456,950,935,647,548,152,261,1,371,881,997,590,72,468,603,117,133,886,400,268,818,281,879,473,441,417,496,60,321,149,187,952,275,907,991,663,79,786,938,550,53,197,996,868,851,93,411,364,30,785,808,716,956,83,328,41,690,428,732,557,219,835,689,204,437,782,97,640,513,51,524,270,677,218,391,353,462,978,73,990,953,572,302,68,984,687,509,887,727,283,680,254,733,273,986,803,26,95,829]","arrowright","true","0","10","183","1000","[""0018_N1000_K0183_NOCLIQUE"",""0048_N1000_K0183_CLIQUE""]"
"audio-keyboard-response","74","174637","0.0-62.0-0.0-1.0","6464d1a0e2462ab7b78661e7","67ed0ec48e071cae26115168","04r1udhn9j0d","","","","","","","","","","","","","","","","","","","","","","null","audio_feedback/right/coin01.mp3","null","","","","0","10","183","1000","[""0018_N1000_K0183_NOCLIQUE"",""0048_N1000_K0183_CLIQUE""]"
"canvas-keyboard-response","75","176539","0.0-63.0-0.0-0.0","6464d1a0e2462ab7b78661e7","67ed0ec48e071cae26115168","04r1udhn9j0d","","","","","","","","","","","","","","","","","","","","","","882","","arrowleft","[662,91,308,633,494,582,951,164,908,503,1,72,640,169,684,653,13,978,867,172,0,909,853,705,894,802,478,941,302,854,967,439,865,879,353,428,479,402,401,268,442,30,549,447,559,262,522,133,642,713,318,146,196,424,70,286,360,480,927,755,213,623,260,746,380,822,368,856,255,272,569,382,584,769,699,504,37,828,149,47,344,658,386,95,261,197,159,246,805,362,823,346,44,466,109,252,665,771,102,198,311,384,339,628,660,24,497,988,596,664,184,341,516,26,940,745,648,587,473,9,112,736,310,87,546,641,804,581,127,316,235,265,709,193,78,375,796,141,781,509,871,251,995,929,408,986,897,519,68,57,564,766,626,747,484,84,140,659,674,463,332,174,595,799,670,387,126,501,906,733,613,114,888,89,491,904,539,726,54,98,790,835,486,926,952,359,27,29,683,850,617,993,324,244,249,557,563,885,741,334,178,837,153,844,81,190,222,621,836,663,855,600,586,643,113,166,754,990,430,142,898,349,158,786,768,676,826,281,698,907,307,506,97,943,377,462,417,594,532,728,934,348,752,750,475,338,574,849,568,518,780,498,954,942,56,614,620,485,441,979,985,534,230,269,355,737,364,983,3,227,329,115,434,2,541,313,309,204,106,627,722,53,130,599,31,221,528,631,782,267,743,797,667,175,412,179,928,813,277,655,88,92,285,143,708,482,580,328,702,256,630,304,635,83,757,963,775,566,912,410,289,445,283,998,742,989,446,425,798,671,536,918,984,970,935,572,67,105,470,290,420,455,795,392,716,831,520,911,731,558,725,851,173,62,950,937,852,959,7,938,701,336,211,239,932,443,371,896,727,270,468,137,458,500,966,647,882,155,739,972,275,354,891,220,593,551,108,738,69,508,759,679,686,644,687,589,101,66,859,135,579,611,873,18,276,570,682,550,910,263,632,565,829,767,202,296,720,977,729,427,93,156,206,90,545,363,573,176,474,965,706,49,840,437,724,438,22,413,472,291,634,323,691,214,14,875,201,226,50,59,575,609,650,863,610,772,38,321,182,889,666,8,253,372,547,162,730,195,416,45,917,905,890,452,426,774,357,75,25,792,16,205,407,973,505,616,264,61,167,861,218,340,215,893,607,517,405,225,123,758,60,649,396,675,590,975,460,637,374,719,913,511,414,808,358,583,801,914,936,946,677,435,257,33,820,136,295,12,457,556,777,960,625,980,561,282,298,28,192,809,821,672,531,467,639,431,128,877,807,52,487,999,399,847,335,312,403,208,785,717,680,476,673,693,36,293,598,400,194,933,638,103,721,203,180,718,756,962,234,921,773,842,32,499,41,469,987,82,271,481,154,688,810,228,496,669,578,287,111,548,832,560,342,42,317,819,20,129,696,297,40,903,273,814,834,591,483,223,495,241,147,280,51,369,207,971,981,240,543,373,10,233,602,319,704,895,789,345,689,748,320,848,63,931,958,899,86,343,597,436,278,535,150,185,331,872,388,160,419,80,858,301,314,217,118,544,887,370,259,529,322,619,523,100,939,661,753,945,188,488,131,138,992,922,64,974,697,603,542,120,869,923,247,791,901,876,11,389,394,825,17,199,48,490,512,760,968,815,864,788,19,857,315,415,165,122,585,513,656,440,700,900,830,817,306,456,212,554,948,868,209,976,764,489,85,925,132,838,96,168,292,920,592,723,305,243,200,404,744,540,816,916,254,715,654,997,429,652,533,418,571,800,325,515,406,191,444,765,530,527,124,333,454,104,231,398,383,492,924,21,605,391,242,526,110,930,615,783,216,524,35,274,866,588,187,266,818,843,870,991,385,390,839,555,751,646,915,245,770,884,618,381,762,776,183,94,250,651,299,397,612,34,803,71,471,134,99,284,553,79,258,46,367,811,449,327,510,577,824,645,961,521,73,224,778,303,433,514,432,502,690,248,606,161,919,953,232,806,116,352,288,710,121,393,145,608,601,892,711,740,77,330,538,694,365,379,833,448,886,878,668,409,423,734,714,695,874,74,784,537,107,6,163,171,23,947,421,39,119,350,956,703,678,880,827,366,347,361,356,236,685,812,763,793,210,378,148,955,294,351,151,55,567,152,707,964,219,841,376,15,300,624,186,238,170,76,411,337,326,229,181,465,881,464,117,982,794,779,139,237,692,453,657,949,787,395,525,636,944,451,477,459,629,177,493,761,994,883,125,957,144,846,461,902,189,735,681,969,450,65,862,562,749,604,4,576,552,507,996,58,845,422,43,5,860,712,279,732,157,622]","arrowleft","true","0","11","183","1000","[""0078_N1000_K0183_CLIQUE"",""0023_N1000_K0183_NOCLIQUE""]"
"audio-keyboard-response","76","177538","0.0-63.0-0.0-1.0","6464d1a0e2462ab7b78661e7","67ed0ec48e071cae26115168","04r1udhn9j0d","","","","","","","","","","","","","","","","","","","","","","null","audio_feedback/right/coin01.mp3","null","","","","0","11","183","1000","[""0078_N1000_K0183_CLIQUE"",""0023_N1000_K0183_NOCLIQUE""]"
"canvas-keyboard-response","77","179133","0.0-64.0-0.0-0.0","6464d1a0e2462ab7b78661e7","67ed0ec48e071cae26115168","04r1udhn9j0d","","","","","","","","","","","","","","","","","","","","","","682","","arrowleft","[384,184,38,87,161,227,110,762,649,737,400,530,766,12,14,250,204,957,93,988,896,194,398,474,232,62,233,199,801,500,648,830,59,807,869,9,583,420,841,714,269,80,412,955,425,968,884,424,740,587,196,764,460,603,53,345,704,858,411,757,421,331,393,44,860,811,334,868,971,879,943,149,770,889,266,506,175,852,449,52,205,339,597,662,96,824,539,258,373,388,366,332,803,956,327,932,324,355,967,563,383,102,90,581,742,464,304,798,279,19,780,117,934,413,996,236,20,394,947,292,977,814,865,206,275,445,363,915,218,285,965,174,720,85,56,448,859,73,397,340,309,710,249,736,754,186,504,781,779,984,125,850,496,91,708,63,621,294,494,42,325,116,499,7,359,918,834,105,615,270,744,578,11,653,24,880,862,43,535,428,316,588,103,605,872,286,215,284,134,55,631,817,277,200,36,659,548,637,793,447,8,443,826,700,953,365,936,949,107,598,867,451,861,498,680,763,126,405,873,297,189,748,389,521,784,115,524,323,347,493,842,247,687,593,223,609,738,45,157,894,508,897,364,926,792,410,664,582,557,47,907,607,709,875,426,960,490,558,41,768,575,362,844,162,351,678,209,822,608,652,751,729,501,785,863,827,726,135,795,685,10,574,553,972,76,40,836,544,13,376,502,761,336,231,707,83,513,627,255,888,111,480,505,473,833,966,839,676,624,818,681,829,167,23,378,769,808,207,495,727,404,559,129,630,121,920,820,320,739,802,140,620,856,108,138,938,287,881,886,526,475,815,442,396,586,241,203,589,871,689,70,467,759,225,54,182,747,716,307,31,632,137,49,58,171,358,893,321,371,130,146,119,946,168,353,555,675,303,84,891,835,350,908,69,900,191,322,341,638,895,0,418,214,150,177,776,654,375,326,452,141,37,240,633,570,647,201,485,319,432,914,469,717,599,788,898,466,349,734,390,2,450,361,151,962,561,551,728,951,431,202,283,282,268,823,950,230,922,419,986,234,777,289,909,75,104,193,338,849,937,973,311,705,455,987,600,212,552,810,735,144,22,228,488,690,100,220,758,439,422,438,701,457,370,136,619,853,935,796,604,409,634,512,183,123,828,522,74,288,541,281,843,517,743,672,617,211,794,981,377,32,718,683,280,755,356,181,882,441,251,156,308,237,610,302,711,415,381,46,983,573,147,178,197,542,131,290,911,752,612,301,887,712,143,317,650,679,568,699,99,791,1,534,912,594,3,656,127,665,725,139,133,122,775,187,124,262,543,831,198,904,772,516,470,997,491,745,113,602,128,905,952,64,916,767,408,81,132,572,142,805,618,399,626,906,874,538,643,357,276,427,30,435,306,219,629,267,94,832,170,391,765,472,658,246,848,112,192,16,929,50,379,458,497,190,484,713,315,97,703,698,800,433,468,940,923,414,702,885,787,179,330,492,529,616,60,613,169,684,72,313,482,461,180,481,444,917,537,978,989,430,429,210,614,367,514,719,68,546,244,312,489,606,786,854,756,903,369,931,407,252,939,386,668,476,263,106,924,571,261,88,333,913,670,660,892,663,298,217,816,374,213,92,525,208,245,380,556,564,296,434,440,354,519,901,456,999,273,657,623,547,216,591,799,346,540,487,774,846,812,259,372,221,160,305,65,260,300,18,746,29,550,89,731,477,173,222,890,402,948,995,66,870,368,804,837,674,226,446,840,256,166,806,229,706,930,328,101,994,928,172,566,242,416,454,644,536,622,148,778,35,120,942,243,864,819,163,318,733,910,760,695,387,98,688,825,691,48,876,639,782,741,877,463,773,5,645,902,970,927,533,919,697,145,855,515,847,511,153,51,730,453,401,635,925,601,158,958,21,165,348,640,636,883,310,789,27,67,61,666,595,291,385,651,625,954,235,417,329,532,507,562,114,611,549,750,721,673,991,523,531,71,797,732,155,974,959,486,248,274,961,790,436,771,503,185,195,528,15,392,479,17,677,813,520,406,576,462,527,478,899,39,382,159,998,584,969,944,646,783,669,642,682,560,845,569,565,95,963,577,510,749,692,239,360,465,342,857,423,271,278,554,352,118,265,264,224,579,314,715,696,344,25,57,82,982,921,188,821,979,945,667,471,964,976,985,838,176,851,941,337,992,567,483,293,693,980,403,238,437,655,78,26,28,628,694,596,641,509,866,723,975,878,253,86,343,272,585,459,990,993,164,518,724,254,395,545,152,77,722,109,592,661,79,4,753,933,257,580,33,590,34,671,154,295,335,6,809,299,686]","arrowleft","true","0","12","167","1000","[""0017_N1000_K0167_CLIQUE"",""0099_N1000_K0167_NOCLIQUE""]"
"audio-keyboard-response","78","180118","0.0-64.0-0.0-1.0","6464d1a0e2462ab7b78661e7","67ed0ec48e071cae26115168","04r1udhn9j0d","","","","","","","","","","","","","","","","","","","","","","null","audio_feedback/right/coin01.mp3","null","","","","0","12","167","1000","[""0017_N1000_K0167_CLIQUE"",""0099_N1000_K0167_NOCLIQUE""]"
"canvas-keyboard-response","79","181909","0.0-65.0-0.0-0.0","6464d1a0e2462ab7b78661e7","67ed0ec48e071cae26115168","04r1udhn9j0d","","","","","","","","","","","","","","","","","","","","","","651","","arrowright","[875,622,730,813,690,203,226,935,802,973,131,893,249,66,687,11,798,546,154,562,771,857,140,142,205,630,453,280,318,18,927,222,674,951,968,780,13,984,815,399,694,928,470,625,126,979,147,293,846,82,871,488,810,107,259,800,234,575,396,966,186,606,320,532,62,346,598,198,878,106,653,864,330,572,443,888,722,433,209,279,787,548,465,822,359,500,882,449,420,227,678,458,703,524,736,715,378,749,42,402,897,741,314,294,162,52,441,743,567,174,356,70,130,854,201,519,72,177,701,922,684,405,717,667,608,86,768,850,455,303,581,285,867,501,587,109,495,896,903,189,647,220,251,195,609,464,290,23,557,569,100,597,115,712,881,258,160,334,210,31,332,467,263,643,84,494,595,393,164,840,108,216,394,577,144,785,14,777,44,906,642,97,816,908,301,869,770,967,432,456,612,348,427,806,801,447,423,392,666,245,204,148,551,375,117,626,895,366,765,367,644,544,781,34,17,695,119,92,664,110,462,165,530,514,460,439,56,971,291,192,343,839,153,584,88,91,260,937,436,860,69,316,59,790,849,969,409,412,457,874,94,718,905,175,65,965,538,949,430,610,900,319,870,916,7,698,924,132,934,357,181,252,19,461,618,948,300,483,325,184,550,868,30,48,862,543,789,448,497,988,613,560,803,620,169,361,383,820,952,296,362,26,592,837,167,825,554,568,81,369,268,706,218,39,116,190,397,113,991,338,468,958,851,275,654,779,659,354,883,998,954,535,487,835,735,63,349,689,563,236,382,77,594,909,101,772,645,962,292,156,950,476,859,64,78,376,573,682,283,910,955,549,688,87,655,221,593,329,746,404,305,574,230,747,953,335,600,764,4,513,553,733,795,121,734,892,327,588,71,173,35,767,844,591,774,486,129,133,570,27,80,22,526,697,619,876,371,491,390,732,424,60,85,95,805,79,266,342,479,212,437,0,493,828,469,5,555,429,324,311,104,199,57,73,272,823,265,791,607,731,933,475,541,945,668,921,752,386,274,552,907,407,374,671,536,351,649,282,818,696,321,135,193,76,866,942,25,842,398,586,861,482,919,886,196,547,124,542,578,380,817,365,58,959,796,784,636,865,411,322,264,373,656,10,957,385,141,363,809,853,163,974,262,811,932,639,515,724,737,873,408,683,228,417,915,726,12,599,202,995,917,757,714,758,269,278,972,559,523,832,856,172,721,603,685,418,422,589,901,191,793,841,428,759,435,323,105,831,761,120,410,913,328,826,391,580,604,938,576,267,623,997,983,118,284,750,299,719,33,337,490,286,728,899,783,215,477,830,605,253,880,517,489,679,845,15,987,159,450,506,403,890,49,310,904,663,243,627,502,415,686,445,171,9,2,827,545,977,797,438,179,96,112,887,206,54,271,631,248,775,3,986,571,20,451,50,993,602,401,539,384,641,276,481,340,762,419,742,648,122,368,6,646,333,914,652,723,61,692,677,139,504,855,669,611,700,176,223,32,665,510,168,188,634,309,38,40,556,819,520,565,211,537,807,940,261,961,522,24,821,980,970,273,200,114,350,999,74,484,635,751,824,729,760,812,699,662,705,158,339,474,313,528,288,675,341,614,640,898,745,224,918,241,707,978,754,207,345,930,16,302,939,183,151,178,225,471,281,941,911,336,8,480,738,799,213,943,708,89,459,858,925,353,128,185,834,773,651,829,214,485,233,833,912,217,28,566,582,963,720,256,579,521,615,982,111,838,304,231,814,511,638,136,885,794,525,676,709,975,123,197,889,43,406,364,244,507,585,358,776,297,67,208,902,657,289,389,161,744,716,769,434,143,51,149,527,416,672,29,509,145,98,976,786,632,681,931,307,704,508,498,848,808,629,413,583,246,247,372,152,518,891,929,529,326,388,702,45,194,503,944,400,727,792,617,155,270,693,492,379,41,254,138,473,157,68,670,36,219,90,711,426,650,298,633,180,347,561,981,739,691,994,134,478,863,387,425,466,53,985,250,661,238,753,75,884,512,852,166,295,308,182,621,355,242,658,414,964,102,946,505,496,1,315,317,381,836,879,847,516,756,725,125,755,616,990,150,748,360,956,287,237,766,877,127,989,894,452,992,446,395,187,344,170,660,947,710,673,463,533,239,352,377,920,232,103,590,628,872,331,277,926,431,499,229,257,37,47,55,146,596,624,472,782,778,21,442,923,370,558,444,99,680,763,83,531,804,255,46,601,936,637,540,788,996,843,564,960,421,235,713,240,740,454,306,137,93,312,534,440]","arrowright","true","0","13","167","1000","[""0045_N1000_K0167_NOCLIQUE"",""0026_N1000_K0167_CLIQUE""]"
"audio-keyboard-response","80","182897","0.0-65.0-0.0-1.0","6464d1a0e2462ab7b78661e7","67ed0ec48e071cae26115168","04r1udhn9j0d","","","","","","","","","","","","","","","","","","","","","","null","audio_feedback/right/coin01.mp3","null","","","","0","13","167","1000","[""0045_N1000_K0167_NOCLIQUE"",""0026_N1000_K0167_CLIQUE""]"
"canvas-keyboard-response","81","184638","0.0-66.0-0.0-0.0","6464d1a0e2462ab7b78661e7","67ed0ec48e071cae26115168","04r1udhn9j0d","","","","","","","","","","","","","","","","","","","","","","677","","arrowleft","[469,122,67,127,510,646,692,332,909,146,494,228,961,978,748,471,670,9,32,721,536,505,500,660,408,715,232,414,489,979,333,44,858,609,488,818,807,482,855,970,897,410,43,433,951,442,838,819,523,814,891,982,806,94,37,697,87,608,295,125,49,548,889,681,368,166,93,89,895,743,568,298,459,964,190,714,102,138,863,735,213,443,793,776,478,36,528,719,825,151,516,800,571,856,287,297,590,723,644,857,823,98,60,607,270,713,509,40,560,96,449,319,173,282,796,666,542,683,651,224,703,284,192,920,31,307,693,620,876,379,752,341,626,492,591,342,976,728,152,972,932,859,604,971,349,918,539,20,553,256,244,565,538,169,968,916,55,378,117,373,375,97,791,738,230,636,530,340,969,669,99,631,486,946,655,875,768,58,398,684,821,39,470,602,389,286,92,300,948,986,698,774,239,762,154,324,927,10,639,744,833,277,19,706,479,988,348,934,425,430,338,229,88,756,832,588,100,908,468,899,227,499,550,996,893,247,780,827,293,566,803,399,403,106,110,309,533,675,129,629,686,950,59,145,260,765,45,464,829,846,63,435,405,704,861,657,792,586,439,475,283,673,406,163,437,360,194,862,402,320,678,317,745,165,711,222,305,914,794,585,450,892,308,3,878,911,186,994,524,722,696,710,851,786,141,240,834,386,272,121,811,707,925,384,983,161,966,541,817,1,321,124,869,557,329,249,16,718,653,865,147,234,95,346,779,812,600,291,135,720,999,954,844,543,928,845,772,225,853,915,205,11,771,423,155,254,156,132,390,18,659,271,886,535,926,269,874,108,345,265,217,582,357,223,491,617,502,630,760,281,170,82,712,759,461,671,396,643,13,763,473,549,563,404,246,518,493,522,428,211,849,79,941,242,569,290,603,761,880,702,160,85,632,677,245,708,737,555,520,958,913,725,596,153,649,444,370,637,172,115,937,196,296,650,511,440,487,628,416,611,942,593,841,292,848,111,634,903,547,75,251,330,808,625,336,128,339,766,30,315,137,912,525,6,447,354,25,327,74,429,455,739,183,415,448,485,367,901,285,76,279,652,413,638,33,674,581,57,358,253,29,599,648,998,235,981,810,208,105,393,218,898,91,558,456,65,672,148,965,51,233,769,952,323,387,261,219,873,294,665,262,451,896,189,574,534,592,938,701,730,709,753,259,778,328,583,276,343,977,119,813,615,556,130,366,274,7,38,465,605,881,922,131,515,236,432,816,446,248,158,467,751,397,618,214,755,980,201,109,126,623,864,987,757,507,847,275,887,642,381,921,56,784,885,484,436,380,799,805,374,883,140,773,237,409,391,797,310,967,199,633,689,870,113,103,180,182,134,726,852,27,577,995,610,314,741,957,685,266,453,820,601,641,318,288,175,496,690,434,955,257,676,724,472,716,383,798,17,888,8,843,50,930,936,325,476,587,306,344,746,871,732,48,0,727,142,622,426,371,790,789,580,866,273,241,782,828,997,77,546,412,197,635,52,335,764,178,302,202,460,552,243,490,28,312,149,532,2,112,884,66,606,422,369,842,466,907,717,46,498,263,584,14,162,207,215,647,975,612,495,627,904,195,210,441,661,5,662,910,935,322,267,64,278,200,682,663,221,385,191,953,268,985,742,890,438,4,688,179,212,364,311,940,193,545,187,614,667,69,512,352,788,139,699,839,42,203,840,868,570,83,750,956,90,362,831,513,407,34,118,691,506,640,452,26,501,992,481,392,919,679,53,527,424,334,824,973,594,23,561,70,734,960,157,359,624,562,517,188,184,167,700,41,301,80,621,787,303,150,993,347,350,445,575,564,822,837,923,457,503,24,804,537,508,136,86,933,356,353,401,687,902,363,216,802,206,809,695,299,835,337,280,740,906,226,668,331,939,463,767,355,733,931,944,198,71,578,483,176,770,836,519,15,616,785,101,400,945,949,795,120,164,573,477,382,658,78,144,521,376,394,388,114,419,462,123,258,826,749,351,544,781,551,185,947,905,480,313,420,894,867,174,576,731,73,361,736,168,529,963,504,613,656,421,879,372,929,567,411,250,377,514,877,860,900,21,943,962,143,559,990,54,171,116,754,850,417,645,427,61,917,872,497,454,159,747,579,554,540,22,252,365,12,474,694,680,959,619,597,991,526,458,84,204,255,72,801,589,664,181,68,177,238,783,104,595,133,989,654,854,316,572,775,531,395,209,431,35,47,81,289,777,231,598,984,304,418,107,62,974,326,882,758,264,220,830,815,705,729,924]","arrowleft","true","0","14","150","1000","[""0004_N1000_K0150_CLIQUE"",""0046_N1000_K0150_NOCLIQUE""]"
"audio-keyboard-response","82","185637","0.0-66.0-0.0-1.0","6464d1a0e2462ab7b78661e7","67ed0ec48e071cae26115168","04r1udhn9j0d","","","","","","","","","","","","","","","","","","","","","","null","audio_feedback/right/coin01.mp3","null","","","","0","14","150","1000","[""0004_N1000_K0150_CLIQUE"",""0046_N1000_K0150_NOCLIQUE""]"
"canvas-keyboard-response","83","187384","0.0-67.0-0.0-0.0","6464d1a0e2462ab7b78661e7","67ed0ec48e071cae26115168","04r1udhn9j0d","","","","","","","","","","","","","","","","","","","","","","835","","arrowleft","[252,441,103,88,823,368,974,44,538,674,662,981,654,149,796,236,474,478,597,798,625,941,204,370,718,50,611,114,536,583,260,268,225,379,426,944,577,89,1,801,108,686,136,7,294,436,102,360,808,62,508,906,365,498,821,517,750,567,719,735,15,739,681,805,834,70,748,24,554,111,27,175,209,487,727,278,574,263,590,90,481,80,342,765,137,526,328,578,255,309,701,190,800,170,920,506,579,440,837,934,999,511,542,406,120,687,804,53,399,46,693,232,738,425,172,780,665,907,230,272,716,970,438,240,558,186,966,300,211,547,482,412,510,193,128,55,565,167,251,301,48,334,389,690,784,916,667,835,548,879,706,60,773,417,622,91,67,766,659,710,483,468,276,660,730,924,933,296,458,598,744,737,732,668,676,381,983,812,939,972,846,861,904,68,705,439,581,514,761,551,669,522,3,692,107,828,566,93,777,244,977,697,729,6,599,894,724,346,135,620,267,927,892,657,395,666,943,321,29,49,507,410,115,850,868,518,831,64,99,503,54,758,496,134,741,343,980,903,820,995,356,866,431,476,249,52,726,698,707,910,570,261,177,623,348,979,860,840,793,703,911,220,290,283,609,786,333,682,10,369,212,869,178,630,18,838,971,749,218,435,463,105,250,367,722,813,221,889,378,600,825,253,849,877,110,467,841,473,472,455,214,822,325,396,928,4,142,61,615,878,124,712,973,764,238,450,57,9,155,75,256,373,593,486,258,409,116,34,16,117,222,324,345,376,857,809,753,653,819,929,460,610,200,847,782,956,393,797,890,858,72,347,307,284,118,672,736,119,152,192,372,582,723,424,490,643,559,405,227,78,65,162,0,993,349,806,286,282,143,917,994,887,313,975,613,501,959,366,79,239,488,990,335,277,164,100,783,94,437,359,997,206,644,32,432,891,146,400,897,770,148,131,504,634,228,444,576,92,95,829,386,340,709,85,183,848,998,112,951,902,899,374,154,614,976,715,81,491,480,767,140,680,988,967,479,650,772,830,86,17,580,289,624,539,652,270,326,851,150,742,363,562,338,291,319,45,785,637,572,640,802,446,789,728,407,357,158,842,684,361,913,954,123,708,459,182,144,818,392,921,451,639,311,66,247,418,523,499,545,106,964,302,530,876,664,429,528,540,893,216,863,312,207,779,141,298,139,948,569,322,299,388,882,497,656,165,769,199,673,586,151,168,442,884,678,591,799,274,602,185,516,316,746,564,962,814,494,986,375,201,196,428,306,853,873,229,957,556,791,423,157,571,854,8,31,414,699,402,946,126,816,776,159,242,259,885,683,308,922,720,679,717,691,743,881,627,292,984,965,371,807,257,226,519,768,541,833,174,734,23,265,512,888,663,826,350,836,173,953,132,237,989,864,354,855,385,415,362,293,364,883,594,632,968,330,430,827,756,19,546,553,465,266,457,532,636,573,982,210,874,588,671,493,525,626,931,872,658,655,462,900,752,895,285,500,26,696,587,792,803,875,337,35,176,37,198,919,353,938,584,471,264,642,295,689,195,608,790,843,358,856,923,248,254,21,787,38,394,269,235,845,648,987,58,751,557,810,166,996,711,171,824,747,935,695,647,947,774,11,870,217,213,179,56,763,314,73,43,762,521,470,771,926,832,279,909,331,161,760,138,649,47,945,781,133,725,757,397,382,42,544,127,641,205,905,871,241,74,524,416,702,336,219,109,327,280,543,40,97,262,589,69,203,233,912,515,633,537,685,520,619,592,14,963,422,129,985,880,505,28,817,355,317,950,495,607,125,452,323,271,555,638,98,616,492,949,130,714,932,754,867,961,2,39,449,631,560,104,489,404,852,795,318,83,651,621,113,305,156,601,33,87,421,713,234,13,153,475,320,189,145,585,447,552,731,352,575,595,288,160,704,420,443,694,147,231,509,351,246,223,84,896,401,529,531,527,568,243,778,898,51,445,612,82,755,930,59,245,918,844,12,788,839,413,281,387,71,969,740,646,485,605,5,865,454,533,187,535,661,811,901,390,675,180,101,859,332,339,297,978,25,629,377,122,22,427,936,384,188,341,41,628,202,937,96,617,408,942,645,886,992,287,181,380,275,925,915,20,391,991,383,184,550,303,456,36,77,745,502,958,484,688,433,604,513,914,775,952,215,561,466,30,273,403,721,940,670,677,603,344,815,461,63,469,194,398,596,163,759,700,329,310,464,411,191,549,534,76,733,419,121,635,955,477,434,618,448,862,960,908,794,453,606,224,563,197,315,304,169,208]","arrowleft","true","0","15","150","1000","[""0097_N1000_K0150_CLIQUE"",""0066_N1000_K0150_NOCLIQUE""]"
"audio-keyboard-response","84","188377","0.0-67.0-0.0-1.0","6464d1a0e2462ab7b78661e7","67ed0ec48e071cae26115168","04r1udhn9j0d","","","","","","","","","","","","","","","","","","","","","","null","audio_feedback/right/coin01.mp3","null","","","","0","15","150","1000","[""0097_N1000_K0150_CLIQUE"",""0066_N1000_K0150_NOCLIQUE""]"
"canvas-keyboard-response","85","190369","0.0-68.0-0.0-0.0","6464d1a0e2462ab7b78661e7","67ed0ec48e071cae26115168","04r1udhn9j0d","","","","","","","","","","","","","","","","","","","","","","967","","arrowright","[68,385,298,528,816,964,883,520,357,6,233,492,300,787,114,927,800,147,773,150,582,571,342,656,345,963,488,273,603,654,111,443,288,234,351,76,945,218,729,238,872,329,966,814,478,888,642,121,426,73,988,15,274,820,257,848,934,801,506,837,840,765,41,701,751,671,599,330,706,254,82,40,466,753,632,204,570,903,56,731,226,456,485,123,208,199,32,804,13,472,662,726,576,709,155,508,676,640,555,745,189,687,908,171,74,248,986,760,517,634,173,653,294,797,8,340,444,565,589,175,37,944,222,985,757,636,950,446,916,494,160,560,752,544,515,836,675,239,432,639,630,658,635,401,897,693,546,725,363,542,392,264,900,608,597,910,796,644,352,412,433,230,822,287,609,695,779,281,14,289,359,689,711,886,860,518,371,895,596,322,34,768,350,585,899,63,112,67,605,240,145,27,776,525,803,21,88,843,93,997,377,858,105,304,122,980,16,301,303,124,992,280,95,641,51,881,202,793,368,670,220,943,898,0,166,159,405,970,418,614,522,404,387,526,271,365,85,595,442,593,971,416,261,501,47,956,591,784,915,673,495,770,902,672,904,30,882,376,791,733,979,846,164,702,831,314,734,409,547,926,232,31,461,497,728,486,502,559,735,450,743,43,812,994,7,650,561,161,457,724,23,2,451,65,564,772,309,4,618,441,253,617,214,592,885,60,519,736,417,938,393,588,691,645,824,250,719,268,972,245,834,806,360,755,548,984,297,573,120,866,331,231,210,200,887,623,328,422,746,144,878,601,932,969,750,172,179,59,458,109,851,228,626,191,185,947,117,464,403,323,627,815,919,604,849,708,400,473,366,827,467,513,337,219,72,177,383,993,308,999,946,643,707,748,509,336,62,569,212,236,704,856,380,445,839,842,828,799,923,427,133,679,668,440,921,572,216,810,995,638,244,859,430,537,96,209,292,516,291,187,841,315,128,875,108,367,35,817,775,379,967,470,579,132,431,896,348,142,646,137,598,408,80,652,907,680,977,558,3,876,255,152,660,312,54,39,61,615,125,313,845,909,613,959,741,42,989,215,188,327,854,739,545,106,939,19,990,424,566,740,580,965,712,835,625,684,503,454,769,420,651,58,391,116,512,913,295,24,64,267,277,115,659,699,795,958,524,864,407,374,973,491,196,243,942,263,808,686,249,498,976,703,935,669,480,737,918,375,38,960,607,259,140,25,496,657,521,174,382,802,201,930,55,805,931,578,857,282,586,57,949,50,535,577,334,131,167,103,694,912,855,229,727,830,924,567,483,474,621,869,453,256,83,29,766,807,237,937,794,127,386,163,170,293,272,84,390,713,156,975,217,527,590,716,771,879,46,531,9,968,610,698,99,428,369,790,549,421,677,411,52,469,786,774,696,661,242,270,45,346,290,138,730,92,536,952,439,20,941,850,429,448,302,225,870,504,893,705,505,556,929,742,877,688,324,11,756,343,628,940,378,307,221,326,203,459,664,749,207,283,838,211,781,732,143,66,399,538,396,130,165,141,540,311,98,154,104,583,685,871,955,819,861,325,782,468,462,5,655,974,847,978,53,284,683,227,867,811,620,933,922,647,406,81,690,452,194,629,905,529,482,826,715,890,594,587,69,747,86,192,718,511,12,49,100,413,825,962,667,332,388,476,341,481,853,91,759,372,178,18,991,246,169,162,319,278,36,692,477,649,134,389,648,306,954,354,361,996,373,821,139,761,563,901,364,146,666,262,510,792,78,738,714,75,710,198,148,532,631,71,247,97,722,151,397,891,206,183,355,181,358,936,584,611,1,395,186,135,48,606,213,550,455,500,906,552,394,266,437,17,717,917,436,285,118,852,920,987,539,880,721,157,410,884,697,299,574,223,763,402,182,10,195,892,868,499,533,335,911,438,798,490,562,720,349,79,754,602,818,823,557,339,678,463,77,184,622,541,600,190,767,460,785,89,356,530,957,276,26,279,193,471,265,809,251,928,320,948,176,296,310,762,269,682,619,581,829,90,101,344,415,353,568,317,487,507,362,663,862,119,783,863,168,110,321,241,33,832,665,874,333,813,423,286,681,777,318,419,489,553,305,637,258,575,700,493,136,381,833,235,447,780,180,435,465,434,316,612,789,28,723,197,889,894,425,616,981,844,951,370,107,551,44,94,543,449,788,914,534,252,953,87,70,758,347,475,865,961,384,744,523,982,275,983,414,205,398,338,514,102,149,260,778,224,484,153,126,129,554,479,22,674,113,998,624,925,633,764,158,873]","arrowright","true","0","16","133","1000","[""0065_N1000_K0133_NOCLIQUE"",""0016_N1000_K0133_CLIQUE""]"
"audio-keyboard-response","86","191357","0.0-68.0-0.0-1.0","6464d1a0e2462ab7b78661e7","67ed0ec48e071cae26115168","04r1udhn9j0d","","","","","","","","","","","","","","","","","","","","","","null","audio_feedback/right/coin01.mp3","null","","","","0","16","133","1000","[""0065_N1000_K0133_NOCLIQUE"",""0016_N1000_K0133_CLIQUE""]"
