"trial_type","trial_index","time_elapsed","internal_node_id","subject_id","study_id","session_id","width","height","webaudio","browser","browser_version","mobile","os","fullscreen","vsync_rate","webcam","microphone","value","screenWidth","screenHeight","stimuliVerticalProportion","success","timeout","failed_images","failed_audio","failed_video","view_history","rt","stimulus","response","nodes_order","correct_response","correct","block_index","presentation_index","clique_size","graph_size","graphs_names"
"pavlovia","0","413","0.0-0.0","","","","","","","","","","","","","","","","","","","","","","","","","","","","","","","","","","",""
"browser-check","1","1427","0.0-1.0","","","","1906","944","true","chrome","133.0.0","false","Linux","true","59.99","true","true","","","","","","","","","","","","","","","","","","","","",""
"call-function","2","1530","0.0-2.0","","","","","","","","","","","","","","","","1920","1080","0.93","","","","","","","","","","","","","","","","",""
"preload","3","1567","0.0-3.0","","","","","","","","","","","","","","","","","","","true","false","[]","[]","[]","","","","","","","","","","","",""
"instructions","4","7201","0.0-4.0","","","","","","","","","","","","","","","","","","","","","","","","[{""page_index"":0,""viewing_time"":3987},{""page_index"":1,""viewing_time"":1644}]","5631","","","","","","","","","",""
"html-keyboard-response","5","9279","0.0-5.0-0.0","","","","","","","","","","","","","","","","","","","","","","","","","2078","By accepting to participate in this study, you confirm:
                <p style='text-align:left'>
                    - That I have carefully read the explanations regarding this study and the entire experimental procedure;<br>
                    - That I have been informed about the aims and objectives of this research;<br>
                    - That I am aware of the inconveniences, if any, caused by the experiment;<br>
                    - That I have received satisfactory assurances regarding the confidentiality of the information obtained from the examination of my own person; <br>
                    - That I am aware that I can withdraw at any stage of the study.
                <p>
                <span style=""color: #808080"">
                    Press [Y] to <strong>accept</strong>.
                </span> <br>
                <span style=""color: #808080"">
                    Press [N] to <strong>refuse</strong>.
                </span>","y","","","","","","","",""
"survey-html-form","6","35525","0.0-6.0","","","","","","","","","","","","","","","","","","","","","","","","","26242","","{""gender"":""male"",""age"":""38""}","","","","","","","",""
"preload","7","35937","0.0-7.0","","","","","","","","","","","","","","","","","","","true","false","[]","[]","[]","","","","","","","","","","","",""
"instructions","8","286662","0.0-8.0","","","","","","","","","","","","","","","","","","","","","","","","[{""page_index"":0,""viewing_time"":3163},{""page_index"":1,""viewing_time"":1848},{""page_index"":2,""viewing_time"":1462},{""page_index"":3,""viewing_time"":1966},{""page_index"":4,""viewing_time"":3995},{""page_index"":3,""viewing_time"":390},{""page_index"":4,""viewing_time"":380},{""page_index"":3,""viewing_time"":422},{""page_index"":4,""viewing_time"":456},{""page_index"":5,""viewing_time"":1991},{""page_index"":6,""viewing_time"":2074},{""page_index"":7,""viewing_time"":1814},{""page_index"":8,""viewing_time"":3180},{""page_index"":9,""viewing_time"":3063},{""page_index"":10,""viewing_time"":1928},{""page_index"":11,""viewing_time"":1893},{""page_index"":12,""viewing_time"":1890},{""page_index"":13,""viewing_time"":1636},{""page_index"":14,""viewing_time"":1903},{""page_index"":15,""viewing_time"":1730},{""page_index"":16,""viewing_time"":1485},{""page_index"":17,""viewing_time"":1274},{""page_index"":18,""viewing_time"":1914},{""page_index"":19,""viewing_time"":1583},{""page_index"":20,""viewing_time"":1548},{""page_index"":21,""viewing_time"":2827},{""page_index"":22,""viewing_time"":1658},{""page_index"":23,""viewing_time"":1055},{""page_index"":24,""viewing_time"":865},{""page_index"":25,""viewing_time"":1593},{""page_index"":26,""viewing_time"":1846},{""page_index"":27,""viewing_time"":36933},{""page_index"":28,""viewing_time"":3154},{""page_index"":29,""viewing_time"":2231},{""page_index"":30,""viewing_time"":1395},{""page_index"":31,""viewing_time"":3228},{""page_index"":32,""viewing_time"":6773},{""page_index"":33,""viewing_time"":4953},{""page_index"":34,""viewing_time"":2357},{""page_index"":35,""viewing_time"":427},{""page_index"":34,""viewing_time"":274},{""page_index"":33,""viewing_time"":372},{""page_index"":34,""viewing_time"":390},{""page_index"":33,""viewing_time"":390},{""page_index"":34,""viewing_time"":483},{""page_index"":35,""viewing_time"":4807},{""page_index"":36,""viewing_time"":2439},{""page_index"":37,""viewing_time"":2443},{""page_index"":36,""viewing_time"":353},{""page_index"":37,""viewing_time"":548},{""page_index"":38,""viewing_time"":2354},{""page_index"":39,""viewing_time"":5245},{""page_index"":40,""viewing_time"":4670},{""page_index"":39,""viewing_time"":7798},{""page_index"":40,""viewing_time"":1810},{""page_index"":41,""viewing_time"":1528},{""page_index"":42,""viewing_time"":2307},{""page_index"":43,""viewing_time"":8187},{""page_index"":44,""viewing_time"":2209},{""page_index"":45,""viewing_time"":11946},{""page_index"":46,""viewing_time"":1603},{""page_index"":47,""viewing_time"":2025},{""page_index"":48,""viewing_time"":3283},{""page_index"":49,""viewing_time"":2212},{""page_index"":50,""viewing_time"":55341},{""page_index"":51,""viewing_time"":7285},{""page_index"":50,""viewing_time"":204},{""page_index"":49,""viewing_time"":630},{""page_index"":50,""viewing_time"":157},{""page_index"":51,""viewing_time"":1153}]","250724","","","","","","","","","",""
"instructions","9","292135","0.0-9.0","","","","","","","","","","","","","","","","","","","","","","","","[{""page_index"":0,""viewing_time"":5472}]","5472","","","","","","","","","",""
"preload","10","292761","0.0-10.0","","","","","","","","","","","","","","","","","","","true","false","[]","[]","[]","","","","","","","","","","","",""
"image-keyboard-response","11","296102","0.0-11.0","","","","","","","","","","","","","","","","","","","","","","","","","3337","tutorial/p_reduce/task_familiarization_images/part 1/01_N160_K90_cliqueRight_question1.PNG"," ","","","","","","","",""
"image-keyboard-response","12","296623","0.0-12.0","","","","","","","","","","","","","","","","","","","","","","","","","519","tutorial/p_reduce/task_familiarization_images/part 1/02_N160_K90_cliqueRight_question2.PNG"," ","","","","","","","",""
"image-keyboard-response","13","298942","0.0-13.0","","","","","","","","","","","","","","","","","","","","","","","","","2316","tutorial/p_reduce/task_familiarization_images/part 1/03_N160_K90_cliqueRight_question3.PNG","arrowright","","","","","","","",""
"image-keyboard-response","14","300022","0.0-14.0","","","","","","","","","","","","","","","","","","","","","","","","","1076","tutorial/p_reduce/task_familiarization_images/part 1/04_N160_K90_cliqueRight_solution.PNG"," ","","","","","","","",""
"image-keyboard-response","15","302341","0.0-15.0","","","","","","","","","","","","","","","","","","","","","","","","","2317","tutorial/p_reduce/task_familiarization_images/part 1/05_N160_K65_cliqueRight_question1.PNG"," ","","","","","","","",""
"image-keyboard-response","16","302945","0.0-16.0","","","","","","","","","","","","","","","","","","","","","","","","","602","tutorial/p_reduce/task_familiarization_images/part 1/06_N160_K65_cliqueRight_question2.PNG"," ","","","","","","","",""
"image-keyboard-response","17","305237","0.0-17.0","","","","","","","","","","","","","","","","","","","","","","","","","2290","tutorial/p_reduce/task_familiarization_images/part 1/07_N160_K65_cliqueRight_question3.PNG","arrowright","","","","","","","",""
"image-keyboard-response","18","308096","0.0-18.0","","","","","","","","","","","","","","","","","","","","","","","","","2857","tutorial/p_reduce/task_familiarization_images/part 1/08_N160_K65_cliqueRight_solution.PNG"," ","","","","","","","",""
"image-keyboard-response","19","313348","0.0-19.0","","","","","","","","","","","","","","","","","","","","","","","","","5250","tutorial/p_reduce/task_familiarization_images/part 1/09_N160_K50_cliqueLeft_question1.PNG"," ","","","","","","","",""
"image-keyboard-response","20","314686","0.0-20.0","","","","","","","","","","","","","","","","","","","","","","","","","1336","tutorial/p_reduce/task_familiarization_images/part 1/10_N160_K50_cliqueLeft_question2.PNG"," ","","","","","","","",""
"image-keyboard-response","21","317062","0.0-21.0","","","","","","","","","","","","","","","","","","","","","","","","","2373","tutorial/p_reduce/task_familiarization_images/part 1/11_N160_K50_cliqueLeft_question3.PNG","arrowleft","","","","","","","",""
"image-keyboard-response","22","318185","0.0-22.0","","","","","","","","","","","","","","","","","","","","","","","","","1121","tutorial/p_reduce/task_familiarization_images/part 1/12_N160_K50_cliqueLeft_solution.PNG"," ","","","","","","","",""
"image-keyboard-response","23","319605","0.0-23.0","","","","","","","","","","","","","","","","","","","","","","","","","1408","tutorial/p_reduce/task_familiarization_images/part 1/13_N160_K80_cliqueLeft_question1.PNG"," ","","","","","","","",""
"image-keyboard-response","24","319872","0.0-24.0","","","","","","","","","","","","","","","","","","","","","","","","","265","tutorial/p_reduce/task_familiarization_images/part 1/14_N160_K80_cliqueLeft_question2.PNG"," ","","","","","","","",""
"image-keyboard-response","25","381816","0.0-25.0","","","","","","","","","","","","","","","","","","","","","","","","","61943","tutorial/p_reduce/task_familiarization_images/part 1/15_N160_K80_cliqueLeft_question3.PNG","arrowleft","","","","","","","",""
"image-keyboard-response","26","382976","0.0-26.0","","","","","","","","","","","","","","","","","","","","","","","","","1158","tutorial/p_reduce/task_familiarization_images/part 1/16_N160_K80_cliqueLeft_solution.PNG"," ","","","","","","","",""
"image-keyboard-response","27","385349","0.0-27.0","","","","","","","","","","","","","","","","","","","","","","","","","2371","tutorial/p_reduce/task_familiarization_images/part 1/17_N160_K40_cliqueRight_question1.PNG"," ","","","","","","","",""
"image-keyboard-response","28","386572","0.0-28.0","","","","","","","","","","","","","","","","","","","","","","","","","1221","tutorial/p_reduce/task_familiarization_images/part 1/18_N160_K40_cliqueRight_question2.PNG"," ","","","","","","","",""
"image-keyboard-response","29","388773","0.0-29.0","","","","","","","","","","","","","","","","","","","","","","","","","2199","tutorial/p_reduce/task_familiarization_images/part 1/19_N160_K40_cliqueRight_question3.PNG","arrowright","","","","","","","",""
"image-keyboard-response","30","390021","0.0-30.0","","","","","","","","","","","","","","","","","","","","","","","","","1246","tutorial/p_reduce/task_familiarization_images/part 1/20_N160_K40_cliqueRight_solution.PNG"," ","","","","","","","",""
"image-keyboard-response","31","390649","0.0-31.0","","","","","","","","","","","","","","","","","","","","","","","","","626","tutorial/p_reduce/task_familiarization_images/part 1/21_N160_K70_cliqueLeft_question1.PNG"," ","","","","","","","",""
"image-keyboard-response","32","391076","0.0-32.0","","","","","","","","","","","","","","","","","","","","","","","","","424","tutorial/p_reduce/task_familiarization_images/part 1/22_N160_K70_cliqueLeft_question2.PNG"," ","","","","","","","",""
"image-keyboard-response","33","391788","0.0-33.0","","","","","","","","","","","","","","","","","","","","","","","","","710","tutorial/p_reduce/task_familiarization_images/part 1/23_N160_K70_cliqueLeft_question3.PNG","arrowleft","","","","","","","",""
"image-keyboard-response","34","392714","0.0-34.0","","","","","","","","","","","","","","","","","","","","","","","","","925","tutorial/p_reduce/task_familiarization_images/part 1/24_N160_K70_cliqueLeft_solution.PNG"," ","","","","","","","",""
"preload","35","393072","0.0-35.0","","","","","","","","","","","","","","","","","","","true","false","[]","[]","[]","","","","","","","","","","","",""
"image-keyboard-response","36","398086","0.0-36.0","","","","","","","","","","","","","","","","","","","","","","","","","5014","tutorial/p_reduce/task_familiarization_images/part 2/01_N160_K80_cliqueLeft_withFeedback_1.PNG"," ","","","","","","","",""
"image-keyboard-response","37","402756","0.0-37.0","","","","","","","","","","","","","","","","","","","","","","","","","4657","tutorial/p_reduce/task_familiarization_images/part 2/02_N160_K80_cliqueLeft_withFeedback_2.PNG"," ","","","","","","","",""
"image-keyboard-response","38","405177","0.0-38.0","","","","","","","","","","","","","","","","","","","","","","","","","2419","tutorial/p_reduce/task_familiarization_images/part 2/03_N160_K80_cliqueLeft_withFeedback_3.PNG","arrowleft","","","","","","","",""
"image-keyboard-response","39","408155","0.0-39.0","","","","","","","","","","","","","","","","","","","","","","","","","2975","tutorial/p_reduce/task_familiarization_images/part 2/04_N160_K80_cliqueLeft_withFeedback_correct.PNG"," ","","","","","","","",""
"image-keyboard-response","40","415820","0.0-40.0","","","","","","","","","","","","","","","","","","","","","","","","","7663","tutorial/p_reduce/task_familiarization_images/part 2/05_N160_K55_cliqueRight_withFeedback_1.PNG"," ","","","","","","","",""
"image-keyboard-response","41","419826","0.0-41.0","","","","","","","","","","","","","","","","","","","","","","","","","4004","tutorial/p_reduce/task_familiarization_images/part 2/06_N160_K55_cliqueRight_withFeedback_2.PNG"," ","","","","","","","",""
"image-keyboard-response","42","420218","0.0-42.0","","","","","","","","","","","","","","","","","","","","","","","","","391","tutorial/p_reduce/task_familiarization_images/part 2/07_N160_K55_cliqueRight_withFeedback_3.PNG","arrowright","","","","","","","",""
"image-keyboard-response","43","422598","0.0-43.0","","","","","","","","","","","","","","","","","","","","","","","","","2378","tutorial/p_reduce/task_familiarization_images/part 2/08_N160_K55_cliqueRight_withFeedback_correct.PNG"," ","","","","","","","",""
"image-keyboard-response","44","423596","0.0-44.0","","","","","","","","","","","","","","","","","","","","","","","","","997","tutorial/p_reduce/task_familiarization_images/part 2/09_N160_K70_cliqueLeft_withFeedback_1.PNG"," ","","","","","","","",""
"image-keyboard-response","45","424043","0.0-45.0","","","","","","","","","","","","","","","","","","","","","","","","","436","tutorial/p_reduce/task_familiarization_images/part 2/10_N160_K70_cliqueLeft_withFeedback_2.PNG"," ","","","","","","","",""
"image-keyboard-response","46","424552","0.0-46.0","","","","","","","","","","","","","","","","","","","","","","","","","507","tutorial/p_reduce/task_familiarization_images/part 2/11_N160_K70_cliqueLeft_withFeedback_3.PNG","arrowleft","","","","","","","",""
"image-keyboard-response","47","426309","0.0-47.0","","","","","","","","","","","","","","","","","","","","","","","","","1755","tutorial/p_reduce/task_familiarization_images/part 2/12_N160_K70_cliqueLeft_withFeedback_correct.PNG"," ","","","","","","","",""
"preload","48","426572","0.0-48.0","","","","","","","","","","","","","","","","","","","true","false","[]","[]","[]","","","","","","","","","","","",""
"instructions","49","446991","0.0-49.0","","","","","","","","","","","","","","","","","","","","","","","","[{""page_index"":0,""viewing_time"":20417}]","20418","","","","","","","","","",""
"fullscreen","50","451115","0.0-51.0","","","","","","","","","","","","","","","","","","","true","","","","","","","","","","","","","","","",""
"canvas-keyboard-response","51","455146","0.0-52.0-0.0-0.0","","","","","","","","","","","","","","","","","","","","","","","","","2934","","arrowright","[571,493,393,329,915,594,931,781,236,401,962,804,17,718,543,449,859,50,825,277,701,926,343,854,984,665,660,169,267,580,898,715,2,178,838,465,821,513,72,417,456,410,498,617,817,725,529,604,95,907,632,371,661,42,820,382,164,412,884,945,106,392,13,244,210,762,458,827,321,528,563,940,296,485,454,708,385,147,639,121,584,909,752,240,57,731,873,682,188,211,303,254,943,525,700,496,628,530,837,574,711,576,872,553,849,438,504,846,337,906,40,568,492,679,794,920,46,415,152,722,261,688,48,263,997,801,453,973,967,863,175,350,572,165,954,183,971,310,218,185,52,258,771,342,534,238,66,592,963,904,573,789,22,298,987,65,29,131,63,924,858,547,650,974,710,271,155,380,680,919,775,579,913,818,699,43,929,814,196,305,405,55,266,921,841,691,26,84,765,130,542,107,832,219,793,698,638,391,727,786,115,191,587,578,150,23,332,187,761,269,252,70,409,414,500,233,317,857,379,133,490,706,265,894,251,748,111,684,856,746,230,531,720,422,822,313,487,623,648,565,376,363,364,891,257,615,60,232,411,281,76,757,27,656,732,36,28,753,809,923,268,882,800,819,667,117,129,366,507,994,928,73,992,520,675,495,34,184,619,18,867,141,697,758,922,292,304,865,206,948,325,156,90,433,999,927,749,103,443,474,717,462,734,537,61,685,10,445,627,991,783,446,134,434,225,290,591,556,54,154,199,222,378,64,844,245,622,778,723,87,544,833,899,626,560,600,215,402,356,270,961,655,766,368,299,242,361,250,466,246,586,282,955,171,400,365,705,770,707,452,653,516,160,369,566,613,38,575,179,9,536,548,451,231,226,461,828,228,101,772,186,423,977,558,972,709,145,309,939,518,735,595,339,649,114,925,763,629,960,930,468,582,836,654,102,172,91,195,457,834,189,237,609,373,312,840,418,316,983,278,554,459,497,404,158,501,519,69,816,952,616,969,645,362,403,523,39,806,488,472,311,690,869,583,381,214,703,11,167,694,176,780,676,953,702,159,538,358,420,506,205,968,377,947,581,687,148,989,557,88,285,881,427,672,25,946,611,416,815,588,601,273,776,905,829,6,505,192,861,345,479,597,533,406,166,790,728,823,460,693,847,664,221,782,35,243,200,673,347,139,227,97,934,300,713,774,181,8,982,633,767,390,80,539,535,471,805,44,993,644,669,105,248,777,353,426,408,283,75,499,68,213,950,730,647,811,307,440,895,71,502,323,550,174,335,82,879,177,503,900,883,3,375,108,552,30,791,168,372,657,96,559,122,136,235,855,652,813,965,51,14,567,333,860,864,93,508,249,481,714,229,33,978,118,532,799,128,695,729,826,476,62,744,562,276,831,739,521,67,212,182,144,328,32,585,524,116,444,851,286,98,957,140,344,450,986,149,120,264,294,374,437,551,784,331,340,874,386,431,773,835,966,207,197,666,355,464,747,712,848,123,618,651,396,637,674,886,935,608,975,612,545,119,161,475,798,754,740,839,546,764,125,515,756,959,5,852,549,208,541,737,198,796,275,348,901,569,606,577,216,681,473,755,788,354,640,83,94,938,692,589,964,658,564,336,875,733,916,255,593,279,768,990,885,897,143,795,442,610,484,643,428,49,109,15,877,979,760,0,486,190,527,1,262,607,137,480,491,289,914,996,824,302,173,334,599,429,888,280,209,631,876,389,812,970,439,19,432,234,142,750,421,936,787,297,745,295,624,985,315,646,494,447,367,769,911,902,124,284,514,662,509,470,942,912,478,602,785,605,110,596,223,641,388,53,880,288,180,399,988,759,387,126,561,642,892,803,407,151,16,346,878,359,291,394,37,659,20,31,113,58,441,79,306,435,721,751,742,724,868,630,74,620,570,239,146,314,330,430,636,483,866,100,324,320,540,112,555,395,998,12,47,24,871,204,810,522,634,526,808,995,469,99,736,319,419,349,870,398,896,162,598,153,517,138,85,792,202,738,383,77,689,86,163,802,686,981,193,590,287,259,949,489,327,512,696,917,477,322,932,397,217,135,511,360,448,357,127,887,716,743,351,621,301,7,980,326,670,132,853,850,797,455,78,889,384,467,937,352,463,726,704,56,338,370,918,224,253,45,157,603,201,59,436,81,941,719,614,625,510,482,341,683,194,241,908,807,951,910,842,890,220,933,678,413,104,845,425,4,260,668,903,318,862,272,170,21,843,635,830,741,256,293,976,663,893,274,203,779,677,424,944,89,247,92,308,958,956,671,41]","arrowright","true","0","0","300","1000","[""0064_N1000_K0300_NOCLIQUE"",""0084_N1000_K0300_CLIQUE""]"
"audio-keyboard-response","52","456194","0.0-52.0-0.0-1.0","","","","","","","","","","","","","","","","","","","","","","","","","null","audio_feedback/right/coin01.mp3","null","","","","0","0","300","1000","[""0064_N1000_K0300_NOCLIQUE"",""0084_N1000_K0300_CLIQUE""]"
"canvas-keyboard-response","53","457884","0.0-53.0-0.0-0.0","","","","","","","","","","","","","","","","","","","","","","","","","738","","arrowleft","[687,360,642,919,602,225,658,377,696,703,849,897,778,677,19,879,363,458,66,161,564,57,385,846,815,263,65,80,966,520,782,634,771,902,858,739,153,650,313,158,929,952,270,598,55,662,637,960,644,685,259,584,190,56,649,73,720,992,180,47,622,583,999,169,248,325,285,126,127,556,152,85,843,383,736,308,302,627,630,204,737,434,447,916,817,689,528,805,339,291,550,531,923,343,421,250,448,896,891,119,101,199,600,372,53,335,617,712,223,397,413,530,143,208,218,800,807,336,32,507,252,680,279,695,718,965,72,35,624,299,381,240,280,141,478,596,549,68,743,351,934,943,52,466,118,552,386,157,213,404,433,506,570,793,961,719,316,379,626,713,75,275,753,463,985,168,10,819,387,407,121,257,62,234,921,579,915,242,623,322,441,312,91,780,184,543,181,513,547,726,61,394,255,495,769,388,984,139,283,24,750,367,806,192,619,247,88,840,217,933,203,60,990,402,392,922,969,708,725,610,133,816,967,14,120,893,148,473,796,751,289,159,344,482,690,509,895,546,614,183,517,271,877,197,694,553,2,576,138,648,774,812,855,813,519,338,833,859,848,705,733,888,505,400,732,389,412,580,603,499,746,211,900,951,949,1,241,760,464,867,761,11,100,216,937,288,124,945,522,476,179,128,607,599,979,978,573,856,281,706,818,582,656,54,880,686,958,415,454,615,165,735,950,307,944,857,228,111,295,558,256,437,292,99,770,679,927,612,103,853,18,311,318,821,981,77,258,971,296,86,749,797,684,939,741,913,268,850,151,488,232,640,654,772,711,986,801,82,831,30,628,428,717,959,29,647,972,48,561,116,521,327,515,419,129,150,866,533,693,220,105,587,364,340,511,907,828,653,906,481,328,438,200,244,748,320,847,417,230,675,163,174,49,294,633,321,222,498,744,604,852,273,265,508,156,636,115,977,134,155,107,910,540,167,269,814,304,731,504,330,205,625,567,925,609,860,114,347,267,20,756,724,560,975,37,51,201,863,6,775,909,8,43,196,870,876,597,410,467,826,616,956,974,282,524,538,728,472,172,785,266,536,457,777,64,370,767,773,670,416,70,109,108,578,371,376,845,672,262,284,998,122,12,95,274,226,606,592,253,534,110,936,17,40,899,563,429,873,980,137,983,277,380,16,532,451,23,409,747,350,301,146,869,588,618,443,510,865,365,442,219,781,830,207,613,96,758,36,518,632,608,418,489,38,710,716,117,730,569,715,701,178,136,233,355,50,537,254,3,594,890,941,864,652,390,425,154,591,130,58,13,875,924,551,562,164,231,987,676,194,568,539,798,738,147,590,792,300,500,326,468,901,436,585,39,963,646,839,844,512,366,729,63,920,851,655,479,755,928,398,962,548,799,837,374,403,884,786,494,787,905,212,824,742,516,714,306,887,7,976,251,461,723,700,666,525,493,779,446,465,391,790,395,486,912,227,601,917,423,575,484,424,92,671,589,46,78,42,444,278,215,140,333,688,298,810,527,544,698,315,667,189,765,822,946,574,871,754,663,938,631,485,332,892,342,529,182,989,740,469,940,354,914,149,87,260,501,345,246,776,411,445,678,79,838,209,25,357,823,483,432,745,565,762,629,323,470,431,69,337,33,593,475,970,309,894,595,669,930,401,188,964,993,734,112,503,195,132,210,827,804,657,341,131,334,382,697,187,968,948,249,791,605,361,904,453,362,396,480,314,477,898,881,238,83,982,125,752,942,170,490,683,635,836,554,305,106,460,348,89,996,784,639,236,882,378,932,491,34,954,93,452,198,820,722,303,641,681,97,27,764,572,214,245,235,206,166,98,668,721,74,566,953,113,358,709,221,405,883,15,757,783,908,202,874,352,829,763,373,935,542,995,346,474,707,545,496,293,272,834,638,393,186,142,21,185,44,535,665,766,435,359,832,427,175,384,802,651,795,674,487,526,955,171,102,643,264,727,67,660,809,997,439,243,664,229,408,310,22,353,426,988,811,324,81,144,903,414,84,90,994,162,788,462,317,319,541,886,76,369,768,673,808,440,450,406,699,0,659,237,794,5,620,502,459,514,825,868,31,176,835,422,854,41,287,841,9,586,59,789,911,492,555,28,135,523,449,577,611,4,661,145,557,375,420,123,160,239,862,621,803,759,399,331,471,704,191,45,991,692,430,356,177,842,261,571,918,559,456,276,104,26,290,581,173,94,286,702,947,973,497,691,455,885,931,957,861,872,368,878,349,645,329,682,193,297,889,926,71,224]","arrowleft","true","0","1","300","1000","[""0085_N1000_K0300_CLIQUE"",""0075_N1000_K0300_NOCLIQUE""]"
"audio-keyboard-response","54","458911","0.0-53.0-0.0-1.0","","","","","","","","","","","","","","","","","","","","","","","","","null","audio_feedback/right/coin01.mp3","null","","","","0","1","300","1000","[""0085_N1000_K0300_CLIQUE"",""0075_N1000_K0300_NOCLIQUE""]"
"canvas-keyboard-response","55","460697","0.0-54.0-0.0-0.0","","","","","","","","","","","","","","","","","","","","","","","","","875","","arrowleft","[725,565,291,218,401,570,252,896,474,494,211,525,224,339,876,87,359,893,46,388,288,946,491,959,821,897,462,39,479,995,628,574,275,225,340,724,901,564,311,161,376,55,847,675,513,163,396,527,131,702,9,817,126,636,336,266,84,530,671,703,393,968,906,116,945,616,665,90,489,296,914,94,931,768,229,20,217,860,77,210,85,776,178,168,408,944,63,468,456,407,741,125,659,201,382,353,953,919,35,620,528,670,259,66,502,743,524,285,423,230,61,358,969,222,447,234,585,144,306,146,140,106,361,651,442,963,299,433,334,551,486,922,448,658,7,795,756,342,83,615,818,40,93,718,317,882,877,885,439,686,389,695,189,265,70,738,355,841,609,851,634,1,933,537,21,235,657,932,662,928,119,875,326,751,394,241,952,215,281,186,105,498,715,887,508,369,89,535,878,445,147,780,581,697,915,871,293,982,908,67,286,308,750,964,450,976,272,836,26,207,797,834,977,170,533,92,38,487,713,57,714,519,645,153,441,894,687,381,205,680,583,869,464,582,177,386,33,374,660,65,270,619,843,594,312,883,295,512,705,108,3,677,664,904,96,627,258,473,173,228,853,641,957,822,255,863,857,661,958,31,541,775,591,227,800,22,59,469,111,717,521,552,400,243,221,475,309,143,226,62,596,601,244,739,365,936,410,327,667,378,157,560,873,790,419,929,176,53,71,960,238,123,344,49,673,315,735,41,86,844,30,546,624,543,553,499,745,415,998,764,198,586,985,892,130,757,618,639,621,943,97,138,902,477,846,663,182,32,653,623,608,13,133,927,603,729,430,815,940,24,364,414,850,110,568,693,706,435,709,155,330,921,458,391,424,444,118,132,638,842,184,103,825,446,343,872,204,451,728,402,991,455,907,723,246,855,137,597,368,763,649,549,322,124,282,107,862,840,314,569,682,666,452,263,793,505,625,490,830,730,637,338,12,236,668,197,759,335,112,823,981,242,948,900,329,854,172,2,292,867,76,82,187,438,558,613,79,719,27,647,654,966,150,190,4,924,320,411,744,351,600,870,301,923,778,856,347,772,845,707,999,579,128,213,962,584,559,631,891,397,684,253,81,357,913,362,607,251,135,483,95,747,276,652,188,345,812,930,91,240,418,572,614,808,770,731,354,209,260,589,220,576,449,203,371,406,440,467,626,992,232,848,758,605,99,685,319,912,88,755,722,824,606,501,392,532,316,604,101,879,78,898,141,561,895,829,437,384,162,139,939,925,196,518,539,318,166,305,104,918,696,273,463,52,68,826,413,716,429,782,531,284,942,398,503,453,367,827,610,171,500,152,520,480,592,762,180,794,426,926,837,149,395,980,472,239,98,694,37,635,733,909,331,849,622,237,935,864,366,783,360,890,233,271,412,678,526,781,10,321,69,888,434,421,727,248,247,346,185,974,274,810,784,580,752,767,6,987,701,517,416,567,816,370,471,56,970,194,903,788,23,938,476,405,587,64,328,547,949,117,983,507,712,102,181,5,307,159,269,356,884,831,432,303,629,820,36,972,809,504,562,522,202,348,466,773,74,425,18,120,785,941,304,323,179,298,835,428,648,806,556,643,611,669,256,779,404,593,0,937,514,997,254,859,478,219,861,632,965,454,60,29,268,563,792,19,165,459,978,216,250,11,881,497,100,866,385,967,765,485,989,683,679,267,129,766,310,290,115,175,602,916,578,245,681,8,47,732,789,515,470,231,799,223,726,279,538,43,791,212,910,858,655,555,297,975,372,736,160,708,839,961,332,287,511,54,417,828,542,691,28,510,934,206,699,492,337,496,199,72,598,375,973,280,557,852,17,341,710,994,200,984,325,506,25,208,15,646,899,58,642,832,333,588,814,431,427,257,711,811,403,874,377,109,169,674,420,802,771,769,805,819,516,16,264,905,573,911,956,804,689,993,880,640,688,422,786,48,158,698,577,51,704,261,656,951,443,801,387,383,988,920,550,754,283,349,164,465,807,571,590,676,865,390,599,548,803,495,195,540,536,868,145,575,44,278,324,753,523,481,277,838,633,457,493,289,14,45,148,192,50,80,833,544,127,167,947,672,889,996,121,461,650,617,214,554,436,193,545,886,509,721,979,113,363,630,488,774,796,156,950,302,917,720,740,737,136,690,73,760,777,151,350,986,409,142,484,644,373,174,534,742,114,460,34,595,971,734,692,42,748,813,749,191,746,183,262,798,154,313,134,700,122,566,294,787,399,482,954,379,955,352,761,612,990,249,75,380,300,529]","arrowleft","true","0","2","267","1000","[""0032_N1000_K0267_CLIQUE"",""0012_N1000_K0267_NOCLIQUE""]"
"audio-keyboard-response","56","461725","0.0-54.0-0.0-1.0","","","","","","","","","","","","","","","","","","","","","","","","","null","audio_feedback/right/coin01.mp3","null","","","","0","2","267","1000","[""0032_N1000_K0267_CLIQUE"",""0012_N1000_K0267_NOCLIQUE""]"
"canvas-keyboard-response","57","463448","0.0-55.0-0.0-0.0","","","","","","","","","","","","","","","","","","","","","","","","","739","","arrowright","[351,35,289,698,377,285,80,115,177,211,101,806,406,203,257,680,253,258,218,976,869,239,181,779,618,461,983,804,31,385,184,142,42,858,195,494,2,374,216,874,723,302,768,269,958,953,783,66,129,847,28,347,678,687,551,192,755,939,973,599,24,335,807,786,407,692,432,688,527,616,287,418,535,843,541,793,667,582,403,77,483,716,197,540,870,264,6,608,196,747,509,574,464,853,90,368,606,831,359,69,979,300,639,726,428,458,20,622,263,614,759,923,19,234,821,262,62,278,619,514,235,473,138,583,921,871,839,993,445,505,340,510,578,248,796,546,166,823,150,947,607,497,864,145,950,296,501,344,630,757,366,954,371,926,435,704,293,391,106,967,909,460,442,961,352,644,521,767,343,236,338,942,659,476,596,604,154,311,120,102,840,322,215,91,545,252,944,325,86,530,785,399,207,690,299,420,686,259,98,441,827,397,30,232,857,468,934,412,84,646,495,37,932,73,60,542,879,753,968,987,451,490,693,345,198,895,229,802,95,36,380,713,834,4,989,508,426,419,900,422,512,566,453,633,146,83,409,265,775,18,67,228,855,430,712,946,986,49,44,877,22,732,538,27,223,200,711,593,440,917,902,621,927,938,951,384,537,984,699,743,982,849,730,955,249,256,872,652,492,833,65,452,838,588,771,135,99,496,960,654,210,199,600,861,176,466,971,54,830,739,892,190,13,662,354,962,647,414,153,611,116,580,808,896,977,506,933,663,708,284,826,317,594,691,224,567,560,379,152,695,635,761,254,940,500,612,70,436,700,817,219,97,959,988,974,751,448,558,586,332,421,12,202,819,123,956,64,889,277,244,456,935,281,136,682,884,548,172,474,400,615,787,478,434,109,637,617,929,15,179,519,791,107,365,915,68,465,130,240,565,117,547,57,337,694,208,835,8,856,214,378,970,38,462,824,43,274,125,459,559,722,554,526,978,924,957,997,319,990,381,137,812,14,780,271,282,975,710,96,467,841,408,404,475,21,887,733,243,3,108,357,193,744,601,813,675,45,581,837,147,862,11,651,286,288,816,562,770,910,754,564,908,89,774,563,998,405,914,591,937,531,133,87,829,314,981,246,333,513,634,225,524,484,520,310,491,469,671,811,766,936,664,121,571,534,23,645,318,71,320,878,182,579,883,204,707,157,536,715,303,294,388,518,832,848,904,72,485,390,472,103,32,185,387,919,499,728,401,429,750,992,677,237,283,149,602,356,781,517,26,336,227,124,717,609,439,916,525,867,167,297,532,178,556,873,112,427,661,245,972,585,670,963,749,191,792,187,295,275,309,79,727,907,676,25,920,624,592,911,507,685,590,324,797,455,810,159,212,292,718,46,776,301,714,454,764,122,267,372,180,100,394,852,844,859,255,413,689,626,897,305,493,641,814,636,738,552,402,213,230,985,891,836,899,719,773,273,34,629,48,737,161,173,734,169,355,61,148,164,502,171,642,724,132,113,752,650,589,625,389,261,339,991,231,860,888,5,672,898,523,47,846,39,364,668,447,316,721,415,799,367,886,346,85,463,842,424,74,825,488,395,653,410,504,134,329,568,118,980,376,307,941,881,818,375,994,966,584,828,922,306,51,533,226,487,183,789,763,851,128,308,17,822,748,369,550,437,63,270,683,156,348,480,703,450,820,640,882,411,539,315,59,996,104,438,964,470,756,131,81,697,632,758,516,740,56,326,160,0,29,999,431,906,666,544,549,386,555,696,189,75,50,328,800,772,603,876,660,312,341,416,880,126,577,327,33,360,575,572,260,217,553,729,52,903,638,782,784,623,725,174,794,930,321,778,561,875,139,522,649,627,777,291,241,16,788,995,1,489,165,188,893,247,272,648,349,373,362,205,557,140,370,760,163,628,576,342,114,705,969,702,446,482,595,765,392,358,965,706,53,250,158,943,850,613,912,803,417,330,901,477,175,486,890,631,433,945,529,350,361,669,805,657,769,93,795,905,745,280,7,597,868,41,658,918,396,276,242,194,569,94,141,798,656,398,443,865,511,78,279,268,423,709,111,790,573,304,598,105,209,543,449,498,643,393,425,55,119,238,334,9,10,949,503,151,481,363,220,323,40,92,76,88,931,222,863,674,885,290,925,952,570,866,82,143,444,127,681,201,587,382,162,479,815,58,353,854,679,186,170,471,701,673,144,610,383,741,155,720,515,762,736,266,742,206,221,655,845,110,620,251,298,948,233,928,684,746,331,605,731,801,809,665,894,457,313,168,735,913,528]","arrowright","true","0","3","267","1000","[""0013_N1000_K0267_NOCLIQUE"",""0093_N1000_K0267_CLIQUE""]"
"audio-keyboard-response","58","464487","0.0-55.0-0.0-1.0","","","","","","","","","","","","","","","","","","","","","","","","","null","audio_feedback/right/coin01.mp3","null","","","","0","3","267","1000","[""0013_N1000_K0267_NOCLIQUE"",""0093_N1000_K0267_CLIQUE""]"
"canvas-keyboard-response","59","466088","0.0-56.0-0.0-0.0","","","","","","","","","","","","","","","","","","","","","","","","","619","","arrowleft","[575,277,504,883,388,215,571,659,786,223,531,253,111,572,658,681,214,472,176,767,732,258,724,673,154,968,246,109,866,62,320,243,88,803,383,436,402,952,769,278,664,606,212,95,646,478,256,877,544,645,220,177,252,225,354,982,139,366,733,221,852,218,115,230,240,626,534,142,319,475,364,762,471,343,76,68,325,173,983,392,370,989,130,153,391,715,920,169,760,923,537,329,843,853,804,300,744,907,562,990,777,527,648,807,399,950,792,121,59,957,996,470,431,576,381,23,94,373,913,680,359,418,262,435,965,661,685,955,193,89,84,101,427,720,619,778,666,65,755,999,338,361,360,881,148,150,854,809,954,569,848,179,248,805,878,127,138,80,668,889,837,615,196,700,689,598,588,960,158,694,583,198,200,189,969,429,629,286,369,802,594,818,151,556,414,688,332,971,617,1,185,726,266,165,36,739,163,61,274,663,255,46,182,834,622,408,464,706,637,97,350,434,442,281,352,482,210,671,749,322,292,810,390,590,787,232,380,770,750,135,669,856,551,60,16,510,727,642,981,330,473,161,18,90,374,448,108,344,247,467,657,558,249,757,272,489,224,980,56,474,782,375,667,765,79,104,943,991,85,529,184,251,640,898,166,963,972,424,676,885,940,795,868,71,5,653,697,896,520,880,433,459,811,949,967,397,228,918,376,422,833,70,841,398,561,871,29,682,250,717,790,145,774,705,855,691,978,836,748,874,735,886,174,723,74,704,574,513,718,610,461,675,822,19,794,137,860,816,779,401,302,187,624,283,365,454,670,975,209,884,456,51,553,825,3,43,6,838,530,616,339,636,144,114,64,208,702,296,444,591,687,741,4,0,713,788,27,465,289,377,966,620,455,203,242,759,63,8,984,509,245,512,244,785,692,851,306,428,679,345,31,132,17,995,311,931,457,911,496,78,876,917,548,186,357,828,800,695,451,264,830,631,936,921,378,93,550,503,118,958,652,38,126,924,581,546,988,443,241,526,327,725,213,864,14,927,567,747,25,416,291,540,916,819,119,393,32,453,665,559,910,99,149,49,445,171,897,964,621,612,87,766,469,699,930,798,437,756,674,450,865,977,861,452,773,586,211,229,651,961,362,419,47,912,159,152,323,812,155,596,219,120,797,73,593,259,686,45,147,677,703,506,892,516,407,899,672,268,162,716,324,270,501,124,806,904,294,287,545,30,308,131,517,763,953,698,602,584,282,387,476,493,820,92,502,466,928,523,627,178,566,417,355,449,570,641,846,172,488,647,110,479,491,40,297,413,133,976,222,48,295,191,487,821,430,117,890,761,974,547,789,842,334,265,903,775,122,261,34,745,597,862,280,125,678,962,107,743,379,315,216,394,462,13,26,849,796,102,905,412,438,486,128,738,555,199,183,708,938,585,817,385,536,411,993,333,181,771,518,858,564,495,882,823,41,168,538,690,316,2,53,935,351,271,887,742,371,468,82,719,638,24,511,164,979,522,758,730,869,532,714,801,129,875,893,539,595,136,776,973,613,611,845,66,321,492,850,589,11,326,146,628,485,827,116,644,237,190,21,560,579,106,751,933,649,337,273,202,440,832,72,463,970,188,900,508,356,994,395,914,515,358,83,276,656,573,349,54,284,563,709,39,587,902,901,238,835,633,33,50,814,528,20,75,28,206,987,956,701,432,634,91,123,599,201,500,386,607,618,305,605,947,194,22,367,312,86,734,609,267,239,781,317,946,922,389,578,542,630,480,69,997,945,420,290,67,400,565,217,603,309,941,654,577,298,623,113,35,524,908,643,533,105,348,180,752,721,481,925,783,543,207,608,406,195,549,505,103,141,310,959,404,780,342,336,625,840,439,112,175,263,604,998,58,813,314,12,728,384,328,601,346,944,98,521,639,942,409,951,341,815,293,403,660,170,753,335,580,568,57,929,227,525,368,600,484,710,655,55,299,847,857,552,919,10,205,632,285,867,499,460,405,301,839,909,441,554,746,592,81,382,879,197,340,635,15,894,768,140,260,192,582,275,483,872,926,707,236,396,915,498,313,557,906,96,712,426,331,160,507,831,541,772,7,423,784,279,231,736,447,863,808,226,134,535,52,421,793,895,458,372,731,204,303,353,740,722,662,737,37,948,100,992,44,446,824,683,684,791,729,932,304,891,490,363,514,519,494,42,410,826,986,696,939,799,844,257,235,754,269,693,156,157,143,9,425,934,307,985,234,318,870,415,859,477,829,497,254,873,937,614,167,764,347,888,711,650,77,288,233]","arrowleft","true","0","4","233","1000","[""0002_N1000_K0233_CLIQUE"",""0024_N1000_K0233_NOCLIQUE""]"
"audio-keyboard-response","60","467131","0.0-56.0-0.0-1.0","","","","","","","","","","","","","","","","","","","","","","","","","null","audio_feedback/right/coin01.mp3","null","","","","0","4","233","1000","[""0002_N1000_K0233_CLIQUE"",""0024_N1000_K0233_NOCLIQUE""]"
"canvas-keyboard-response","61","468891","0.0-57.0-0.0-0.0","","","","","","","","","","","","","","","","","","","","","","","","","714","","arrowright","[230,507,239,729,980,943,465,749,205,523,965,176,435,952,995,437,162,771,529,815,694,963,349,626,870,219,483,765,843,903,609,35,279,625,38,414,364,225,369,375,202,316,832,497,255,252,67,554,869,675,681,695,420,754,510,678,874,940,351,959,122,3,613,373,324,459,296,149,616,43,793,812,703,905,423,766,762,208,314,699,919,281,427,969,636,203,390,200,768,775,398,864,74,112,868,787,564,680,469,881,816,131,563,276,830,52,227,820,709,118,929,721,840,966,471,263,567,295,273,666,477,54,216,184,5,631,466,640,549,33,100,430,146,520,493,103,214,672,993,96,944,284,238,894,406,817,335,313,685,665,0,416,270,892,761,611,547,120,886,175,891,153,673,141,511,99,342,165,135,180,809,391,245,584,982,957,745,555,294,583,65,27,446,878,264,26,707,130,172,108,831,106,667,783,850,650,231,876,479,572,622,251,686,242,61,863,605,822,991,1,267,727,973,432,46,568,634,684,990,333,895,11,690,217,303,451,39,784,92,442,542,86,579,855,307,811,617,463,951,619,748,890,926,393,541,226,751,531,361,575,134,852,723,888,853,8,14,838,884,408,833,794,321,422,901,148,947,642,718,434,417,126,268,846,133,94,651,152,600,921,538,958,502,9,249,639,272,797,467,752,610,786,799,592,528,166,911,36,658,368,909,679,728,98,2,127,300,83,462,930,920,132,448,418,23,237,125,841,851,157,500,790,976,12,260,34,360,654,474,638,508,254,646,233,867,696,32,311,412,588,828,144,473,615,326,571,160,472,456,354,800,403,353,297,692,652,750,941,504,998,87,741,210,596,95,425,298,197,566,22,629,449,630,710,7,64,350,971,247,174,404,551,71,633,896,518,594,663,501,59,806,865,190,714,740,883,199,604,222,128,661,495,719,289,363,484,370,936,708,674,585,265,29,331,880,50,19,56,949,410,16,736,124,246,17,598,923,101,258,291,807,825,105,185,913,922,795,682,389,45,601,688,739,755,119,48,385,409,577,726,201,842,885,932,25,262,193,492,499,58,927,213,395,372,939,981,182,858,163,413,383,644,156,76,704,635,887,657,167,819,161,882,62,207,347,814,979,178,813,516,798,835,49,77,271,340,235,455,565,937,325,767,907,75,717,323,380,643,785,204,150,329,129,974,384,169,310,90,789,259,713,509,91,769,80,24,777,512,244,356,720,620,871,532,496,569,743,37,397,274,827,503,698,70,387,283,491,115,589,40,837,916,140,700,618,85,339,330,470,712,392,6,537,691,482,614,93,802,381,388,196,535,977,164,746,961,407,873,530,553,632,760,999,899,747,155,849,221,776,21,154,438,513,758,401,889,938,526,436,215,975,988,627,759,662,879,240,55,378,954,84,810,994,142,757,396,290,902,138,683,362,904,187,41,677,986,192,481,79,519,450,218,689,915,488,81,931,78,376,693,854,737,983,415,968,53,402,286,824,641,734,428,123,73,595,522,137,443,69,524,836,494,527,847,778,405,305,304,189,925,628,206,287,581,308,856,773,211,763,102,359,607,897,670,452,738,232,4,548,42,399,139,608,774,489,603,733,319,744,964,332,742,621,792,506,543,862,637,487,143,597,234,514,110,653,250,561,574,715,411,220,780,318,687,10,669,550,546,562,328,770,818,490,558,898,31,593,117,560,648,485,475,379,730,337,424,599,257,805,478,334,82,236,457,209,753,781,173,394,468,978,582,623,573,171,212,498,224,647,540,453,844,587,906,834,624,275,732,285,866,194,539,104,365,578,433,429,985,20,534,278,900,782,515,51,716,441,556,756,861,109,908,517,426,544,301,859,88,910,344,322,872,992,948,559,788,136,950,444,480,722,804,47,989,419,821,725,645,918,912,355,671,188,147,697,382,293,848,962,400,576,796,371,928,972,312,302,181,779,113,320,195,997,431,664,345,421,292,282,168,228,299,552,668,256,179,724,151,655,458,857,352,317,248,440,288,306,243,28,955,30,823,984,464,536,377,845,705,460,341,521,557,447,336,772,946,602,996,659,121,229,348,960,13,829,735,676,89,580,505,241,97,44,803,791,170,18,591,374,987,198,253,877,706,826,701,116,731,159,107,486,386,280,945,191,711,445,586,357,145,454,183,72,914,649,956,309,656,358,702,860,366,111,158,476,893,533,525,967,590,839,970,924,68,327,63,315,875,612,660,223,57,439,66,346,808,461,933,15,343,917,367,114,935,261,186,953,570,764,934,277,606,942,60,269,801,266,338,177,545]","arrowright","true","0","5","233","1000","[""0098_N1000_K0233_NOCLIQUE"",""0053_N1000_K0233_CLIQUE""]"
"audio-keyboard-response","62","469920","0.0-57.0-0.0-1.0","","","","","","","","","","","","","","","","","","","","","","","","","null","audio_feedback/right/coin01.mp3","null","","","","0","5","233","1000","[""0098_N1000_K0233_NOCLIQUE"",""0053_N1000_K0233_CLIQUE""]"
"canvas-keyboard-response","63","471671","0.0-58.0-0.0-0.0","","","","","","","","","","","","","","","","","","","","","","","","","725","","arrowleft","[907,232,160,984,474,396,505,139,799,898,715,413,968,930,664,218,286,403,347,318,527,592,626,258,423,43,979,533,26,424,422,641,992,667,452,491,322,895,252,528,2,608,133,683,45,180,152,409,447,309,639,606,450,161,19,142,10,713,103,798,28,861,275,724,692,833,234,870,774,630,743,475,869,931,209,776,324,465,106,130,586,951,156,384,123,781,556,68,970,18,22,637,259,164,678,389,518,329,211,354,584,212,434,184,830,669,179,242,634,765,534,339,270,734,360,697,787,147,719,976,214,69,969,277,506,140,155,549,972,99,47,820,946,924,583,60,711,131,884,854,405,805,736,201,38,655,841,488,733,264,589,754,837,225,628,638,793,948,580,881,923,87,627,958,868,855,271,808,576,897,742,510,278,698,791,381,806,661,129,41,790,32,80,182,522,550,100,435,504,121,593,245,373,369,188,476,352,57,438,95,993,575,311,458,325,495,176,940,914,181,298,266,919,118,328,235,469,936,404,21,388,247,496,815,346,928,42,944,568,656,148,666,73,407,281,565,306,982,959,739,462,54,299,303,987,642,296,535,46,330,368,557,871,49,591,844,706,7,847,727,691,290,391,911,910,682,866,716,300,24,4,206,254,560,443,483,11,541,150,863,780,358,967,817,704,454,932,873,120,759,995,751,233,796,473,670,737,498,449,154,998,445,415,493,942,600,835,526,345,227,83,921,875,651,551,529,134,927,553,240,334,168,122,579,482,964,116,612,643,679,265,922,372,519,962,273,564,23,888,484,625,792,417,629,803,788,912,175,171,886,795,6,467,279,174,323,307,887,128,72,70,542,622,801,752,644,562,470,486,0,531,429,356,918,832,375,686,784,750,800,320,459,595,899,414,444,52,36,955,335,721,573,571,295,494,561,864,802,412,961,44,166,747,707,920,308,618,138,27,141,722,857,98,228,797,224,684,210,117,597,17,89,766,213,222,61,230,509,448,379,481,158,771,492,744,406,694,619,852,361,456,276,55,202,913,365,40,337,173,359,74,58,896,850,399,363,943,362,672,145,348,183,293,905,572,305,13,954,471,632,594,617,725,705,29,877,826,880,386,5,487,378,400,420,82,453,663,813,883,436,654,588,77,489,712,904,978,607,332,192,703,989,818,189,119,48,865,165,468,615,78,92,917,398,102,824,313,149,532,554,662,425,956,51,442,902,312,773,853,62,163,301,402,340,523,262,828,843,732,823,731,552,760,893,856,935,221,223,196,208,582,401,319,566,125,178,250,708,440,761,981,867,652,689,587,990,602,310,84,834,577,88,804,605,763,380,331,983,909,779,9,610,953,455,513,291,316,988,349,287,646,464,197,387,674,621,859,59,821,109,620,903,937,720,840,377,256,822,15,997,996,512,81,603,56,947,267,860,187,215,96,767,350,977,812,219,499,144,204,186,858,53,769,269,167,749,547,647,64,601,653,480,20,35,991,665,76,194,950,231,284,633,745,124,294,91,517,374,110,431,370,660,472,782,879,297,71,778,185,111,432,966,8,596,394,3,906,217,938,466,687,756,929,520,289,172,433,755,268,327,701,501,741,135,952,239,30,590,114,604,671,457,939,333,170,159,738,342,658,478,437,385,648,463,838,193,251,677,700,894,257,728,901,933,63,382,261,980,963,34,416,934,237,546,430,67,236,695,762,636,397,574,807,794,693,283,777,735,153,827,770,555,249,960,548,746,383,525,702,408,862,79,390,614,611,113,965,709,514,16,255,949,392,668,288,411,104,696,461,578,244,530,243,326,367,825,177,317,12,836,195,675,645,957,93,659,908,136,876,536,31,673,229,338,351,272,427,507,428,714,717,768,809,336,205,292,849,889,151,503,681,753,971,874,105,973,410,757,941,477,945,199,786,748,315,740,623,845,789,699,581,524,892,539,569,878,33,688,376,302,882,502,65,609,395,775,393,216,985,718,169,851,915,891,783,355,137,599,157,616,357,570,86,485,515,366,497,516,248,238,872,343,635,537,101,819,729,364,90,446,441,785,107,685,650,567,508,143,772,39,85,203,190,285,421,115,890,94,640,200,521,848,544,451,479,839,511,624,730,842,246,900,810,657,816,999,253,538,676,926,986,764,146,543,280,558,207,613,75,260,282,994,649,814,710,321,925,14,344,371,191,598,545,274,162,419,723,50,418,885,126,25,439,132,540,226,263,631,500,304,314,846,690,112,241,563,811,220,353,974,758,559,127,490,680,585,460,726,66,97,829,37,1,916,198,975,426,108,341,831]","arrowleft","true","0","6","217","1000","[""0089_N1000_K0217_CLIQUE"",""0013_N1000_K0217_NOCLIQUE""]"
"audio-keyboard-response","64","472707","0.0-58.0-0.0-1.0","","","","","","","","","","","","","","","","","","","","","","","","","null","audio_feedback/right/coin01.mp3","null","","","","0","6","217","1000","[""0089_N1000_K0217_CLIQUE"",""0013_N1000_K0217_NOCLIQUE""]"
"canvas-keyboard-response","65","474761","0.0-59.0-0.0-0.0","","","","","","","","","","","","","","","","","","","","","","","","","1012","","arrowleft","[650,296,951,502,439,709,699,364,678,19,736,359,475,174,980,430,910,303,893,908,661,848,131,317,553,967,163,955,465,124,981,877,421,860,994,143,835,203,922,846,742,164,888,622,346,388,287,210,298,794,493,126,111,28,39,381,735,335,208,837,613,627,842,968,770,161,879,933,93,599,88,862,785,466,555,704,992,896,395,173,476,906,225,223,403,289,40,510,903,187,73,923,771,135,501,86,851,122,732,797,412,727,536,995,976,634,50,416,540,763,189,204,670,551,290,142,468,20,912,530,954,95,79,928,100,713,507,429,993,112,766,911,914,90,941,979,241,625,654,830,722,818,352,798,179,658,33,811,849,595,167,424,53,230,775,60,783,84,965,986,788,882,746,583,642,353,623,196,169,500,183,519,391,690,962,632,455,52,205,819,588,443,467,809,160,693,56,512,936,82,782,250,767,997,293,243,153,854,368,949,356,6,281,238,9,65,697,308,274,372,176,448,7,310,522,456,947,496,889,565,360,586,934,823,17,789,374,960,807,548,77,801,907,863,309,182,357,291,617,740,464,451,864,904,977,655,35,832,489,350,612,901,533,149,57,321,643,43,516,683,492,375,517,695,473,325,696,373,425,619,254,207,432,5,446,454,127,47,532,572,144,575,108,191,883,54,708,843,232,753,701,913,109,562,494,804,534,511,206,930,739,931,67,25,525,295,633,790,105,689,145,584,958,681,322,472,577,482,840,855,392,264,431,121,826,337,867,314,313,224,813,198,155,347,649,589,23,348,294,535,8,1,333,184,246,943,4,596,394,668,827,950,365,125,724,14,479,833,487,474,998,211,776,349,614,611,134,590,449,419,884,694,268,757,692,636,991,895,620,244,537,302,765,168,607,593,760,216,119,272,503,471,774,231,972,94,509,101,212,270,918,81,714,89,508,413,544,920,836,671,59,220,581,117,192,513,660,909,61,405,328,881,969,664,49,687,684,165,570,601,647,547,260,344,712,236,315,491,829,452,327,407,128,897,276,728,526,580,726,87,259,985,841,480,247,925,839,711,999,92,917,226,698,874,677,795,103,180,219,462,944,543,130,679,72,255,201,870,139,604,240,265,181,334,645,641,886,311,397,36,31,115,808,62,824,371,878,578,957,653,990,453,646,666,608,343,702,749,263,178,929,816,490,621,202,630,674,420,304,351,442,376,13,299,875,384,975,574,363,733,759,761,68,876,868,560,414,651,285,663,137,905,894,478,538,902,857,329,358,916,598,385,592,98,769,723,410,485,41,104,172,640,815,2,15,937,258,441,32,340,803,190,269,982,756,628,404,629,37,228,989,418,956,953,97,563,91,114,38,271,78,483,935,626,194,542,591,861,964,367,175,406,393,667,853,305,734,600,814,460,30,332,594,140,932,213,844,706,400,557,288,273,978,707,685,793,214,527,46,106,402,672,136,996,571,821,266,497,369,615,116,235,817,871,812,428,887,546,820,838,892,11,825,463,779,426,828,200,673,248,459,80,721,747,433,338,773,942,457,576,802,85,193,222,199,26,469,738,12,249,505,177,919,703,440,676,319,280,186,366,847,568,277,737,113,806,659,528,411,262,959,521,514,16,401,768,221,69,386,729,383,70,780,486,326,688,461,800,498,796,44,55,952,234,382,569,872,444,716,890,470,154,477,438,331,567,45,602,856,29,484,64,166,197,786,730,10,831,307,118,209,610,306,159,148,132,762,603,24,983,550,618,781,597,680,545,151,66,559,518,880,792,869,948,3,566,437,345,162,423,458,195,669,541,63,341,866,0,648,361,450,531,318,787,772,156,859,938,120,342,215,399,873,900,946,865,495,637,731,282,320,51,665,987,22,218,585,110,529,242,301,499,283,387,34,256,435,754,752,252,96,686,961,924,147,805,524,988,389,278,810,605,564,885,506,292,42,921,973,822,743,850,966,170,852,138,582,741,755,152,286,945,434,515,720,447,233,717,710,362,275,422,970,102,150,408,984,764,379,587,635,549,799,579,355,899,146,27,700,624,324,573,445,279,217,616,777,845,378,481,520,48,915,778,316,237,253,939,963,791,133,427,504,398,323,691,744,370,898,662,725,858,748,638,297,539,396,675,656,158,891,409,284,556,377,227,18,927,745,926,251,639,75,99,257,339,561,58,354,157,940,312,141,245,834,261,76,554,606,750,719,415,705,417,784,631,336,188,171,74,558,657,436,974,21,488,239,758,267,652,129,751,390,718,229,523,123,682,71,83,107,715,644,552,971,609,330,380,300,185]","arrowleft","true","0","7","217","1000","[""0069_N1000_K0217_CLIQUE"",""0042_N1000_K0217_NOCLIQUE""]"
"audio-keyboard-response","66","475801","0.0-59.0-0.0-1.0","","","","","","","","","","","","","","","","","","","","","","","","","null","audio_feedback/right/coin01.mp3","null","","","","0","7","217","1000","[""0069_N1000_K0217_CLIQUE"",""0042_N1000_K0217_NOCLIQUE""]"
"canvas-keyboard-response","67","477747","0.0-60.0-0.0-0.0","","","","","","","","","","","","","","","","","","","","","","","","","881","","arrowleft","[758,806,746,119,177,382,809,182,204,95,479,176,676,762,242,100,65,665,707,752,975,346,906,979,616,67,337,855,898,903,549,226,943,712,162,791,408,644,473,700,142,982,529,368,29,681,981,286,563,289,13,731,840,274,606,599,359,510,429,175,667,516,518,594,614,907,235,306,508,215,77,490,956,513,894,955,372,159,251,419,983,8,33,964,169,309,687,962,61,14,881,88,308,934,464,92,137,650,810,432,952,631,597,766,865,925,509,150,811,468,246,789,5,53,304,567,270,783,335,611,190,118,716,90,425,897,469,208,458,583,94,139,767,39,278,164,160,324,835,587,144,199,999,671,28,35,659,931,880,899,830,378,71,750,276,481,232,239,536,853,9,590,527,759,439,331,673,826,848,939,188,415,279,284,825,585,949,727,280,973,915,834,902,692,395,847,414,531,154,522,715,525,557,258,223,662,779,93,147,64,254,580,521,259,422,778,996,626,689,492,361,500,954,412,546,757,180,255,929,364,58,357,784,17,937,211,3,133,170,271,624,172,98,32,231,423,66,540,388,543,629,75,544,980,6,695,561,269,859,601,480,786,467,477,143,192,152,455,413,565,417,725,668,948,267,120,23,466,101,923,526,50,436,798,463,186,12,351,966,46,501,871,833,560,841,520,607,634,128,821,870,770,691,410,475,338,24,930,507,729,813,998,127,844,54,910,772,913,591,20,116,42,749,909,63,822,926,145,273,710,117,645,666,416,724,317,800,197,572,828,393,484,739,670,974,298,499,161,744,688,816,350,292,720,233,620,790,10,904,578,391,838,598,755,340,858,453,153,389,890,26,517,887,315,709,935,970,377,431,652,748,566,74,15,40,936,892,718,426,158,72,328,807,430,181,657,817,804,532,945,802,131,227,787,146,867,52,656,785,447,988,819,512,728,836,140,353,932,333,342,505,341,73,669,541,347,706,493,562,379,457,281,660,630,339,111,424,22,394,404,582,478,639,193,362,443,795,576,449,358,545,330,80,4,515,985,564,494,36,380,428,680,123,167,356,185,19,266,240,642,646,701,901,265,471,225,375,663,62,726,294,613,243,951,861,866,503,990,367,191,104,325,823,37,16,310,774,782,533,179,401,402,886,967,723,30,207,864,392,174,781,421,272,313,81,245,664,872,924,302,446,366,399,288,511,942,171,586,683,550,875,210,452,839,636,155,381,592,627,122,829,238,102,256,407,460,761,363,602,777,960,451,448,126,803,947,349,764,961,115,815,863,832,995,573,862,703,214,768,387,854,373,745,843,946,135,737,530,212,470,216,205,236,472,43,896,195,311,751,972,287,637,992,589,674,850,987,788,519,400,647,418,461,623,277,556,134,343,354,953,55,322,41,300,796,558,869,303,87,994,849,714,355,908,771,883,600,922,108,978,218,808,49,722,685,296,323,336,360,776,103,579,638,717,690,965,105,874,677,261,321,649,1,888,672,693,141,760,59,831,459,91,528,713,82,765,794,78,282,941,608,551,911,696,812,230,548,957,301,86,405,918,984,318,124,553,474,971,121,217,149,130,444,38,780,763,933,320,959,498,374,56,136,654,950,699,248,262,610,148,655,285,604,721,991,332,488,523,502,456,376,385,635,406,445,198,612,109,851,615,183,178,884,241,114,596,70,588,873,113,702,326,605,450,316,396,487,895,893,977,879,860,570,237,112,307,882,371,621,775,156,312,593,151,496,476,397,263,534,697,275,435,345,769,253,79,291,989,497,268,383,60,166,44,618,99,196,489,958,756,704,814,249,617,555,799,820,189,403,584,658,730,21,846,220,299,801,2,51,857,640,559,283,293,554,184,247,257,224,260,437,708,504,914,889,83,818,568,163,993,742,106,868,365,976,684,569,264,805,661,917,344,698,314,348,250,229,694,369,252,900,625,885,963,125,297,11,234,440,643,837,628,165,845,434,168,84,736,574,609,682,876,209,57,132,483,619,219,352,69,622,319,679,200,678,329,940,76,603,194,827,0,986,916,370,228,89,138,482,792,384,486,34,327,491,571,18,442,68,398,334,651,433,206,462,427,454,506,390,968,793,221,719,633,438,912,581,420,705,7,129,732,575,110,905,733,535,539,187,969,653,173,773,753,202,213,45,842,920,891,648,632,754,919,27,305,514,542,295,641,47,537,927,495,97,738,928,547,524,877,465,743,797,595,741,25,290,409,734,386,222,552,157,201,921,856,944,675,203,538,711,48,96,85,740,852,735,411,878,577,441,686,485,997,107,244,31,747,938,824]","arrowleft","true","0","8","200","1000","[""0091_N1000_K0200_CLIQUE"",""0078_N1000_K0200_NOCLIQUE""]"
"audio-keyboard-response","68","478785","0.0-60.0-0.0-1.0","","","","","","","","","","","","","","","","","","","","","","","","","null","audio_feedback/right/coin01.mp3","null","","","","0","8","200","1000","[""0091_N1000_K0200_CLIQUE"",""0078_N1000_K0200_NOCLIQUE""]"
"canvas-keyboard-response","69","480519","0.0-61.0-0.0-0.0","","","","","","","","","","","","","","","","","","","","","","","","","737","","arrowright","[985,336,570,247,895,110,673,261,842,238,22,757,513,486,998,328,701,900,143,33,797,438,651,751,319,975,387,212,927,902,64,127,941,685,167,420,428,682,434,371,731,801,853,580,703,487,646,758,188,573,334,469,284,154,226,926,51,602,122,784,41,134,970,755,737,511,181,642,199,248,802,501,109,299,322,327,521,897,28,384,992,671,783,776,705,366,653,54,716,531,329,19,643,236,206,864,516,461,69,886,803,308,430,823,4,296,626,532,232,382,355,717,734,963,983,93,660,846,415,87,814,255,138,622,477,819,749,628,184,878,289,525,63,541,243,65,610,870,276,405,207,724,990,930,579,318,386,310,68,672,166,5,425,365,493,432,503,179,542,216,239,367,354,615,681,675,687,335,187,742,665,765,155,26,699,485,362,235,594,272,944,82,213,271,812,215,478,994,259,38,456,91,95,161,825,475,140,164,807,231,868,871,417,273,901,805,114,351,358,592,288,361,752,611,690,463,969,12,736,974,75,192,620,135,45,377,147,222,538,189,406,689,589,178,977,816,822,242,928,292,560,824,285,483,368,655,149,162,72,265,160,661,961,809,18,639,94,180,679,85,587,158,320,431,36,416,865,304,612,3,630,973,131,548,88,759,733,933,988,968,669,808,399,956,263,997,593,913,200,508,170,153,691,789,528,591,73,400,424,529,229,317,295,947,426,904,843,640,875,294,535,728,393,641,999,745,80,636,852,227,125,684,817,550,258,219,877,60,882,191,445,845,526,34,176,866,267,139,280,952,923,520,566,11,867,899,278,696,375,793,128,277,462,102,725,980,964,670,225,517,919,396,860,414,494,436,311,891,884,484,203,518,621,938,444,960,357,198,190,17,468,910,946,934,465,175,598,958,940,250,847,652,872,840,473,957,59,654,820,829,324,490,775,204,804,408,340,348,496,869,1,659,230,287,785,921,512,713,315,347,391,887,625,770,790,14,249,748,761,534,791,787,452,83,981,24,390,392,495,79,632,735,680,150,965,345,133,678,917,286,76,881,381,976,851,373,722,283,306,549,777,605,633,422,224,771,558,726,321,460,546,20,698,77,0,880,44,677,937,909,568,55,407,312,108,522,830,551,360,454,772,885,577,769,718,552,401,618,297,211,931,694,53,695,302,279,488,575,124,98,443,411,427,223,984,948,562,732,260,515,459,553,637,107,991,245,557,81,806,810,418,274,412,986,711,800,813,205,556,700,500,43,115,442,954,376,174,196,951,9,537,506,142,959,8,419,862,567,228,50,2,707,896,576,479,379,794,126,668,61,914,363,177,254,342,779,906,818,729,171,492,385,173,112,66,251,585,268,727,146,269,433,27,962,208,339,380,949,635,753,607,688,861,119,333,439,686,773,23,89,482,281,383,936,241,341,480,237,370,449,423,658,395,214,710,217,565,971,778,545,648,837,524,719,796,472,702,332,708,186,49,650,29,706,569,774,821,617,849,446,145,966,903,78,967,978,309,908,86,746,330,313,833,527,600,762,763,352,811,499,290,202,62,56,590,182,645,130,647,720,97,497,874,995,474,471,100,16,504,457,883,907,950,850,240,854,185,697,489,912,588,129,509,756,835,916,338,163,858,795,118,768,201,402,132,157,337,894,828,343,935,604,183,389,262,331,39,596,996,766,839,71,747,595,99,892,634,911,152,836,470,657,786,972,683,555,168,942,666,644,631,741,656,505,195,403,890,715,544,533,943,52,624,244,627,67,540,282,169,561,536,798,704,111,764,325,256,929,30,623,398,159,743,888,253,856,275,832,945,932,455,6,857,234,498,7,323,194,350,113,84,662,510,70,603,730,394,48,831,578,599,314,924,210,574,453,303,848,74,738,925,826,13,437,547,264,559,220,873,378,353,42,151,257,359,581,554,629,507,767,316,780,344,989,863,740,440,601,918,583,693,372,781,792,92,613,301,270,993,193,197,447,103,582,32,664,750,543,31,788,374,464,898,349,46,841,57,448,451,855,760,939,104,25,15,714,827,144,429,404,106,530,667,723,834,491,58,435,619,721,584,674,616,838,539,514,141,293,364,859,893,844,609,413,915,476,221,369,388,233,799,305,116,298,346,156,441,519,739,123,920,879,955,571,105,120,458,982,586,148,597,218,712,246,47,953,136,663,450,467,90,754,409,307,117,889,165,121,614,815,40,502,21,397,35,563,564,979,252,649,481,172,356,421,523,606,291,300,266,96,692,744,782,608,709,987,676,922,10,209,326,572,137,410,638,876,466,905,101,37]","arrowright","true","0","9","200","1000","[""0007_N1000_K0200_NOCLIQUE"",""0092_N1000_K0200_CLIQUE""]"
"audio-keyboard-response","70","481559","0.0-61.0-0.0-1.0","","","","","","","","","","","","","","","","","","","","","","","","","null","audio_feedback/right/coin01.mp3","null","","","","0","9","200","1000","[""0007_N1000_K0200_NOCLIQUE"",""0092_N1000_K0200_CLIQUE""]"
"canvas-keyboard-response","71","483410","0.0-62.0-0.0-0.0","","","","","","","","","","","","","","","","","","","","","","","","","829","","arrowleft","[191,324,273,599,988,771,790,408,331,249,193,264,95,321,162,168,429,459,837,770,474,153,36,677,972,461,244,855,41,223,466,781,456,74,965,374,495,411,930,346,605,657,716,658,48,624,392,690,120,93,696,415,784,377,16,508,413,674,765,488,874,920,229,433,96,679,506,538,581,428,936,438,935,370,905,551,529,889,718,274,484,144,242,399,195,615,123,502,134,503,757,89,629,136,527,388,317,480,813,137,558,732,928,740,780,700,775,856,543,133,852,711,924,694,779,308,489,591,90,633,292,654,329,530,665,63,187,940,641,861,597,938,135,859,482,960,468,98,906,359,892,998,322,742,458,651,749,235,451,576,69,886,914,46,957,722,817,174,471,254,695,226,128,146,385,221,45,334,563,570,281,217,241,627,763,204,283,882,501,351,646,379,227,686,208,446,715,420,180,753,791,908,349,891,915,56,575,237,454,653,516,287,579,159,355,926,256,175,357,838,827,149,60,22,507,9,366,726,224,353,376,444,954,360,772,699,714,556,222,391,84,845,904,363,238,962,131,702,15,138,561,983,186,294,259,361,547,17,383,862,10,586,634,79,522,873,603,756,626,621,961,66,465,202,205,206,614,55,584,139,73,231,88,664,848,921,951,352,987,919,510,34,636,386,894,87,799,257,991,475,487,801,769,124,486,369,431,0,478,394,405,540,776,417,320,434,409,927,29,877,941,28,504,863,514,535,536,841,309,745,589,602,171,270,310,337,147,192,295,92,197,442,342,443,963,598,462,449,284,225,786,738,572,693,829,682,564,373,176,250,902,182,220,647,912,316,834,378,86,203,505,103,472,519,419,839,212,5,545,452,808,490,476,160,305,712,498,236,840,291,32,916,725,94,705,768,145,833,758,747,828,925,169,900,910,796,774,400,708,511,190,340,949,687,888,365,184,247,992,477,531,154,628,4,240,810,436,706,568,865,803,814,567,937,491,509,179,672,214,111,994,245,108,697,523,83,194,759,125,802,64,403,596,455,325,14,923,907,62,118,110,372,996,70,354,26,842,720,500,425,692,457,481,199,251,25,395,470,978,956,253,997,896,127,832,390,113,717,831,117,129,569,637,18,119,423,709,453,341,416,347,485,181,533,439,389,493,676,578,77,362,713,188,43,703,447,68,106,261,762,787,931,252,343,35,619,739,78,812,37,735,515,594,748,577,982,830,751,868,296,81,165,209,314,583,539,464,397,59,499,549,526,109,752,880,746,644,384,901,100,410,345,669,132,437,750,348,977,216,332,21,976,574,573,986,858,163,301,30,785,13,326,595,544,918,691,773,971,371,336,210,959,67,215,130,463,546,479,265,185,31,946,248,876,613,114,593,143,639,587,302,608,869,65,985,42,121,272,609,860,424,820,607,663,12,358,704,948,867,793,315,276,298,327,844,232,642,819,344,616,766,933,306,201,537,418,82,75,166,794,520,53,659,140,430,548,881,2,969,645,414,809,126,1,559,826,612,333,701,196,97,412,164,112,150,815,600,6,974,266,967,981,263,761,816,401,255,557,170,649,854,685,427,406,671,782,667,286,71,623,560,929,887,54,958,683,835,950,469,460,934,952,311,853,518,104,681,588,601,698,426,990,975,323,688,979,606,898,367,656,300,8,953,297,899,23,554,617,243,268,661,299,47,760,387,582,805,303,913,239,279,552,228,246,282,72,534,492,942,870,788,767,52,947,741,148,966,407,783,76,496,39,27,857,277,648,836,807,734,680,736,849,50,58,728,719,550,167,513,275,797,7,356,825,541,293,650,207,632,364,381,152,806,989,450,441,850,290,304,99,973,917,24,80,789,999,630,625,689,312,218,368,944,61,864,318,733,922,421,610,307,777,562,668,778,319,115,638,211,743,804,710,335,871,189,49,177,893,890,57,755,955,101,872,727,640,723,670,497,611,393,483,382,422,684,432,585,737,666,945,494,811,269,40,183,440,823,673,885,404,172,278,91,897,102,939,822,473,233,580,198,448,824,517,883,51,234,662,178,984,157,258,328,884,271,675,798,754,729,764,993,285,571,213,895,721,3,875,262,116,620,911,980,635,435,524,156,20,158,553,652,903,107,590,200,943,330,398,338,964,532,565,44,161,313,843,339,11,230,846,631,33,618,866,288,542,566,847,909,724,375,512,555,818,821,142,151,879,396,592,350,105,521,267,155,85,289,280,604,792,622,800,744,141,932,660,795,445,219,970,995,173,730,968,260,122,678,878,38,525,402,655,380,19,707,851,528,467,731,643]","arrowleft","true","0","10","183","1000","[""0074_N1000_K0183_CLIQUE"",""0021_N1000_K0183_NOCLIQUE""]"
"audio-keyboard-response","72","484460","0.0-62.0-0.0-1.0","","","","","","","","","","","","","","","","","","","","","","","","","null","audio_feedback/right/coin01.mp3","null","","","","0","10","183","1000","[""0074_N1000_K0183_CLIQUE"",""0021_N1000_K0183_NOCLIQUE""]"
"canvas-keyboard-response","73","486381","0.0-63.0-0.0-0.0","","","","","","","","","","","","","","","","","","","","","","","","","887","","arrowright","[183,455,650,207,374,745,964,431,944,322,19,210,76,181,96,641,301,355,448,295,627,63,277,820,764,82,512,608,391,467,22,537,211,697,458,188,644,980,968,235,459,513,849,425,360,896,4,216,213,721,590,777,674,753,924,77,587,382,44,893,593,684,227,762,686,347,999,977,857,177,768,32,199,497,313,17,963,160,774,112,200,542,494,291,921,116,892,55,906,737,272,729,517,670,606,816,771,623,925,271,80,372,318,161,905,203,1,506,862,805,452,202,240,600,37,779,46,556,544,947,33,766,328,423,487,307,711,234,581,830,111,800,688,359,352,484,8,172,967,159,798,760,302,953,500,589,687,332,699,388,613,493,912,876,838,919,966,346,289,358,415,35,463,180,11,772,236,694,367,833,152,321,945,69,678,337,219,453,174,568,720,582,399,679,642,292,610,861,847,807,169,29,981,405,436,127,58,960,15,155,970,696,444,120,673,776,135,898,70,853,85,468,881,208,936,385,380,7,266,895,92,3,376,496,16,930,948,137,920,317,145,28,790,331,186,396,143,534,378,916,190,499,254,281,125,402,821,975,619,637,842,417,478,107,418,858,142,769,584,464,941,554,602,716,276,427,834,228,614,303,860,51,363,841,621,955,683,66,988,449,972,182,612,717,361,731,934,122,549,818,989,950,384,689,873,900,185,156,340,437,555,704,856,121,157,255,850,264,742,293,299,168,36,114,647,813,247,539,263,253,373,343,782,648,746,775,887,668,808,740,747,387,40,710,377,883,531,221,938,743,275,754,364,785,738,572,973,797,993,601,976,523,222,170,462,884,519,692,703,341,564,171,375,123,915,60,270,256,792,810,479,511,141,969,389,734,88,787,267,863,56,356,45,962,278,757,865,147,438,736,284,354,214,424,52,167,835,366,379,238,83,428,149,907,846,784,518,456,653,992,559,175,514,134,73,151,10,205,13,25,489,951,943,473,31,573,397,71,579,957,492,852,558,422,466,383,429,755,665,540,575,176,524,899,330,563,192,667,546,72,585,59,751,954,162,300,329,404,931,251,814,956,102,630,781,661,628,212,504,5,773,93,732,108,616,631,702,472,6,624,476,482,407,495,868,94,998,243,9,325,677,946,844,611,194,922,237,889,984,994,369,548,357,505,578,408,230,649,658,503,520,874,709,124,643,599,750,825,201,229,140,223,646,39,728,869,193,433,918,594,595,446,986,345,691,158,115,983,799,411,294,530,312,707,498,831,469,268,525,163,545,348,215,79,166,812,326,855,626,129,788,662,165,198,735,288,481,987,693,100,435,888,440,335,748,126,406,793,191,870,48,439,309,65,580,509,845,827,154,131,682,894,780,250,911,832,483,195,822,21,522,908,615,110,763,635,796,965,501,794,718,565,997,676,443,770,917,490,286,569,296,258,206,885,139,461,249,603,128,98,708,432,705,84,552,95,20,879,521,826,24,560,460,566,43,864,547,786,815,942,664,882,839,636,106,634,34,828,867,713,657,937,733,645,752,491,89,617,351,978,725,690,510,767,350,260,344,138,730,724,426,239,508,939,49,562,660,961,403,698,700,759,902,262,220,958,386,629,933,434,669,533,209,150,886,809,878,441,91,715,904,451,854,421,27,42,910,897,596,245,671,109,723,991,848,370,217,795,471,475,261,86,398,719,541,592,550,598,381,655,409,651,744,639,571,414,507,804,445,338,273,620,14,875,53,940,574,282,394,118,789,485,923,928,430,739,901,486,319,280,314,178,242,349,412,81,949,995,401,64,553,400,802,298,315,390,927,342,609,778,62,607,113,722,197,232,371,551,187,144,761,457,824,130,413,681,680,104,274,577,173,105,290,103,474,586,362,714,638,334,652,597,996,311,74,189,38,392,741,305,410,837,749,269,618,75,654,935,184,588,591,320,880,196,78,570,502,528,416,836,726,304,368,543,806,146,866,817,41,480,982,929,527,179,26,246,913,685,890,132,871,622,265,605,932,756,30,811,12,909,656,306,454,164,395,851,477,765,308,136,226,979,985,872,583,248,604,535,791,336,323,339,727,23,99,640,801,663,224,783,297,803,218,97,231,327,447,316,133,450,333,204,67,18,823,706,419,244,465,819,283,952,233,488,241,515,695,225,54,117,659,61,324,529,90,561,287,959,675,672,712,632,516,393,470,829,259,68,576,633,353,758,567,974,252,914,87,903,257,101,625,279,877,153,285,0,50,119,365,532,557,891,840,926,57,47,859,536,310,2,442,148,843,971,990,666,538,526,701,420]","arrowright","true","0","11","183","1000","[""0028_N1000_K0183_NOCLIQUE"",""0017_N1000_K0183_CLIQUE""]"
"audio-keyboard-response","74","487410","0.0-63.0-0.0-1.0","","","","","","","","","","","","","","","","","","","","","","","","","null","audio_feedback/right/coin01.mp3","null","","","","0","11","183","1000","[""0028_N1000_K0183_NOCLIQUE"",""0017_N1000_K0183_CLIQUE""]"
"canvas-keyboard-response","75","489608","0.0-64.0-0.0-0.0","","","","","","","","","","","","","","","","","","","","","","","","","1190","","arrowleft","[387,217,731,761,992,870,982,779,473,839,946,616,258,305,902,337,877,803,383,318,646,181,230,774,76,220,550,372,74,734,911,929,102,158,436,166,276,300,196,390,212,510,720,812,312,411,615,722,437,491,795,647,848,409,673,841,159,295,104,717,116,47,105,350,588,14,998,529,149,380,326,862,184,51,962,938,585,604,971,340,664,951,428,633,679,711,767,204,179,614,35,456,349,882,316,253,785,557,598,256,339,968,28,461,909,695,906,817,890,146,718,382,386,363,67,487,566,988,133,866,980,65,974,304,760,868,546,486,884,642,197,435,927,242,341,723,853,178,11,333,984,818,549,235,582,570,232,455,783,583,657,525,829,587,648,754,39,145,101,634,359,357,243,321,450,155,702,827,530,222,132,643,399,638,336,475,463,544,838,274,898,912,969,918,921,213,577,477,92,352,283,832,558,800,845,55,963,572,626,186,121,641,311,90,978,371,165,83,790,285,57,681,504,143,655,45,490,739,328,864,86,786,297,454,189,215,19,930,331,932,98,195,948,306,224,347,335,905,498,689,203,823,323,52,994,175,459,330,439,735,732,950,683,849,187,708,227,94,819,555,167,725,778,879,953,792,63,406,995,75,686,736,876,351,874,574,32,624,413,869,17,922,223,891,7,699,362,523,622,781,782,553,25,171,229,576,913,308,509,528,216,796,164,668,488,586,903,396,958,138,334,492,692,40,597,430,61,432,42,152,325,740,833,859,24,983,517,979,465,993,291,652,135,934,79,9,925,707,952,358,401,539,147,672,441,476,365,49,840,282,376,579,892,78,505,374,658,887,408,499,928,607,225,345,206,714,248,970,956,369,278,161,381,457,129,480,12,975,985,15,355,973,344,855,64,415,564,828,332,535,571,511,502,831,378,669,923,524,562,694,787,940,453,280,163,471,314,755,513,997,113,136,753,595,307,462,433,412,619,916,259,119,716,837,875,537,360,2,791,172,440,599,303,559,960,797,567,50,543,106,71,961,521,554,429,85,208,850,160,771,449,368,10,144,685,36,858,520,264,867,494,939,857,219,93,423,348,426,84,141,211,777,793,109,58,880,893,126,176,445,424,70,397,532,873,712,293,194,292,976,123,485,117,151,59,366,247,72,268,955,188,142,889,629,545,82,377,495,23,442,271,865,915,926,621,319,904,288,763,99,589,650,183,937,244,320,431,636,580,931,41,759,367,103,446,924,207,768,221,69,353,806,484,551,947,263,384,757,481,515,298,447,364,667,645,987,391,322,944,199,617,193,260,552,427,370,719,662,600,821,27,73,66,536,507,4,618,466,153,606,637,324,682,861,920,592,596,97,836,464,250,584,470,798,820,392,899,60,177,825,296,468,120,526,807,281,854,111,569,900,744,578,125,751,908,573,527,407,533,257,519,826,286,644,688,561,593,814,169,878,192,531,77,395,168,749,972,110,518,594,403,237,137,418,157,609,88,780,21,273,581,506,917,965,999,775,469,156,100,676,919,173,541,8,202,630,154,482,729,738,687,18,343,710,675,13,249,122,22,977,266,690,398,1,896,112,302,769,805,252,627,38,522,632,452,422,200,743,548,114,267,338,967,871,443,170,514,236,746,388,639,770,625,733,310,730,852,801,444,701,547,53,26,185,201,400,942,659,493,467,148,478,251,438,130,684,43,284,742,389,538,209,30,501,289,815,460,605,808,709,483,565,404,95,421,393,80,414,830,894,747,315,762,118,16,68,851,134,981,542,724,822,31,6,417,631,666,752,706,670,964,656,198,405,89,986,503,451,966,813,991,680,635,301,91,741,361,162,789,895,804,299,568,591,131,479,425,608,776,238,843,696,500,935,691,420,750,29,402,834,239,835,150,700,758,329,245,190,943,728,816,665,240,888,653,115,472,265,945,254,715,907,309,872,48,275,794,46,246,81,727,346,661,613,205,713,290,628,226,342,496,327,516,269,773,863,883,563,654,214,560,671,886,603,255,989,419,458,5,375,612,623,640,62,811,705,996,693,108,772,37,810,474,847,174,901,140,20,674,0,434,231,910,373,127,124,354,704,497,56,703,210,356,809,234,191,663,128,649,262,766,737,914,990,748,698,756,697,294,317,228,764,842,448,410,765,270,959,277,272,860,218,941,139,660,721,824,784,620,611,844,313,107,575,678,856,802,180,385,261,957,241,3,556,34,512,601,949,881,590,954,799,610,745,33,394,726,508,287,933,379,416,534,44,96,897,602,87,846,936,677,540,885,182,279,651,489,54,788,233]","arrowleft","true","0","12","167","1000","[""0059_N1000_K0167_CLIQUE"",""0090_N1000_K0167_NOCLIQUE""]"
"audio-keyboard-response","76","490656","0.0-64.0-0.0-1.0","","","","","","","","","","","","","","","","","","","","","","","","","null","audio_feedback/right/coin01.mp3","null","","","","0","12","167","1000","[""0059_N1000_K0167_CLIQUE"",""0090_N1000_K0167_NOCLIQUE""]"
"canvas-keyboard-response","77","492809","0.0-65.0-0.0-0.0","","","","","","","","","","","","","","","","","","","","","","","","","1222","","arrowleft","[113,749,485,103,447,68,841,610,787,608,150,77,718,86,815,210,880,30,28,257,320,219,353,99,127,332,292,467,958,801,100,247,794,705,549,936,883,360,575,88,852,714,791,871,951,761,879,206,716,857,946,676,851,265,504,603,41,4,694,982,178,540,52,987,471,246,508,640,215,646,942,861,82,715,828,554,2,315,183,797,9,939,659,310,776,522,263,475,996,189,57,164,607,813,309,239,405,899,137,786,17,804,560,304,701,389,218,261,465,449,284,623,274,291,44,335,866,747,528,119,726,649,307,211,822,582,897,919,373,849,340,619,255,212,537,195,387,516,230,381,259,228,578,148,417,842,627,848,924,820,969,940,928,395,514,670,474,343,362,439,295,352,37,737,185,916,85,762,238,764,507,408,154,463,302,318,64,344,479,704,288,956,550,673,122,943,759,917,312,236,604,357,769,527,81,581,184,896,428,793,92,220,945,172,468,421,55,765,222,348,767,21,168,277,62,271,669,680,107,361,349,454,638,819,754,80,75,885,339,544,192,233,382,675,598,775,748,618,398,904,602,379,120,876,557,10,596,484,12,433,42,39,984,308,905,209,713,538,816,847,513,831,576,846,570,166,690,275,268,322,188,832,163,702,699,97,808,632,829,273,281,390,397,953,43,49,898,503,562,386,641,741,654,660,667,525,978,624,376,174,742,763,592,892,725,971,802,70,569,298,985,121,856,492,642,205,920,585,385,615,175,170,337,194,811,778,780,517,964,432,779,655,636,835,244,301,393,276,650,536,781,490,140,983,721,34,324,707,167,697,384,351,729,0,912,488,938,388,32,980,406,800,270,440,420,930,79,251,313,299,617,53,20,732,923,577,539,27,377,74,47,411,169,906,572,414,957,50,616,613,658,65,547,493,347,710,730,446,803,364,753,345,818,591,358,375,289,303,840,567,241,633,757,736,256,365,874,260,944,630,455,685,424,743,278,545,296,738,367,682,464,672,600,300,756,472,401,369,286,709,653,533,750,160,66,372,101,798,226,317,51,266,450,482,926,35,724,505,565,498,922,838,864,903,285,657,58,229,76,931,316,502,817,789,745,583,918,506,416,139,981,543,264,597,350,661,223,153,458,466,443,758,668,555,735,404,720,221,204,294,63,887,571,687,719,216,614,146,130,165,867,556,558,254,895,102,429,201,473,770,548,869,722,149,966,925,723,937,96,78,152,711,760,252,833,968,282,809,551,200,456,258,462,31,853,45,629,695,799,306,586,728,11,526,374,412,546,854,13,774,145,927,696,253,836,452,712,155,321,574,960,293,674,202,768,131,620,988,563,844,8,123,825,112,497,850,594,487,995,190,959,138,435,535,48,319,436,207,531,494,967,634,338,755,900,391,717,744,693,891,909,132,590,217,496,359,510,459,606,519,477,530,104,691,126,821,997,509,159,162,979,746,886,688,949,16,392,782,965,921,197,489,171,93,272,6,198,566,326,430,438,410,865,237,29,529,639,810,457,94,580,72,342,941,90,683,532,827,666,135,380,69,476,553,354,970,644,73,181,568,461,677,524,518,845,25,481,914,542,664,427,422,796,877,213,992,788,862,878,413,977,370,331,469,363,889,451,267,109,187,445,973,336,158,15,95,908,234,434,151,38,442,136,402,645,611,444,679,651,500,84,297,214,250,415,407,125,5,19,823,305,990,71,733,269,118,739,935,999,998,114,180,327,954,703,834,933,902,855,176,515,323,830,328,329,61,346,612,431,740,561,280,991,83,262,87,559,23,534,89,777,325,355,26,203,133,913,635,143,54,240,873,383,117,60,911,656,227,242,199,483,470,141,588,290,437,894,684,859,403,993,622,3,491,929,409,647,961,453,14,330,368,665,772,36,480,824,448,837,662,579,584,478,225,972,605,910,106,573,441,425,839,279,396,56,248,124,932,333,601,91,752,521,24,731,790,495,888,115,595,751,142,631,231,287,734,814,105,499,773,161,18,110,637,962,890,872,366,975,182,378,952,863,858,341,843,671,423,628,625,249,792,868,989,46,111,177,681,860,232,311,678,235,314,22,511,766,520,552,648,692,156,419,626,186,208,593,587,157,708,179,523,875,245,460,394,882,564,512,356,33,243,621,67,963,784,193,686,706,884,689,1,955,108,934,771,948,196,418,881,224,589,947,915,541,7,426,134,785,795,371,144,486,129,191,974,907,807,901,399,893,283,976,652,609,334,663,994,599,727,698,59,812,147,805,116,986,98,806,128,700,826,40,643,501,173,950,870,400,783]","arrowleft","true","0","13","167","1000","[""0017_N1000_K0167_CLIQUE"",""0041_N1000_K0167_NOCLIQUE""]"
"audio-keyboard-response","78","493838","0.0-65.0-0.0-1.0","","","","","","","","","","","","","","","","","","","","","","","","","null","audio_feedback/right/coin01.mp3","null","","","","0","13","167","1000","[""0017_N1000_K0167_CLIQUE"",""0041_N1000_K0167_NOCLIQUE""]"
"canvas-keyboard-response","79","495954","0.0-66.0-0.0-0.0","","","","","","","","","","","","","","","","","","","","","","","","","1077","","arrowright","[813,908,988,815,169,707,509,551,885,944,693,339,413,598,892,764,533,94,719,26,830,329,92,118,237,841,968,226,265,292,232,543,706,898,673,760,264,89,926,848,723,969,25,633,663,503,442,50,523,461,487,561,612,383,738,184,540,373,973,809,7,651,967,79,490,16,549,221,29,418,360,785,966,897,912,245,344,994,831,188,193,699,929,925,874,233,157,677,737,42,755,989,8,178,736,216,933,834,977,306,782,95,670,374,793,654,305,158,971,179,5,57,479,91,299,771,234,955,452,105,621,995,316,137,676,724,414,451,147,235,488,820,319,772,282,512,776,981,257,323,242,159,406,788,294,489,579,725,562,511,692,580,300,569,991,463,616,436,790,577,51,682,679,455,529,550,689,747,332,774,613,296,469,423,12,109,76,936,923,153,132,769,521,288,497,589,341,664,584,261,116,708,532,970,887,752,502,530,862,851,964,434,975,67,615,753,795,211,491,910,622,700,697,150,952,538,990,398,554,128,637,837,72,476,111,170,780,542,229,735,829,805,250,389,88,17,283,765,68,387,445,513,883,894,965,450,818,797,345,846,213,259,748,518,850,648,454,395,380,83,917,683,320,590,806,842,27,183,517,99,424,687,152,839,858,315,807,720,597,293,778,144,362,484,486,164,954,433,192,161,827,787,4,711,826,730,726,381,674,421,238,230,416,393,828,639,900,66,177,865,131,126,507,647,194,617,516,602,744,335,728,922,578,701,761,38,662,531,186,369,130,307,659,978,207,208,401,641,347,378,368,586,768,400,804,247,203,510,472,932,812,836,817,796,572,671,567,997,428,625,270,875,593,953,556,243,527,467,649,816,318,759,417,119,524,614,650,552,141,32,200,626,860,987,422,134,429,269,798,36,940,190,241,10,886,585,314,410,198,571,279,680,727,191,366,202,824,394,251,757,407,168,913,34,979,520,599,473,935,715,763,162,275,959,289,138,69,691,271,284,447,333,402,587,833,39,280,114,694,312,722,156,214,357,904,236,756,104,931,225,866,438,906,206,40,309,721,139,106,506,324,435,731,197,217,901,822,58,431,349,907,440,948,607,171,920,166,220,61,573,49,861,52,947,53,405,146,743,783,327,902,274,224,397,606,21,120,77,210,175,352,1,365,33,342,500,55,635,961,661,840,415,154,246,582,382,20,23,775,260,823,14,791,437,263,35,483,379,204,205,667,371,546,879,890,871,504,87,492,644,844,884,453,859,443,949,710,375,41,372,808,525,802,515,634,334,915,311,943,86,675,3,773,976,19,618,252,112,983,996,278,698,44,45,801,298,174,359,474,872,734,574,642,219,498,544,878,505,102,291,110,945,946,123,390,18,248,63,666,681,256,125,799,739,880,244,348,501,958,709,623,343,891,993,611,519,37,835,903,982,322,392,62,704,209,514,751,656,852,196,784,608,358,262,896,631,992,70,267,321,43,873,811,545,895,750,22,714,328,941,870,133,386,425,432,15,142,558,485,458,800,646,313,325,101,103,655,583,481,13,508,303,843,93,592,998,124,404,281,149,107,741,696,854,266,462,705,74,457,939,594,930,172,477,30,733,480,652,770,302,494,297,867,84,346,927,338,113,399,181,108,212,117,555,364,155,980,937,746,620,277,553,151,78,789,792,2,876,942,972,496,717,295,564,356,528,803,712,869,638,460,938,6,350,100,877,609,351,758,223,619,855,821,672,439,563,688,199,136,446,140,685,914,47,160,713,276,363,388,9,962,629,48,391,591,46,340,353,810,444,187,185,779,576,82,441,201,754,464,921,881,669,115,408,24,239,628,456,258,420,547,853,215,985,121,73,934,98,732,984,81,493,218,857,684,919,565,911,695,273,499,716,65,814,287,916,227,180,304,0,495,376,596,729,604,310,249,145,581,745,924,412,601,905,272,231,326,950,863,396,285,71,539,268,630,893,636,470,548,286,909,449,468,465,11,308,640,600,605,97,595,653,534,301,535,427,963,794,957,849,541,195,143,361,28,819,330,559,718,686,999,575,645,471,240,624,868,845,370,825,478,80,430,56,173,331,482,165,588,749,336,526,419,742,657,176,658,459,409,254,847,377,777,135,986,960,610,129,522,762,426,355,466,222,403,566,856,888,781,703,189,537,632,668,665,899,317,59,228,603,832,627,786,167,367,54,127,75,96,889,956,448,570,31,475,411,385,148,678,643,255,740,253,90,64,660,384,864,928,122,882,337,290,560,838,766,557,354,568,918,536,163,767,702,60,690,951,182,85,974]","arrowright","true","0","14","150","1000","[""0087_N1000_K0150_NOCLIQUE"",""0018_N1000_K0150_CLIQUE""]"
"audio-keyboard-response","80","497000","0.0-66.0-0.0-1.0","","","","","","","","","","","","","","","","","","","","","","","","","null","audio_feedback/right/coin01.mp3","null","","","","0","14","150","1000","[""0087_N1000_K0150_NOCLIQUE"",""0018_N1000_K0150_CLIQUE""]"
"canvas-keyboard-response","81","500258","0.0-67.0-0.0-0.0","","","","","","","","","","","","","","","","","","","","","","","","","2232",""," ","[150,26,449,256,357,338,141,759,622,986,810,268,775,703,69,296,484,378,262,385,920,989,924,796,572,314,773,442,412,712,602,632,275,6,778,652,694,836,106,253,102,231,54,206,218,915,234,189,537,310,839,305,553,686,704,170,931,148,744,267,458,996,113,641,353,560,85,884,585,436,547,215,205,70,13,707,561,155,669,851,133,820,457,452,130,798,536,995,21,845,693,2,774,67,974,416,541,482,301,723,343,970,578,926,899,324,630,259,135,762,298,274,11,954,156,566,569,12,501,422,653,114,559,20,398,517,453,510,372,56,855,96,197,309,951,950,577,230,363,176,891,420,823,722,440,875,625,169,426,695,767,349,533,258,167,826,447,549,238,350,72,879,518,726,940,556,134,783,841,829,209,45,660,831,81,191,952,437,352,873,307,251,956,983,938,165,909,648,863,232,734,360,496,675,745,289,8,520,433,806,795,147,498,580,944,750,637,576,392,968,505,228,9,570,14,226,164,329,184,284,63,869,893,382,808,980,98,521,601,425,506,558,208,691,838,61,866,696,872,874,618,935,368,827,74,844,279,791,365,740,325,1,202,159,834,623,250,5,606,441,747,499,19,92,919,610,999,727,459,573,817,190,219,554,529,617,903,754,805,859,4,120,749,290,75,125,665,661,698,787,236,318,387,887,315,540,22,88,260,993,36,715,943,955,379,149,793,922,677,358,432,439,526,239,876,544,705,316,822,97,308,94,112,605,963,117,446,341,393,584,598,346,44,807,466,333,41,764,522,34,59,361,862,939,276,984,188,668,291,761,985,531,597,770,33,966,492,976,377,78,590,249,947,448,709,116,107,574,163,335,921,664,29,10,140,916,679,685,323,732,997,933,413,929,241,865,495,690,168,467,892,450,746,626,86,438,901,535,532,552,248,635,487,55,220,853,843,586,396,611,593,579,941,64,58,192,600,138,850,43,7,369,71,718,145,846,710,173,428,30,15,52,848,923,153,575,293,588,313,242,990,765,959,519,792,937,31,108,181,330,763,348,596,60,65,961,295,516,507,283,620,121,912,166,895,741,82,882,402,587,110,269,821,265,227,280,195,957,998,322,682,356,490,530,888,99,594,80,302,472,311,643,139,340,515,743,185,897,339,512,657,751,835,229,359,604,32,736,717,852,334,292,716,277,871,497,925,445,671,504,362,636,158,913,928,847,701,247,454,849,355,894,687,456,706,638,146,524,101,733,122,332,255,389,224,273,373,672,612,802,832,455,40,713,962,896,76,35,162,286,799,977,18,405,451,400,391,666,132,508,196,479,383,890,68,337,399,621,154,654,885,328,471,272,967,981,737,95,388,699,659,312,278,270,494,905,326,245,281,473,430,548,946,555,183,223,151,418,545,142,958,878,513,481,367,676,304,994,394,199,143,0,934,201,788,670,627,889,347,927,800,614,421,136,476,748,198,119,319,342,477,261,118,460,336,187,609,90,375,833,282,178,403,786,503,719,303,364,180,299,567,742,384,857,803,49,725,243,629,758,948,769,692,46,152,880,407,982,973,500,539,478,93,212,781,658,731,431,642,317,321,904,87,902,883,126,911,756,790,175,200,509,527,285,423,814,257,910,953,410,109,645,663,730,918,582,634,738,906,266,157,662,50,864,288,404,991,244,842,240,680,969,211,48,401,830,650,804,51,914,485,221,930,546,777,735,766,683,419,776,942,390,25,917,551,945,964,42,624,468,785,194,444,681,840,571,124,592,463,673,616,688,975,828,327,24,414,222,111,16,83,306,417,589,595,73,714,815,772,651,210,837,979,411,649,528,678,877,854,179,819,720,354,214,543,427,480,345,615,523,591,794,729,429,992,824,858,960,264,514,470,809,409,28,395,144,987,371,254,739,684,271,171,782,344,667,534,237,542,182,708,674,216,39,137,160,62,374,351,57,697,907,949,728,757,246,860,465,818,386,752,564,881,474,581,816,647,971,331,186,753,711,721,100,217,898,233,797,563,784,320,488,779,443,252,583,856,84,870,177,475,502,936,406,640,780,462,724,89,700,760,464,408,886,461,79,965,811,415,105,599,483,702,129,932,628,562,131,755,469,380,204,813,988,3,37,366,491,263,115,972,38,861,978,493,294,370,768,434,511,203,300,644,435,550,639,646,633,287,607,656,66,172,825,193,174,608,104,489,161,525,27,397,47,127,631,771,213,381,867,801,207,812,789,225,619,103,689,128,603,235,565,900,908,424,613,655,557,17,538,91,868,53,486,23,123,77,297,376,568]","arrowright","","0","15","150","1000","[""0025_N1000_K0150_NOCLIQUE"",""0092_N1000_K0150_CLIQUE""]"
"audio-keyboard-response","82","501386","0.0-67.0-0.0-1.0","","","","","","","","","","","","","","","","","","","","","","","","","null","audio_feedback/shuffles/shuffle01.mp3","null","","","","0","15","150","1000","[""0025_N1000_K0150_NOCLIQUE"",""0092_N1000_K0150_CLIQUE""]"
"canvas-keyboard-response","83","504658","0.0-67.1-0.1-0.1","","","","","","","","","","","","","","","","","","","","","","","","","2229",""," ","[411,960,103,609,232,631,833,456,284,115,389,586,568,155,822,509,479,847,689,169,664,173,874,404,203,801,447,528,505,418,214,468,213,270,44,850,877,522,493,839,268,970,939,188,398,415,421,209,936,985,502,313,403,24,98,562,508,571,141,346,920,626,423,706,672,841,78,47,846,538,900,137,67,691,748,253,963,464,249,928,288,511,671,30,158,589,309,121,436,428,216,95,548,118,887,546,143,160,938,56,437,800,429,859,354,218,400,245,335,863,624,166,431,195,903,688,772,215,843,41,621,49,441,82,638,305,123,11,62,953,785,277,81,65,87,645,194,219,909,25,342,701,598,140,472,516,327,987,827,241,443,652,640,282,163,984,728,101,580,359,179,228,302,662,399,649,92,720,370,917,496,331,656,924,460,710,705,349,554,791,646,275,486,274,210,357,419,156,484,567,483,513,273,588,862,201,154,323,780,377,4,395,828,36,937,362,366,870,563,50,792,799,338,875,314,709,686,344,837,365,208,685,896,451,577,339,793,444,501,427,964,838,70,690,810,901,39,475,246,895,950,264,929,186,717,834,96,582,364,495,135,819,239,969,738,951,471,165,88,442,240,804,189,122,58,185,205,604,312,986,618,220,51,74,6,851,89,789,949,80,727,316,35,992,651,724,506,712,520,729,641,657,914,32,926,905,416,258,813,679,149,75,83,117,151,86,373,21,842,105,708,392,527,234,226,318,20,639,576,769,272,766,974,979,343,776,422,545,125,68,696,358,636,465,761,361,279,498,446,532,890,670,164,448,171,200,126,669,597,269,744,865,559,881,632,26,633,667,251,222,590,999,406,921,763,947,230,541,930,700,37,668,376,871,767,492,540,184,544,524,124,981,283,811,531,794,608,352,682,983,749,368,84,100,783,276,198,573,99,311,922,968,742,603,711,558,434,620,773,10,730,818,885,997,872,625,866,183,265,600,798,693,348,178,396,159,260,893,754,301,994,248,755,463,722,494,424,946,911,353,923,578,328,942,128,60,29,750,751,713,681,394,393,371,873,112,732,482,408,262,725,129,470,519,16,293,916,902,977,849,547,238,250,242,196,254,643,971,504,777,526,114,345,119,660,915,944,23,14,555,13,796,579,176,73,543,412,956,790,912,134,473,317,658,787,904,972,350,69,402,826,322,417,680,136,235,860,619,34,64,304,536,648,976,718,375,809,452,752,879,737,747,514,61,852,48,42,162,363,741,320,622,816,85,181,296,3,883,617,381,779,192,413,830,735,654,676,432,144,439,315,108,224,561,266,19,244,379,952,308,17,746,702,131,959,882,2,334,8,455,807,407,564,989,247,18,271,743,474,410,374,93,521,784,221,884,291,665,757,726,167,466,821,584,955,602,614,569,525,993,825,22,878,298,637,453,612,867,795,383,678,307,499,267,116,157,426,736,815,996,405,574,57,933,592,372,278,595,817,756,440,610,170,31,71,733,190,321,675,661,906,150,919,957,231,899,187,46,212,605,765,325,161,255,55,197,961,204,300,954,510,876,782,542,153,931,781,824,319,285,572,457,38,855,324,388,596,491,435,537,347,677,611,891,433,802,489,133,739,715,28,384,409,281,142,698,503,390,533,716,731,606,601,512,461,286,714,869,107,326,719,54,823,913,420,910,481,487,585,628,634,666,655,12,673,237,848,980,490,856,927,53,565,467,147,458,908,778,378,287,723,106,587,138,684,892,449,898,15,145,935,294,387,529,515,430,975,864,888,97,694,965,259,111,583,225,695,858,0,252,206,925,146,330,1,397,788,840,477,550,518,72,762,770,355,659,599,113,337,485,211,341,861,476,948,120,261,845,581,674,469,635,45,480,653,934,27,687,517,102,629,967,880,607,63,786,109,557,808,995,333,797,745,575,616,962,382,199,90,478,256,507,771,191,79,760,552,703,391,534,340,941,450,740,829,182,174,973,356,721,367,551,94,168,500,52,233,462,530,236,990,707,148,623,104,263,647,459,152,591,66,217,988,7,594,180,306,943,202,835,535,257,414,889,857,172,853,401,940,704,386,692,615,549,966,43,177,699,139,295,360,593,33,998,805,329,539,759,497,297,132,445,369,243,290,613,663,380,227,289,854,223,831,76,59,958,332,627,40,385,812,303,523,566,844,91,630,127,894,570,982,5,336,814,978,9,806,683,774,351,836,130,768,991,488,560,556,280,775,553,650,310,907,832,764,644,758,803,193,886,438,229,734,110,932,897,292,820,299,918,77,454,697,207,175,753,868,425,945,642]","arrowright","","0","15","150","1000","[""0025_N1000_K0150_NOCLIQUE"",""0092_N1000_K0150_CLIQUE""]"
"audio-keyboard-response","84","505774","0.0-67.1-0.1-1.1","","","","","","","","","","","","","","","","","","","","","","","","","null","audio_feedback/shuffles/shuffle01.mp3","null","","","","0","15","150","1000","[""0025_N1000_K0150_NOCLIQUE"",""0092_N1000_K0150_CLIQUE""]"
"canvas-keyboard-response","85","507964","0.0-67.2-0.2-0.2","","","","","","","","","","","","","","","","","","","","","","","","","1143","","arrowright","[214,470,189,923,616,814,42,106,698,70,433,605,192,563,244,215,197,714,743,453,138,213,674,497,173,462,376,319,791,615,362,367,687,71,359,24,994,868,830,800,493,264,519,520,409,813,32,289,836,531,947,692,420,249,118,889,843,978,862,147,105,450,780,551,445,842,303,185,396,738,986,490,190,8,540,45,457,434,530,625,370,812,476,352,294,347,513,599,679,299,664,423,129,711,296,122,595,270,709,360,570,681,182,180,962,432,782,363,602,801,966,872,161,731,624,373,113,924,516,154,897,988,239,964,300,573,665,39,538,975,793,579,754,252,134,659,756,33,398,952,717,967,451,909,202,40,997,721,894,853,755,369,150,554,762,309,885,713,381,578,586,87,532,506,886,694,93,856,818,723,65,169,787,405,374,637,44,931,528,377,323,980,34,797,329,982,548,678,96,918,217,17,414,238,152,198,705,384,115,63,224,165,640,810,176,979,353,792,366,492,663,751,603,421,945,231,560,704,941,163,623,79,31,803,102,251,234,526,542,137,963,639,794,860,242,81,735,139,460,401,27,668,200,993,123,781,447,626,651,914,574,937,785,468,597,315,245,847,996,425,561,175,502,114,562,228,387,284,474,716,737,288,345,392,916,925,654,112,174,159,670,43,587,845,609,912,819,16,749,52,571,412,858,321,496,341,857,282,306,350,633,148,765,126,764,960,822,277,465,83,976,890,38,494,634,555,80,647,206,325,919,227,128,418,984,934,98,86,207,771,642,667,700,806,397,939,796,47,261,834,125,157,278,844,30,181,443,464,304,438,641,28,76,948,375,229,747,899,35,901,760,583,932,686,807,682,729,104,712,726,406,486,908,536,957,784,0,851,459,146,265,348,525,116,127,156,407,235,57,260,212,49,199,550,310,55,504,825,358,933,201,222,628,208,166,589,838,675,481,51,466,523,132,593,219,143,522,798,878,514,441,283,74,262,237,876,648,327,697,390,101,255,279,534,833,482,487,386,343,426,646,121,591,394,203,951,575,216,483,658,517,491,471,644,954,512,690,489,452,243,859,393,320,935,775,839,521,549,6,680,69,891,759,54,168,710,484,22,20,302,99,718,417,922,786,287,48,991,449,221,463,317,604,461,533,983,992,507,440,388,725,632,852,766,334,480,232,385,965,167,915,117,871,307,88,95,11,877,110,881,864,155,971,515,999,940,187,472,539,291,745,316,835,259,669,777,336,778,904,273,898,958,703,124,111,68,313,456,402,18,50,178,488,892,598,518,767,990,896,553,135,873,455,108,802,613,610,677,171,950,364,974,622,968,269,431,956,577,795,895,588,467,816,415,831,13,944,19,970,863,558,936,62,621,503,910,500,584,210,706,153,837,36,78,97,184,804,389,928,60,799,733,9,225,379,391,248,608,535,142,308,617,90,790,611,372,355,809,552,673,119,1,193,832,419,378,280,436,661,218,501,727,408,850,987,230,753,769,247,209,722,776,256,730,683,821,204,10,848,505,565,779,949,145,292,720,295,240,823,748,499,855,442,824,191,689,592,854,508,344,601,977,454,645,829,162,903,338,25,368,943,596,298,26,861,37,537,149,223,620,66,75,72,23,541,275,335,257,865,430,258,672,770,685,250,144,318,73,380,543,172,774,413,691,475,652,929,151,416,233,989,478,953,619,290,395,346,437,594,58,399,547,841,887,361,926,293,783,635,498,805,400,297,46,614,995,739,64,840,411,82,527,226,266,314,286,56,330,580,194,870,160,158,529,695,559,874,707,607,53,938,5,567,612,510,630,907,557,572,544,274,120,930,879,2,808,742,927,485,140,888,241,186,662,324,196,884,627,285,650,902,12,546,972,638,89,448,404,220,77,815,340,741,458,136,728,267,4,342,568,696,305,955,141,744,410,811,849,920,428,564,846,985,333,702,205,882,254,981,719,59,817,875,752,177,29,657,84,618,356,942,653,109,435,740,351,276,3,655,354,724,446,511,757,7,883,100,545,649,789,188,311,179,301,326,349,365,636,959,339,566,772,131,585,246,708,195,569,763,14,236,869,103,828,969,473,998,773,331,961,170,94,357,893,676,768,312,133,880,271,281,590,332,382,606,734,429,684,383,581,576,761,21,946,183,736,917,130,750,660,671,422,439,629,556,328,427,91,900,600,905,211,41,85,693,253,15,61,164,444,263,911,820,688,509,477,67,92,827,701,699,666,272,643,268,746,715,758,403,582,906,322,921,371,469,424,973,479,732,913,495,524,788,631,826,337,867,866,107,656]","arrowright","true","0","15","150","1000","[""0025_N1000_K0150_NOCLIQUE"",""0092_N1000_K0150_CLIQUE""]"
"audio-keyboard-response","86","508999","0.0-67.2-0.2-1.2","","","","","","","","","","","","","","","","","","","","","","","","","null","audio_feedback/right/coin01.mp3","null","","","","0","15","150","1000","[""0025_N1000_K0150_NOCLIQUE"",""0092_N1000_K0150_CLIQUE""]"
"canvas-keyboard-response","87","511411","0.0-68.0-0.0-0.0","","","","","","","","","","","","","","","","","","","","","","","","","1494","","arrowleft","[86,965,15,869,194,422,798,659,527,248,950,130,902,434,141,779,643,584,374,628,847,672,288,997,751,835,99,903,411,302,472,634,858,918,102,603,389,397,689,438,415,585,853,256,499,790,281,766,70,503,244,539,492,213,939,50,843,431,920,273,186,77,487,728,259,403,516,541,824,788,488,314,306,944,807,458,406,55,439,246,578,594,171,700,596,476,597,816,365,215,674,947,968,408,375,294,673,363,901,979,717,283,164,195,600,331,617,550,787,759,114,407,78,236,240,0,555,861,386,105,538,636,778,189,187,416,344,264,720,318,794,40,827,536,867,83,814,592,48,986,735,376,680,969,753,690,632,872,930,774,352,927,691,764,239,13,684,765,784,567,502,366,483,625,368,830,646,275,337,1,917,993,310,564,945,136,219,558,285,75,692,478,949,510,216,2,716,31,544,477,725,793,169,862,76,795,63,496,371,257,823,553,87,809,303,325,156,955,894,906,662,525,447,675,413,941,563,388,69,95,694,448,925,405,119,786,490,542,19,5,707,926,107,120,348,750,308,559,571,479,889,737,133,580,90,59,468,547,357,746,58,320,761,485,383,964,258,871,561,773,526,350,14,744,204,46,935,756,11,319,21,60,7,45,123,162,666,884,649,417,740,537,554,387,797,531,612,140,738,698,748,72,62,444,495,321,243,613,323,206,589,845,172,347,681,410,91,263,200,936,497,904,328,151,808,152,423,190,910,380,895,412,602,10,341,799,282,249,855,296,292,427,870,182,980,712,523,454,333,768,676,197,619,622,168,848,322,985,400,873,351,992,167,611,6,767,506,61,85,276,81,709,948,252,958,687,327,743,358,959,440,913,655,791,289,430,909,356,144,810,379,481,951,960,669,338,828,470,868,238,463,118,313,898,515,129,433,475,224,677,648,399,614,179,93,94,317,456,683,53,33,418,849,668,758,620,34,17,656,627,74,504,122,763,125,287,142,212,876,572,104,973,932,442,806,24,461,568,455,148,704,729,98,710,254,546,177,590,372,332,80,621,343,255,844,813,149,474,852,295,575,214,393,178,207,533,96,757,360,912,551,420,370,652,938,284,134,261,54,73,402,966,218,771,875,631,425,471,432,520,946,89,345,79,401,293,638,174,37,530,309,644,670,921,749,802,424,826,228,576,630,131,159,445,718,334,545,382,722,126,231,378,170,109,3,601,842,859,714,184,367,713,745,277,733,719,819,769,135,582,961,573,783,208,250,552,32,349,524,336,501,355,747,398,498,494,121,436,752,242,217,833,269,28,887,653,138,235,64,916,696,67,110,392,693,703,196,734,191,297,609,165,837,962,183,305,562,173,732,851,776,234,974,324,570,579,574,505,529,839,772,271,508,829,970,143,147,84,817,777,117,878,462,198,834,888,671,650,221,821,883,840,682,983,203,931,512,665,44,933,792,976,522,923,16,957,311,647,56,230,210,394,65,711,952,856,780,225,971,241,116,865,359,193,469,329,557,220,535,106,908,633,641,864,726,103,381,754,645,860,384,150,893,486,199,658,825,30,482,509,232,315,267,340,954,640,453,22,907,9,511,560,373,260,39,154,390,449,266,800,43,175,543,566,688,301,279,857,583,36,831,262,905,185,987,874,180,593,47,820,441,52,26,35,364,491,108,606,270,115,23,493,686,514,353,615,97,803,280,781,991,209,157,977,608,982,153,326,565,660,49,832,836,915,604,500,480,706,623,435,661,929,990,377,702,805,298,854,300,610,775,278,812,998,667,705,57,192,342,25,639,429,396,577,708,863,815,695,651,82,132,626,736,452,943,414,245,42,465,877,540,265,12,591,38,385,892,443,953,739,789,181,730,890,335,586,995,513,467,507,822,963,999,391,346,782,956,211,163,466,113,41,548,112,521,460,145,760,850,205,8,128,642,919,882,457,721,307,701,762,922,996,899,146,290,618,818,51,981,137,29,967,316,924,201,473,897,286,176,534,928,975,607,395,785,160,595,880,896,100,4,532,616,663,253,158,664,742,362,369,155,451,304,202,911,914,635,92,409,437,588,886,459,972,984,723,291,528,978,419,404,188,237,124,312,71,101,715,161,994,450,226,519,605,517,731,697,139,699,361,940,599,68,272,988,624,770,881,233,755,587,581,838,299,879,66,741,268,811,724,227,464,20,489,637,657,518,679,678,556,354,251,685,127,629,934,27,891,428,937,111,339,426,222,247,942,796,900,841,866,804,18,166,846,549,654,484,727,446,598,989,569,885,801,330,274,88,421,229,223]","arrowleft","true","0","16","133","1000","[""0081_N1000_K0133_CLIQUE"",""0093_N1000_K0133_NOCLIQUE""]"
