"trial_type","trial_index","time_elapsed","internal_node_id","view_history","rt","stimulus","response","success","nodes_order","correct_response","accuracy","block_index","presentation_index","clique_size","graph_size","graphs_names"
"pavlovia","0","482","0.0-0.0","","","","","","","","","","","","",""
"instructions","1","3211","0.0-1.0","[{""page_index"":0,""viewing_time"":1708},{""page_index"":1,""viewing_time"":1020}]","2728","","","","","","","","","","",""
"instructions","2","4173","0.0-2.0","[{""page_index"":0,""viewing_time"":960}]","960","","","","","","","","","","",""
"html-keyboard-response","3","4425","0.0-3.0-0.0-0.0","","null","Please wait while the experiment is loading...<br><br> (This could take from seconds to a couple of minutes)","null","","","","","","","","",""
"html-keyboard-response","4","4761","0.0-3.0-0.1-0.1","","null","Please wait while the experiment is loading...<br><br> (This could take from seconds to a couple of minutes)","null","","","","","","","","",""
"html-keyboard-response","5","4939","0.0-3.0-0.2-0.2","","null","Please wait while the experiment is loading...<br><br> (This could take from seconds to a couple of minutes)","null","","","","","","","","",""
"html-keyboard-response","6","5076","0.0-3.0-0.3-0.3","","null","Please wait while the experiment is loading...<br><br> (This could take from seconds to a couple of minutes)","null","","","","","","","","",""
"html-keyboard-response","7","5425","0.0-3.0-0.4-0.4","","null","Please wait while the experiment is loading...<br><br> (This could take from seconds to a couple of minutes)","null","","","","","","","","",""
"html-keyboard-response","8","5531","0.0-3.0-0.5-0.5","","null","Please wait while the experiment is loading...<br><br> (This could take from seconds to a couple of minutes)","null","","","","","","","","",""
"html-keyboard-response","9","5771","0.0-3.0-0.6-0.6","","null","Please wait while the experiment is loading...<br><br> (This could take from seconds to a couple of minutes)","null","","","","","","","","",""
"html-keyboard-response","10","6078","0.0-3.0-0.7-0.7","","null","Please wait while the experiment is loading...<br><br> (This could take from seconds to a couple of minutes)","null","","","","","","","","",""
"html-keyboard-response","11","6193","0.0-3.0-0.8-0.8","","null","Please wait while the experiment is loading...<br><br> (This could take from seconds to a couple of minutes)","null","","","","","","","","",""
"html-keyboard-response","12","6295","0.0-3.0-0.9-0.9","","null","Please wait while the experiment is loading...<br><br> (This could take from seconds to a couple of minutes)","null","","","","","","","","",""
"html-keyboard-response","13","6624","0.0-3.0-0.10-0.10","","null","Please wait while the experiment is loading...<br><br> (This could take from seconds to a couple of minutes)","null","","","","","","","","",""
"html-keyboard-response","14","6872","0.0-3.0-0.11-0.11","","null","Please wait while the experiment is loading...<br><br> (This could take from seconds to a couple of minutes)","null","","","","","","","","",""
"html-keyboard-response","15","7210","0.0-3.0-0.12-0.12","","null","Please wait while the experiment is loading...<br><br> (This could take from seconds to a couple of minutes)","null","","","","","","","","",""
"html-keyboard-response","16","7512","0.0-3.0-0.13-0.13","","null","Please wait while the experiment is loading...<br><br> (This could take from seconds to a couple of minutes)","null","","","","","","","","",""
"html-keyboard-response","17","7827","0.0-3.0-0.14-0.14","","null","Please wait while the experiment is loading...<br><br> (This could take from seconds to a couple of minutes)","null","","","","","","","","",""
"html-keyboard-response","18","8009","0.0-3.0-0.15-0.15","","null","Please wait while the experiment is loading...<br><br> (This could take from seconds to a couple of minutes)","null","","","","","","","","",""
"html-keyboard-response","19","8112","0.0-3.0-0.16-0.16","","null","Please wait while the experiment is loading...<br><br> (This could take from seconds to a couple of minutes)","null","","","","","","","","",""
"html-keyboard-response","20","8304","0.0-3.0-0.17-0.17","","null","Please wait while the experiment is loading...<br><br> (This could take from seconds to a couple of minutes)","null","","","","","","","","",""
"html-keyboard-response","21","8471","0.0-3.0-0.18-0.18","","null","Please wait while the experiment is loading...<br><br> (This could take from seconds to a couple of minutes)","null","","","","","","","","",""
"html-keyboard-response","22","8792","0.0-3.0-0.19-0.19","","null","Please wait while the experiment is loading...<br><br> (This could take from seconds to a couple of minutes)","null","","","","","","","","",""
"html-keyboard-response","23","8893","0.0-3.0-0.20-0.20","","null","Please wait while the experiment is loading...<br><br> (This could take from seconds to a couple of minutes)","null","","","","","","","","",""
"html-keyboard-response","24","9130","0.0-3.0-0.21-0.21","","null","Please wait while the experiment is loading...<br><br> (This could take from seconds to a couple of minutes)","null","","","","","","","","",""
"html-keyboard-response","25","9458","0.0-3.0-0.22-0.22","","null","Please wait while the experiment is loading...<br><br> (This could take from seconds to a couple of minutes)","null","","","","","","","","",""
"html-keyboard-response","26","9614","0.0-3.0-0.23-0.23","","null","Please wait while the experiment is loading...<br><br> (This could take from seconds to a couple of minutes)","null","","","","","","","","",""
"html-keyboard-response","27","9716","0.0-3.0-0.24-0.24","","null","Please wait while the experiment is loading...<br><br> (This could take from seconds to a couple of minutes)","null","","","","","","","","",""
"html-keyboard-response","28","9864","0.0-3.0-0.25-0.25","","null","Please wait while the experiment is loading...<br><br> (This could take from seconds to a couple of minutes)","null","","","","","","","","",""
"html-keyboard-response","29","10208","0.0-3.0-0.26-0.26","","null","Please wait while the experiment is loading...<br><br> (This could take from seconds to a couple of minutes)","null","","","","","","","","",""
"html-keyboard-response","30","10509","0.0-3.0-0.27-0.27","","null","Please wait while the experiment is loading...<br><br> (This could take from seconds to a couple of minutes)","null","","","","","","","","",""
"html-keyboard-response","31","10611","0.0-3.0-0.28-0.28","","null","Please wait while the experiment is loading...<br><br> (This could take from seconds to a couple of minutes)","null","","","","","","","","",""
"html-keyboard-response","32","10878","0.0-3.0-0.29-0.29","","null","Please wait while the experiment is loading...<br><br> (This could take from seconds to a couple of minutes)","null","","","","","","","","",""
"html-keyboard-response","33","10991","0.0-3.0-0.30-0.30","","null","Please wait while the experiment is loading...<br><br> (This could take from seconds to a couple of minutes)","null","","","","","","","","",""
"html-keyboard-response","34","11266","0.0-3.0-0.31-0.31","","null","Please wait while the experiment is loading...<br><br> (This could take from seconds to a couple of minutes)","null","","","","","","","","",""
"html-keyboard-response","35","11540","0.0-3.0-0.32-0.32","","null","Please wait while the experiment is loading...<br><br> (This could take from seconds to a couple of minutes)","null","","","","","","","","",""
"html-keyboard-response","36","11833","0.0-3.0-0.33-0.33","","null","Please wait while the experiment is loading...<br><br> (This could take from seconds to a couple of minutes)","null","","","","","","","","",""
"html-keyboard-response","37","11944","0.0-3.0-0.34-0.34","","null","Please wait while the experiment is loading...<br><br> (This could take from seconds to a couple of minutes)","null","","","","","","","","",""
"html-keyboard-response","38","12284","0.0-3.0-0.35-0.35","","null","Please wait while the experiment is loading...<br><br> (This could take from seconds to a couple of minutes)","null","","","","","","","","",""
"html-keyboard-response","39","12395","0.0-3.0-0.36-0.36","","null","Please wait while the experiment is loading...<br><br> (This could take from seconds to a couple of minutes)","null","","","","","","","","",""
"html-keyboard-response","40","12688","0.0-3.0-0.37-0.37","","null","Please wait while the experiment is loading...<br><br> (This could take from seconds to a couple of minutes)","null","","","","","","","","",""
"html-keyboard-response","41","12793","0.0-3.0-0.38-0.38","","null","Please wait while the experiment is loading...<br><br> (This could take from seconds to a couple of minutes)","null","","","","","","","","",""
"html-keyboard-response","42","13038","0.0-3.0-0.39-0.39","","null","Please wait while the experiment is loading...<br><br> (This could take from seconds to a couple of minutes)","null","","","","","","","","",""
"html-keyboard-response","43","13337","0.0-3.0-0.40-0.40","","null","Please wait while the experiment is loading...<br><br> (This could take from seconds to a couple of minutes)","null","","","","","","","","",""
"html-keyboard-response","44","13646","0.0-3.0-0.41-0.41","","null","Please wait while the experiment is loading...<br><br> (This could take from seconds to a couple of minutes)","null","","","","","","","","",""
"html-keyboard-response","45","13749","0.0-3.0-0.42-0.42","","null","Please wait while the experiment is loading...<br><br> (This could take from seconds to a couple of minutes)","null","","","","","","","","",""
"html-keyboard-response","46","13921","0.0-3.0-0.43-0.43","","null","Please wait while the experiment is loading...<br><br> (This could take from seconds to a couple of minutes)","null","","","","","","","","",""
"html-keyboard-response","47","14105","0.0-3.0-0.44-0.44","","null","Please wait while the experiment is loading...<br><br> (This could take from seconds to a couple of minutes)","null","","","","","","","","",""
"html-keyboard-response","48","14206","0.0-3.0-0.45-0.45","","null","Please wait while the experiment is loading...<br><br> (This could take from seconds to a couple of minutes)","null","","","","","","","","",""
"html-keyboard-response","49","14466","0.0-3.0-0.46-0.46","","null","Please wait while the experiment is loading...<br><br> (This could take from seconds to a couple of minutes)","null","","","","","","","","",""
"html-keyboard-response","50","14795","0.0-3.0-0.47-0.47","","null","Please wait while the experiment is loading...<br><br> (This could take from seconds to a couple of minutes)","null","","","","","","","","",""
"html-keyboard-response","51","15141","0.0-3.0-0.48-0.48","","null","Please wait while the experiment is loading...<br><br> (This could take from seconds to a couple of minutes)","null","","","","","","","","",""
"html-keyboard-response","52","15499","0.0-3.0-0.49-0.49","","null","Please wait while the experiment is loading...<br><br> (This could take from seconds to a couple of minutes)","null","","","","","","","","",""
"html-keyboard-response","53","15614","0.0-3.0-0.50-0.50","","null","Please wait while the experiment is loading...<br><br> (This could take from seconds to a couple of minutes)","null","","","","","","","","",""
"html-keyboard-response","54","15726","0.0-3.0-0.51-0.51","","null","Please wait while the experiment is loading...<br><br> (This could take from seconds to a couple of minutes)","null","","","","","","","","",""
"html-keyboard-response","55","16087","0.0-3.0-0.52-0.52","","null","Please wait while the experiment is loading...<br><br> (This could take from seconds to a couple of minutes)","null","","","","","","","","",""
"html-keyboard-response","56","16391","0.0-3.0-0.53-0.53","","null","Please wait while the experiment is loading...<br><br> (This could take from seconds to a couple of minutes)","null","","","","","","","","",""
"html-keyboard-response","57","16496","0.0-3.0-0.54-0.54","","null","Please wait while the experiment is loading...<br><br> (This could take from seconds to a couple of minutes)","null","","","","","","","","",""
"html-keyboard-response","58","16888","0.0-3.0-0.55-0.55","","null","Please wait while the experiment is loading...<br><br> (This could take from seconds to a couple of minutes)","null","","","","","","","","",""
"html-keyboard-response","59","16989","0.0-3.0-0.56-0.56","","null","Please wait while the experiment is loading...<br><br> (This could take from seconds to a couple of minutes)","null","","","","","","","","",""
"html-keyboard-response","60","17296","0.0-3.0-0.57-0.57","","null","Please wait while the experiment is loading...<br><br> (This could take from seconds to a couple of minutes)","null","","","","","","","","",""
"html-keyboard-response","61","17408","0.0-3.0-0.58-0.58","","null","Please wait while the experiment is loading...<br><br> (This could take from seconds to a couple of minutes)","null","","","","","","","","",""
"html-keyboard-response","62","17642","0.0-3.0-0.59-0.59","","null","Please wait while the experiment is loading...<br><br> (This could take from seconds to a couple of minutes)","null","","","","","","","","",""
"html-keyboard-response","63","17923","0.0-3.0-0.60-0.60","","null","Please wait while the experiment is loading...<br><br> (This could take from seconds to a couple of minutes)","null","","","","","","","","",""
"html-keyboard-response","64","18245","0.0-3.0-0.61-0.61","","null","Please wait while the experiment is loading...<br><br> (This could take from seconds to a couple of minutes)","null","","","","","","","","",""
"html-keyboard-response","65","18550","0.0-3.0-0.62-0.62","","null","Please wait while the experiment is loading...<br><br> (This could take from seconds to a couple of minutes)","null","","","","","","","","",""
"html-keyboard-response","66","18658","0.0-3.0-0.63-0.63","","null","Please wait while the experiment is loading...<br><br> (This could take from seconds to a couple of minutes)","null","","","","","","","","",""
"html-keyboard-response","67","19005","0.0-3.0-0.64-0.64","","null","Please wait while the experiment is loading...<br><br> (This could take from seconds to a couple of minutes)","null","","","","","","","","",""
"html-keyboard-response","68","19106","0.0-3.0-0.65-0.65","","null","Please wait while the experiment is loading...<br><br> (This could take from seconds to a couple of minutes)","null","","","","","","","","",""
"html-keyboard-response","69","19380","0.0-3.0-0.66-0.66","","null","Please wait while the experiment is loading...<br><br> (This could take from seconds to a couple of minutes)","null","","","","","","","","",""
"html-keyboard-response","70","19674","0.0-3.0-0.67-0.67","","null","Please wait while the experiment is loading...<br><br> (This could take from seconds to a couple of minutes)","null","","","","","","","","",""
"html-keyboard-response","71","19788","0.0-3.0-0.68-0.68","","null","Please wait while the experiment is loading...<br><br> (This could take from seconds to a couple of minutes)","null","","","","","","","","",""
"html-keyboard-response","72","19899","0.0-3.0-0.69-0.69","","null","Please wait while the experiment is loading...<br><br> (This could take from seconds to a couple of minutes)","null","","","","","","","","",""
"html-keyboard-response","73","20001","0.0-3.0-0.70-0.70","","null","Please wait while the experiment is loading...<br><br> (This could take from seconds to a couple of minutes)","null","","","","","","","","",""
"html-keyboard-response","74","20106","0.0-3.0-0.71-0.71","","null","Please wait while the experiment is loading...<br><br> (This could take from seconds to a couple of minutes)","null","","","","","","","","",""
"html-keyboard-response","75","20386","0.0-3.0-0.72-0.72","","null","Please wait while the experiment is loading...<br><br> (This could take from seconds to a couple of minutes)","null","","","","","","","","",""
"html-keyboard-response","76","20749","0.0-3.0-0.73-0.73","","null","Please wait while the experiment is loading...<br><br> (This could take from seconds to a couple of minutes)","null","","","","","","","","",""
"html-keyboard-response","77","20971","0.0-3.0-0.74-0.74","","null","Please wait while the experiment is loading...<br><br> (This could take from seconds to a couple of minutes)","null","","","","","","","","",""
"html-keyboard-response","78","21187","0.0-3.0-0.75-0.75","","null","Please wait while the experiment is loading...<br><br> (This could take from seconds to a couple of minutes)","null","","","","","","","","",""
"html-keyboard-response","79","21302","0.0-3.0-0.76-0.76","","null","Please wait while the experiment is loading...<br><br> (This could take from seconds to a couple of minutes)","null","","","","","","","","",""
"html-keyboard-response","80","21430","0.0-3.0-0.77-0.77","","null","Please wait while the experiment is loading...<br><br> (This could take from seconds to a couple of minutes)","null","","","","","","","","",""
"html-keyboard-response","81","21545","0.0-3.0-0.78-0.78","","null","Please wait while the experiment is loading...<br><br> (This could take from seconds to a couple of minutes)","null","","","","","","","","",""
"html-keyboard-response","82","21653","0.0-3.0-0.79-0.79","","null","Please wait while the experiment is loading...<br><br> (This could take from seconds to a couple of minutes)","null","","","","","","","","",""
"html-keyboard-response","83","22035","0.0-3.0-0.80-0.80","","null","Please wait while the experiment is loading...<br><br> (This could take from seconds to a couple of minutes)","null","","","","","","","","",""
"html-keyboard-response","84","22137","0.0-3.0-0.81-0.81","","null","Please wait while the experiment is loading...<br><br> (This could take from seconds to a couple of minutes)","null","","","","","","","","",""
"html-keyboard-response","85","22355","0.0-3.0-0.82-0.82","","null","Please wait while the experiment is loading...<br><br> (This could take from seconds to a couple of minutes)","null","","","","","","","","",""
"html-keyboard-response","86","22554","0.0-3.0-0.83-0.83","","null","Please wait while the experiment is loading...<br><br> (This could take from seconds to a couple of minutes)","null","","","","","","","","",""
"html-keyboard-response","87","22660","0.0-3.0-0.84-0.84","","null","Please wait while the experiment is loading...<br><br> (This could take from seconds to a couple of minutes)","null","","","","","","","","",""
"html-keyboard-response","88","22771","0.0-3.0-0.85-0.85","","null","Please wait while the experiment is loading...<br><br> (This could take from seconds to a couple of minutes)","null","","","","","","","","",""
"html-keyboard-response","89","22987","0.0-3.0-0.86-0.86","","null","Please wait while the experiment is loading...<br><br> (This could take from seconds to a couple of minutes)","null","","","","","","","","",""
"html-keyboard-response","90","23190","0.0-3.0-0.87-0.87","","null","Please wait while the experiment is loading...<br><br> (This could take from seconds to a couple of minutes)","null","","","","","","","","",""
"html-keyboard-response","91","23297","0.0-3.0-0.88-0.88","","null","Please wait while the experiment is loading...<br><br> (This could take from seconds to a couple of minutes)","null","","","","","","","","",""
"html-keyboard-response","92","23735","0.0-3.0-0.89-0.89","","null","Please wait while the experiment is loading...<br><br> (This could take from seconds to a couple of minutes)","null","","","","","","","","",""
"html-keyboard-response","93","23855","0.0-3.0-0.90-0.90","","null","Please wait while the experiment is loading...<br><br> (This could take from seconds to a couple of minutes)","null","","","","","","","","",""
"html-keyboard-response","94","24215","0.0-3.0-0.91-0.91","","null","Please wait while the experiment is loading...<br><br> (This could take from seconds to a couple of minutes)","null","","","","","","","","",""
"html-keyboard-response","95","24321","0.0-3.0-0.92-0.92","","null","Please wait while the experiment is loading...<br><br> (This could take from seconds to a couple of minutes)","null","","","","","","","","",""
"html-keyboard-response","96","24444","0.0-3.0-0.93-0.93","","null","Please wait while the experiment is loading...<br><br> (This could take from seconds to a couple of minutes)","null","","","","","","","","",""
"html-keyboard-response","97","24818","0.0-3.0-0.94-0.94","","null","Please wait while the experiment is loading...<br><br> (This could take from seconds to a couple of minutes)","null","","","","","","","","",""
"html-keyboard-response","98","24924","0.0-3.0-0.95-0.95","","null","Please wait while the experiment is loading...<br><br> (This could take from seconds to a couple of minutes)","null","","","","","","","","",""
"html-keyboard-response","99","25034","0.0-3.0-0.96-0.96","","null","Please wait while the experiment is loading...<br><br> (This could take from seconds to a couple of minutes)","null","","","","","","","","",""
"html-keyboard-response","100","25135","0.0-3.0-0.97-0.97","","null","Please wait while the experiment is loading...<br><br> (This could take from seconds to a couple of minutes)","null","","","","","","","","",""
"html-keyboard-response","101","25463","0.0-3.0-0.98-0.98","","null","Please wait while the experiment is loading...<br><br> (This could take from seconds to a couple of minutes)","null","","","","","","","","",""
"html-keyboard-response","102","25565","0.0-3.0-0.99-0.99","","null","Please wait while the experiment is loading...<br><br> (This could take from seconds to a couple of minutes)","null","","","","","","","","",""
"html-keyboard-response","103","25847","0.0-3.0-0.100-0.100","","null","Please wait while the experiment is loading...<br><br> (This could take from seconds to a couple of minutes)","null","","","","","","","","",""
"html-keyboard-response","104","25952","0.0-3.0-0.101-0.101","","null","Please wait while the experiment is loading...<br><br> (This could take from seconds to a couple of minutes)","null","","","","","","","","",""
"html-keyboard-response","105","26392","0.0-3.0-0.102-0.102","","null","Please wait while the experiment is loading...<br><br> (This could take from seconds to a couple of minutes)","null","","","","","","","","",""
"html-keyboard-response","106","26504","0.0-3.0-0.103-0.103","","null","Please wait while the experiment is loading...<br><br> (This could take from seconds to a couple of minutes)","null","","","","","","","","",""
"html-keyboard-response","107","26610","0.0-3.0-0.104-0.104","","null","Please wait while the experiment is loading...<br><br> (This could take from seconds to a couple of minutes)","null","","","","","","","","",""
"html-keyboard-response","108","27018","0.0-3.0-0.105-0.105","","null","Please wait while the experiment is loading...<br><br> (This could take from seconds to a couple of minutes)","null","","","","","","","","",""
"html-keyboard-response","109","27674","0.0-3.0-0.106-0.106","","null","Please wait while the experiment is loading...<br><br> (This could take from seconds to a couple of minutes)","null","","","","","","","","",""
"html-keyboard-response","110","27775","0.0-3.0-0.107-0.107","","null","Please wait while the experiment is loading...<br><br> (This could take from seconds to a couple of minutes)","null","","","","","","","","",""
"html-keyboard-response","111","28116","0.0-3.0-0.108-0.108","","null","Please wait while the experiment is loading...<br><br> (This could take from seconds to a couple of minutes)","null","","","","","","","","",""
"html-keyboard-response","112","28230","0.0-3.0-0.109-0.109","","null","Please wait while the experiment is loading...<br><br> (This could take from seconds to a couple of minutes)","null","","","","","","","","",""
"html-keyboard-response","113","28332","0.0-3.0-0.110-0.110","","null","Please wait while the experiment is loading...<br><br> (This could take from seconds to a couple of minutes)","null","","","","","","","","",""
"html-keyboard-response","114","28675","0.0-3.0-0.111-0.111","","null","Please wait while the experiment is loading...<br><br> (This could take from seconds to a couple of minutes)","null","","","","","","","","",""
"html-keyboard-response","115","28785","0.0-3.0-0.112-0.112","","null","Please wait while the experiment is loading...<br><br> (This could take from seconds to a couple of minutes)","null","","","","","","","","",""
"html-keyboard-response","116","29204","0.0-3.0-0.113-0.113","","null","Please wait while the experiment is loading...<br><br> (This could take from seconds to a couple of minutes)","null","","","","","","","","",""
"html-keyboard-response","117","29559","0.0-3.0-0.114-0.114","","null","Please wait while the experiment is loading...<br><br> (This could take from seconds to a couple of minutes)","null","","","","","","","","",""
"html-keyboard-response","118","29867","0.0-3.0-0.115-0.115","","null","Please wait while the experiment is loading...<br><br> (This could take from seconds to a couple of minutes)","null","","","","","","","","",""
"html-keyboard-response","119","30244","0.0-3.0-0.116-0.116","","null","Please wait while the experiment is loading...<br><br> (This could take from seconds to a couple of minutes)","null","","","","","","","","",""
"html-keyboard-response","120","30673","0.0-3.0-0.117-0.117","","null","Please wait while the experiment is loading...<br><br> (This could take from seconds to a couple of minutes)","null","","","","","","","","",""
"html-keyboard-response","121","30779","0.0-3.0-0.118-0.118","","null","Please wait while the experiment is loading...<br><br> (This could take from seconds to a couple of minutes)","null","","","","","","","","",""
"html-keyboard-response","122","31132","0.0-3.0-0.119-0.119","","null","Please wait while the experiment is loading...<br><br> (This could take from seconds to a couple of minutes)","null","","","","","","","","",""
"html-keyboard-response","123","31539","0.0-3.0-0.120-0.120","","null","Please wait while the experiment is loading...<br><br> (This could take from seconds to a couple of minutes)","null","","","","","","","","",""
"html-keyboard-response","124","31860","0.0-3.0-0.121-0.121","","null","Please wait while the experiment is loading...<br><br> (This could take from seconds to a couple of minutes)","null","","","","","","","","",""
"html-keyboard-response","125","32170","0.0-3.0-0.122-0.122","","null","Please wait while the experiment is loading...<br><br> (This could take from seconds to a couple of minutes)","null","","","","","","","","",""
"html-keyboard-response","126","32649","0.0-3.0-0.123-0.123","","null","Please wait while the experiment is loading...<br><br> (This could take from seconds to a couple of minutes)","null","","","","","","","","",""
"html-keyboard-response","127","33065","0.0-3.0-0.124-0.124","","null","Please wait while the experiment is loading...<br><br> (This could take from seconds to a couple of minutes)","null","","","","","","","","",""
"html-keyboard-response","128","33656","0.0-3.0-0.125-0.125","","null","Please wait while the experiment is loading...<br><br> (This could take from seconds to a couple of minutes)","null","","","","","","","","",""
"html-keyboard-response","129","33762","0.0-3.0-0.126-0.126","","null","Please wait while the experiment is loading...<br><br> (This could take from seconds to a couple of minutes)","null","","","","","","","","",""
"html-keyboard-response","130","34630","0.0-3.0-0.127-0.127","","null","Please wait while the experiment is loading...<br><br> (This could take from seconds to a couple of minutes)","null","","","","","","","","",""
"html-keyboard-response","131","35179","0.0-3.0-0.128-0.128","","null","Please wait while the experiment is loading...<br><br> (This could take from seconds to a couple of minutes)","null","","","","","","","","",""
"html-keyboard-response","132","35280","0.0-3.0-0.129-0.129","","null","Please wait while the experiment is loading...<br><br> (This could take from seconds to a couple of minutes)","null","","","","","","","","",""
"html-keyboard-response","133","36799","0.0-3.0-0.130-0.130","","null","Please wait while the experiment is loading...<br><br> (This could take from seconds to a couple of minutes)","null","","","","","","","","",""
"html-keyboard-response","134","36915","0.0-3.0-0.131-0.131","","null","Please wait while the experiment is loading...<br><br> (This could take from seconds to a couple of minutes)","null","","","","","","","","",""
"html-keyboard-response","135","37183","0.0-3.0-0.132-0.132","","null","Please wait while the experiment is loading...<br><br> (This could take from seconds to a couple of minutes)","null","","","","","","","","",""
"html-keyboard-response","136","37286","0.0-3.0-0.133-0.133","","null","Please wait while the experiment is loading...<br><br> (This could take from seconds to a couple of minutes)","null","","","","","","","","",""
"html-keyboard-response","137","37546","0.0-3.0-0.134-0.134","","null","Please wait while the experiment is loading...<br><br> (This could take from seconds to a couple of minutes)","null","","","","","","","","",""
"html-keyboard-response","138","37849","0.0-3.0-0.135-0.135","","null","Please wait while the experiment is loading...<br><br> (This could take from seconds to a couple of minutes)","null","","","","","","","","",""
"html-keyboard-response","139","38155","0.0-3.0-0.136-0.136","","null","Please wait while the experiment is loading...<br><br> (This could take from seconds to a couple of minutes)","null","","","","","","","","",""
"html-keyboard-response","140","38456","0.0-3.0-0.137-0.137","","null","Please wait while the experiment is loading...<br><br> (This could take from seconds to a couple of minutes)","null","","","","","","","","",""
"html-keyboard-response","141","38556","0.0-3.0-0.138-0.138","","null","Please wait while the experiment is loading...<br><br> (This could take from seconds to a couple of minutes)","null","","","","","","","","",""
"html-keyboard-response","142","38807","0.0-3.0-0.139-0.139","","null","Please wait while the experiment is loading...<br><br> (This could take from seconds to a couple of minutes)","null","","","","","","","","",""
"html-keyboard-response","143","39113","0.0-3.0-0.140-0.140","","null","Please wait while the experiment is loading...<br><br> (This could take from seconds to a couple of minutes)","null","","","","","","","","",""
"html-keyboard-response","144","39397","0.0-3.0-0.141-0.141","","null","Please wait while the experiment is loading...<br><br> (This could take from seconds to a couple of minutes)","null","","","","","","","","",""
"html-keyboard-response","145","39719","0.0-3.0-0.142-0.142","","null","Please wait while the experiment is loading...<br><br> (This could take from seconds to a couple of minutes)","null","","","","","","","","",""
"html-keyboard-response","146","40032","0.0-3.0-0.143-0.143","","null","Please wait while the experiment is loading...<br><br> (This could take from seconds to a couple of minutes)","null","","","","","","","","",""
"html-keyboard-response","147","40353","0.0-3.0-0.144-0.144","","null","Please wait while the experiment is loading...<br><br> (This could take from seconds to a couple of minutes)","null","","","","","","","","",""
"html-keyboard-response","148","40761","0.0-3.0-0.145-0.145","","null","Please wait while the experiment is loading...<br><br> (This could take from seconds to a couple of minutes)","null","","","","","","","","",""
"html-keyboard-response","149","41086","0.0-3.0-0.146-0.146","","null","Please wait while the experiment is loading...<br><br> (This could take from seconds to a couple of minutes)","null","","","","","","","","",""
"html-keyboard-response","150","41363","0.0-3.0-0.147-0.147","","null","Please wait while the experiment is loading...<br><br> (This could take from seconds to a couple of minutes)","null","","","","","","","","",""
"html-keyboard-response","151","41469","0.0-3.0-0.148-0.148","","null","Please wait while the experiment is loading...<br><br> (This could take from seconds to a couple of minutes)","null","","","","","","","","",""
"html-keyboard-response","152","41722","0.0-3.0-0.149-0.149","","null","Please wait while the experiment is loading...<br><br> (This could take from seconds to a couple of minutes)","null","","","","","","","","",""
"html-keyboard-response","153","41832","0.0-3.0-0.150-0.150","","null","Please wait while the experiment is loading...<br><br> (This could take from seconds to a couple of minutes)","null","","","","","","","","",""
"html-keyboard-response","154","42133","0.0-3.0-0.151-0.151","","null","Please wait while the experiment is loading...<br><br> (This could take from seconds to a couple of minutes)","null","","","","","","","","",""
"html-keyboard-response","155","42453","0.0-3.0-0.152-0.152","","null","Please wait while the experiment is loading...<br><br> (This could take from seconds to a couple of minutes)","null","","","","","","","","",""
"html-keyboard-response","156","42767","0.0-3.0-0.153-0.153","","null","Please wait while the experiment is loading...<br><br> (This could take from seconds to a couple of minutes)","null","","","","","","","","",""
"html-keyboard-response","157","43120","0.0-3.0-0.154-0.154","","null","Please wait while the experiment is loading...<br><br> (This could take from seconds to a couple of minutes)","null","","","","","","","","",""
"html-keyboard-response","158","43460","0.0-3.0-0.155-0.155","","null","Please wait while the experiment is loading...<br><br> (This could take from seconds to a couple of minutes)","null","","","","","","","","",""
"html-keyboard-response","159","43957","0.0-3.0-0.156-0.156","","null","Please wait while the experiment is loading...<br><br> (This could take from seconds to a couple of minutes)","null","","","","","","","","",""
"html-keyboard-response","160","44751","0.0-3.0-0.157-0.157","","null","Please wait while the experiment is loading...<br><br> (This could take from seconds to a couple of minutes)","null","","","","","","","","",""
"html-keyboard-response","161","44855","0.0-3.0-0.158-0.158","","null","Please wait while the experiment is loading...<br><br> (This could take from seconds to a couple of minutes)","null","","","","","","","","",""
"html-keyboard-response","162","45116","0.0-3.0-0.159-0.159","","null","Please wait while the experiment is loading...<br><br> (This could take from seconds to a couple of minutes)","null","","","","","","","","",""
"html-keyboard-response","163","45416","0.0-3.0-0.160-0.160","","null","Please wait while the experiment is loading...<br><br> (This could take from seconds to a couple of minutes)","null","","","","","","","","",""
"html-keyboard-response","164","45717","0.0-3.0-0.161-0.161","","null","Please wait while the experiment is loading...<br><br> (This could take from seconds to a couple of minutes)","null","","","","","","","","",""
"html-keyboard-response","165","46053","0.0-3.0-0.162-0.162","","null","Please wait while the experiment is loading...<br><br> (This could take from seconds to a couple of minutes)","null","","","","","","","","",""
"html-keyboard-response","166","46849","0.0-3.0-0.163-0.163","","null","Please wait while the experiment is loading...<br><br> (This could take from seconds to a couple of minutes)","null","","","","","","","","",""
"html-keyboard-response","167","46952","0.0-3.0-0.164-0.164","","null","Please wait while the experiment is loading...<br><br> (This could take from seconds to a couple of minutes)","null","","","","","","","","",""
"html-keyboard-response","168","47227","0.0-3.0-0.165-0.165","","null","Please wait while the experiment is loading...<br><br> (This could take from seconds to a couple of minutes)","null","","","","","","","","",""
"html-keyboard-response","169","47329","0.0-3.0-0.166-0.166","","null","Please wait while the experiment is loading...<br><br> (This could take from seconds to a couple of minutes)","null","","","","","","","","",""
"html-keyboard-response","170","47616","0.0-3.0-0.167-0.167","","null","Please wait while the experiment is loading...<br><br> (This could take from seconds to a couple of minutes)","null","","","","","","","","",""
"html-keyboard-response","171","47898","0.0-3.0-0.168-0.168","","null","Please wait while the experiment is loading...<br><br> (This could take from seconds to a couple of minutes)","null","","","","","","","","",""
"html-keyboard-response","172","48005","0.0-3.0-0.169-0.169","","null","Please wait while the experiment is loading...<br><br> (This could take from seconds to a couple of minutes)","null","","","","","","","","",""
"html-keyboard-response","173","48285","0.0-3.0-0.170-0.170","","null","Please wait while the experiment is loading...<br><br> (This could take from seconds to a couple of minutes)","null","","","","","","","","",""
"html-keyboard-response","174","48647","0.0-3.0-0.171-0.171","","null","Please wait while the experiment is loading...<br><br> (This could take from seconds to a couple of minutes)","null","","","","","","","","",""
"html-keyboard-response","175","48749","0.0-3.0-0.172-0.172","","null","Please wait while the experiment is loading...<br><br> (This could take from seconds to a couple of minutes)","null","","","","","","","","",""
"html-keyboard-response","176","49327","0.0-3.0-0.173-0.173","","null","Please wait while the experiment is loading...<br><br> (This could take from seconds to a couple of minutes)","null","","","","","","","","",""
"html-keyboard-response","177","49638","0.0-3.0-0.174-0.174","","null","Please wait while the experiment is loading...<br><br> (This could take from seconds to a couple of minutes)","null","","","","","","","","",""
"html-keyboard-response","178","49746","0.0-3.0-0.175-0.175","","null","Please wait while the experiment is loading...<br><br> (This could take from seconds to a couple of minutes)","null","","","","","","","","",""
"html-keyboard-response","179","49857","0.0-3.0-0.176-0.176","","null","Please wait while the experiment is loading...<br><br> (This could take from seconds to a couple of minutes)","null","","","","","","","","",""
"html-keyboard-response","180","50151","0.0-3.0-0.177-0.177","","null","Please wait while the experiment is loading...<br><br> (This could take from seconds to a couple of minutes)","null","","","","","","","","",""
"html-keyboard-response","181","50539","0.0-3.0-0.178-0.178","","null","Please wait while the experiment is loading...<br><br> (This could take from seconds to a couple of minutes)","null","","","","","","","","",""
"html-keyboard-response","182","50640","0.0-3.0-0.179-0.179","","null","Please wait while the experiment is loading...<br><br> (This could take from seconds to a couple of minutes)","null","","","","","","","","",""
"html-keyboard-response","183","51212","0.0-3.0-0.180-0.180","","null","Please wait while the experiment is loading...<br><br> (This could take from seconds to a couple of minutes)","null","","","","","","","","",""
"html-keyboard-response","184","51315","0.0-3.0-0.181-0.181","","null","Please wait while the experiment is loading...<br><br> (This could take from seconds to a couple of minutes)","null","","","","","","","","",""
"html-keyboard-response","185","51729","0.0-3.0-0.182-0.182","","null","Please wait while the experiment is loading...<br><br> (This could take from seconds to a couple of minutes)","null","","","","","","","","",""
"html-keyboard-response","186","55358","0.0-3.0-1.0","","3628","Experiment has finished loading.<br><br>Press <b>any key</b> to start."," ","","","","","","","","",""
"fullscreen","187","57956","0.0-4.0","","","","","true","","","","","","","",""
"canvas-keyboard-response","188","64525","0.0-5.0-0.0-0.0","","5040","","arrowright","","[1318,1603,1881,1311,1570,801,1955,1746,994,822,1915,503,1861,214,1147,556,690,626,1588,1523,1083,211,1402,405,1433,1604,1723,466,1187,1265,1068,831,809,1664,200,880,401,1191,730,541,746,180,1018,1535,520,495,1196,352,1278,344,485,747,1531,1947,584,89,1013,887,765,1170,1423,93,289,1235,945,129,1987,3,761,1926,1264,1106,914,1390,1506,1751,1620,1631,476,128,1726,1812,536,1268,534,1985,358,780,1910,1739,1189,1822,1750,1856,374,523,83,342,246,512,471,1870,267,1456,1065,924,1367,33,1293,1711,1216,1089,7,356,685,1151,331,410,1121,1584,1341,1522,1965,941,1389,817,1267,66,565,1780,497,1249,316,1392,1630,142,742,470,791,1120,37,1608,444,1626,775,1581,1023,422,1674,305,585,700,723,1256,287,170,1108,1653,1952,1916,328,1134,933,136,535,406,1931,1770,783,80,1142,860,754,816,447,720,731,286,443,378,1485,708,1959,54,1619,1680,1541,84,917,845,1231,1709,1684,318,838,1484,671,667,943,837,1115,161,303,1479,681,1760,177,1381,636,442,1382,876,919,259,98,895,258,966,1764,397,1512,340,1166,1933,568,644,241,959,1240,1806,1220,1217,1073,395,1667,621,1104,736,1177,592,1221,661,1182,792,1445,1771,1803,191,1236,461,239,505,155,1136,1996,1508,1654,694,1158,743,72,1706,195,1169,988,1091,741,1896,1944,1452,1101,1007,1976,1239,383,1130,1379,126,1600,1424,1450,329,593,877,319,1776,1181,280,1663,1085,120,216,327,1211,1668,11,1537,1574,974,295,213,414,923,603,97,1284,1377,1460,1466,881,1975,859,1307,385,979,321,1705,1828,231,802,624,639,1431,682,799,25,411,1993,1286,1513,1021,1260,1001,981,1070,1928,1004,757,1950,843,288,813,53,976,1331,106,1670,811,371,499,1850,977,426,60,567,1560,233,291,842,707,1913,1868,1194,1250,182,1178,464,446,946,64,1834,913,243,452,542,1873,215,404,480,13,768,174,28,738,1839,638,649,337,1977,1907,1857,1308,805,350,995,1481,1205,1611,762,399,88,608,607,172,609,1724,1636,1395,409,1525,642,1036,253,1905,1340,1898,737,127,550,14,1326,1295,1827,1215,847,1163,1982,125,1534,218,281,436,1972,806,1597,1836,1708,701,1329,1859,1941,677,273,507,176,163,1046,192,1864,1813,1063,449,1401,1938,1997,1244,1785,819,1359,855,58,925,1602,1893,810,772,1545,797,1842,1536,190,1591,1123,68,1892,1930,1252,1248,1277,228,620,582,1292,408,1247,1879,1725,1752,513,1973,1882,823,684,1486,1784,1238,1855,1027,970,1995,407,646,766,691,926,518,999,1159,558,1862,617,488,862,423,1263,1929,1297,758,868,1411,187,1398,1499,983,1895,1441,1343,1033,260,544,611,1902,1763,1179,1306,857,1469,948,194,1110,1908,1948,998,1302,108,1418,1656,899,820,1086,853,1635,1246,1721,382,1076,487,1321,1357,1811,1092,1356,958,324,1533,1809,1432,1097,1315,1335,1385,756,41,145,1056,104,1462,788,599,631,1519,1078,832,196,784,1426,1173,532,798,548,922,32,1990,510,475,1713,368,74,1350,586,897,748,1210,1694,1945,1369,902,185,1832,1647,1594,124,1596,1544,1048,477,255,1897,326,188,654,1540,663,298,245,1758,978,1712,1011,751,576,1459,604,1384,1773,1242,362,457,1943,1133,208,1707,210,254,158,1412,605,384,1912,1062,1860,1305,474,824,1148,1022,1476,1971,539,613,1327,222,1043,365,1180,1978,1599,15,1319,1829,234,1923,1715,1029,458,1974,547,1681,417,1543,563,18,662,1927,1103,1775,338,519,1393,750,679,1403,1125,189,1061,1185,1230,1438,715,347,441,873,459,595,47,1624,114,1026,1434,21,949,1132,1887,61,1554,1300,825,482,370,469,1496,306,985,1259,702,209,202,1430,1951,285,1666,1495,51,456,854,1693,1528,1589,105,566,874,1203,614,1472,1464,279,1080,1444,1579,1821,1755,779,1266,752,1890,1376,227,557,217,1087,1565,237,1658,1875,863,1281,1561,1889,570,1245,656,1942,821,827,293,99,629,1795,484,1287,1639,641,980,1488,804,898,1504,1229,1009,1228,375,1613,836,219,961,45,1280,242,1386,1010,892,1742,552,1984,514,878,1964,1428,1183,561,1733,1538,573,1660,225,1757,1918,1553,1201,678,1344,1956,571,343,770,1251,390,1074,224,1521,793,506,425,1309,1325,10,553,1416,1714,890,1991,366,1436,472,1792,1796,1372,52,1059,1455,198,630,1364,1967,1853,1296,42,1225,1117,1234,1362,1891,1650,1846,940,1767,1478,1400,430,8,939,1054,704,1212,1970,154,1299,1833,1193,1909,1672,1607,1968,491,363,1111,640,6,1517,1983,1128,1157,889,1031,1558,433,379,1903,1966,1550,62,438,901,111,647,559,1644,597,1716,997,1475,351,1337,1872,1671,659,164,1598,795,865,448,418,59,907,1482,109,956,1168,1353,1317,1440,1578,909,1150,1756,1139,1047,501,1114,171,112,1610,1998,1722,725,1303,952,493,117,615,31,910,204,619,753,1276,268,496,1669,29,915,1451,1629,549,1691,312,226,1135,1961,144,1634,598,1082,220,134,1685,1744,1417,1443,1556,1778,1202,1491,1255,726,26,675,706,1415,957,1575,1274,1582,1112,1841,1275,934,1363,1573,498]","arrowright","true","0","0","1000","2000","[""0009_N2000_K1000_NOCLIQUE"",""0005_N2000_K1000_CLIQUE""]"
"canvas-keyboard-response","189","66379","0.0-6.0-0.0-0.0","","415","","arrowright","","[900,333,971,1116,182,177,1910,1480,1050,1702,642,1332,1491,278,180,1190,488,97,1272,132,924,634,1596,686,1914,966,1509,1706,400,457,183,678,1548,709,866,659,922,599,839,836,1856,1387,1817,781,1901,716,285,1977,393,1229,1835,861,1983,638,710,791,822,1021,1866,254,228,1514,1300,37,1078,1172,624,334,1904,1513,1006,349,344,1804,264,126,1274,816,194,1585,1430,633,731,997,311,1949,1660,1159,146,827,453,535,614,296,486,1176,1969,1139,1651,647,77,878,330,851,1582,612,263,139,1754,474,828,1482,219,1128,560,1971,124,1167,529,356,423,1746,355,705,921,1056,1890,1445,1872,1554,1928,1173,133,1987,1296,910,1123,593,1074,502,1701,57,1071,491,1808,1981,1530,103,274,31,175,691,631,672,205,1113,912,322,61,697,1072,371,1214,1022,1720,325,434,404,572,1967,1689,1784,1182,1669,1245,470,477,1368,628,181,1195,785,996,1208,701,1993,767,1070,1641,281,157,1011,1293,742,674,1726,1941,277,1728,811,1420,1920,1777,374,1830,1369,1642,1203,1284,756,1137,1968,29,1426,1098,76,343,1199,580,410,1238,1040,1454,1985,1837,1165,1149,1268,421,416,1785,1095,63,49,1603,1372,329,1090,1940,806,242,1338,953,1791,975,75,1975,1658,1200,603,1649,108,115,882,1026,934,1934,1615,1621,1884,843,1787,556,825,284,1555,540,217,832,1339,972,1699,1918,1881,1380,617,230,1528,613,403,1610,179,258,1857,949,1470,1224,165,102,651,1163,1140,1820,316,192,1942,702,1178,653,1061,1092,1153,1930,1444,324,1187,813,3,47,909,1018,942,164,304,1573,585,762,1970,790,167,1697,576,412,1625,69,1749,550,1049,110,307,1670,1988,1982,1709,468,530,1965,441,48,1979,451,1230,707,579,352,1932,662,1344,729,1458,565,1622,218,1048,320,1591,970,650,1486,1519,887,877,437,436,772,1177,236,857,1767,275,1880,1243,1391,98,616,201,321,1623,1529,317,95,787,1134,1206,847,1757,583,872,2,445,1876,1400,1240,289,770,240,1309,1712,1666,869,357,864,62,1148,1239,908,1062,395,753,27,354,1517,1143,1412,1581,1776,1466,1853,646,318,1084,1601,174,1597,1286,1972,312,463,1747,1450,1129,952,261,112,757,1292,682,452,693,1479,382,1220,726,541,1405,1826,1832,86,1104,700,823,1503,547,1783,623,976,1978,1571,568,796,1305,1425,1306,234,1499,890,1662,464,1378,1233,88,812,301,206,1489,1439,1275,1861,396,26,680,514,279,1770,1687,1655,1052,1614,945,1863,381,99,1449,1576,1557,1501,1415,1248,1047,1750,586,1812,575,926,566,1960,129,1842,979,1279,1136,268,727,1434,1734,696,1174,161,1179,1313,1550,495,511,83,704,1020,1263,805,657,1089,859,846,894,815,1244,917,23,1312,365,819,1216,160,1843,1579,582,1650,1813,558,1057,187,1064,564,1675,833,594,1008,273,1919,1854,867,21,1633,163,830,1271,1067,1397,1081,777,107,151,849,1848,1948,1539,955,1265,801,1189,1012,398,1205,619,1151,1456,125,1544,459,1628,870,1080,104,8,1989,885,446,1559,1504,375,378,1496,759,1958,692,1827,1288,259,1127,198,1903,1583,590,644,197,694,1416,256,1590,1348,1028,643,248,597,1031,879,1929,630,764,1382,755,989,1181,936,1132,802,969,1046,958,1923,1945,411,711,220,840,990,1738,950,188,1494,447,272,1227,80,1472,353,1385,1645,391,1635,600,1334,1213,30,974,12,1963,1432,60,983,911,239,450,413,592,1755,216,58,1505,119,1600,1065,536,559,1055,1157,799,986,247,286,853,1359,1564,207,465,347,252,1100,1558,749,1516,1852,1800,561,1301,390,90,1789,300,669,25,892,670,1831,106,1801,442,424,1790,270,925,1946,1170,1075,1966,1131,1844,1370,1542,368,1250,1587,1101,1897,1398,1485,1766,1569,607,814,1441,715,428,1446,212,1197,1497,522,1710,636,1484,1032,1409,1737,1043,1352,873,595,1553,54,427,856,1388,854,1926,1133,1033,620,626,1944,257,123,1036,1779,518,525,850,345,1112,1764,1933,1698,1198,1447,1431,810,370,79,1943,1685,519,1212,1661,1549,87,1228,736,1870,1289,1511,72,932,1042,1947,1688,1231,1017,238,992,237,690,299,1815,1452,688,1374,422,1939,706,32,1796,1606,1810,1421,1298,1759,85,1700,1871,1732,905,1436,1950,1327,1735,1252,999,800,1442,1009,1638,1184,608,883,440,741,1913,1202,479,1883,531,1768,534,185,1561,1575,65,1105,771,1381,1001,1560,341,1574,591,255,500,1889,1627,1586,1828,803,1677,141,298,91,993,1786,915,645,515,1192,723,213,967,1336,1217,1152,193,184,745,372,467,1771,155,1980,348,555,557,1401,1953,1531,407,539,1836,735,53,215,51,937,1609,1704,1406,639,1325,1690,660,262,931,1632,471,1526,1909,1424,712,1797,1395,1995,118,681,1014,159,1748,588,231,386,1865,1403,713,549,190,1099,1111,309,1051,1973,1160,24,406,1823,1054,1562,55,1183,456,1261,432,728,1594,835,984,946,994,64,904,494,28,666,1535,1396,533,544,156,508,290,1435,1546,1186,1543,545,901,379,587,1085,1035,1232,1083,656,615,948,293,1278,114,962,1211,1120,1711,1654,1692,769,315]","arrowright","true","0","1","1000","2000","[""0035_N2000_K1000_NOCLIQUE"",""0019_N2000_K1000_CLIQUE""]"
"canvas-keyboard-response","190","68299","0.0-7.0-0.0-0.0","","437","","arrowright","","[1476,1499,114,1539,468,1506,1692,1556,390,851,679,301,608,423,1284,1407,952,1770,296,1209,1362,65,1307,358,1323,1745,1002,1367,1154,1160,307,376,764,1320,379,481,1645,363,1847,548,568,337,224,765,302,1205,1810,1822,1030,49,1858,1444,240,1507,150,1015,849,910,1821,1612,700,1489,647,744,1200,1042,369,1057,554,589,1901,1301,1939,1359,1753,640,605,1560,1601,639,1285,1220,505,484,1322,1438,869,560,626,1125,373,586,405,329,1921,250,998,488,479,284,665,1054,1441,1720,1579,1628,1987,1853,682,455,670,55,230,965,1983,556,1078,268,648,1487,580,1143,1421,181,1177,1679,1746,113,493,1420,854,1391,295,559,1572,422,244,1851,844,175,904,1404,966,102,949,1457,1348,1733,894,400,1632,170,944,1887,434,117,1155,522,578,1840,1807,1776,1786,1760,1278,517,418,39,205,338,306,906,1518,1837,1527,841,57,1398,77,600,842,477,1665,1146,29,292,961,1756,1157,881,724,140,1569,1217,478,436,1262,1599,1016,1869,510,1336,947,1924,573,1076,1093,1762,642,162,138,982,1459,252,1721,507,1785,1134,220,1941,1619,1178,1486,70,99,835,1552,795,888,63,1130,1376,88,750,4,375,1654,429,1716,1551,1350,350,528,1260,264,406,1232,1037,225,1424,453,953,1288,23,523,1479,1103,1789,500,1192,673,3,1958,1773,141,145,1439,357,346,867,847,1238,321,1651,820,32,1703,1066,831,840,1638,1531,293,909,153,543,1446,1418,1087,1448,652,288,1842,1696,717,1932,1697,1590,1318,1704,1040,372,1172,557,198,1481,1793,1608,774,1839,1423,1291,1169,1806,1670,1668,1268,555,1247,1992,475,1871,737,1769,219,178,1761,761,1023,1167,1135,213,489,758,1503,33,144,401,1889,1161,890,109,1,1121,572,1368,384,1445,763,1299,1050,1923,222,1402,707,1949,1611,1369,1253,651,1831,929,607,1326,1044,18,409,1954,1997,1462,1117,616,1001,1816,227,35,1808,885,1723,1152,564,751,1085,726,283,155,1447,917,1353,802,1250,1346,463,1502,1118,731,168,624,1039,1465,1936,597,353,402,177,1431,569,1774,544,1373,1854,1928,653,943,1440,15,234,1041,1610,1119,152,628,1583,779,1836,676,730,1276,1435,461,75,740,272,428,1223,1978,1907,1802,446,1558,1870,52,1896,1792,1129,878,501,565,1687,341,354,229,889,1749,1385,1379,46,1712,1791,1935,1726,386,1567,38,691,387,1752,1304,1514,593,1491,1049,22,285,106,1566,757,253,1528,1145,994,1248,425,1568,1532,1328,352,736,1239,83,734,738,1981,10,1196,1043,1122,432,1834,1197,1678,342,618,723,286,498,107,383,226,502,1219,157,1866,1882,1493,1617,891,1180,1713,5,506,1428,81,1186,1482,327,1999,1971,1515,8,74,1565,932,26,1956,1570,1684,969,1727,1127,1879,1884,1519,911,873,1443,1511,1930,176,1948,218,137,1399,1574,1363,1224,1332,1311,954,1509,287,1432,129,217,370,1541,1795,1312,668,1333,1413,1261,1975,42,1430,1602,1138,636,1290,1212,27,1027,1765,853,1199,100,1337,1347,1412,340,908,1595,1629,698,808,1471,710,664,892,868,417,395,1988,438,151,1485,331,1374,1416,385,413,1136,24,824,825,926,762,452,120,1302,596,1584,136,85,123,948,332,798,921,1918,1308,1480,829,1105,1830,1801,595,1466,1662,1429,806,837,116,1695,634,699,50,1234,1140,1848,1577,838,741,1215,1182,1844,1488,887,362,487,689,1725,680,1979,1088,1296,392,1108,1945,1685,958,1245,196,1564,1165,1644,1098,412,184,25,1084,775,715,1957,458,238,1698,356,300,359,1401,1355,907,325,985,1504,148,1596,435,134,1099,1289,1463,1899,480,159,545,1846,583,1216,1895,871,1909,1640,1682,785,694,1925,610,1976,519,1109,1803,382,1874,803,299,576,1671,743,690,1338,1034,1195,1274,1710,1193,320,1358,242,1065,733,1947,1495,407,79,312,1075,275,1772,1314,1557,1850,404,173,1777,294,1520,276,1082,1074,68,880,1893,1855,1730,857,6,1656,1835,1699,179,1522,999,782,280,245,499,993,1104,132,1937,754,167,313,1706,955,51,1126,562,1005,631,105,1014,1973,1163,483,792,317,160,1817,984,1657,476,546,1530,681,1414,1902,466,1852,182,1221,801,1022,1382,1622,48,1079,1174,1026,66,1575,1354,587,441,1634,1419,1990,1694,709,813,1176,1191,67,1393,1467,1630,1244,584,80,1287,457,1258,1529,1711,1757,900,1748,1310,108,991,31,1664,1736,128,923,388,247,1666,58,685,1071,1019,60,533,289,928,1559,692,767,1392,912,843,1107,1790,351,1533,988,793,1356,496,922,666,766,1175,1455,594,1722,1364,154,629,1605,529,474,1913,258,716,241,1702,1437,1578,805,905,72,1917,1496,856,1783,711,1150,677,200,1766,1779,161,1508,1011,1251,858,1329,936,577,1814,371,1919,1141,467,1198,818,274,1133,876,930,78,93,131,1900,1653,1950,1381,773,1878,1273,433,581,126,1938,255,1963,1892,56,1159,1641,14,513,1000,790,1915,1371,941,34,243,368,282,1375,1589,732,1472,883,861,1986,239,1334,163,450,975,41,1512,1585,752,1741,627,1045,270,328,1189,1164,722,606,1606,1091,451,1709,1204,1470,1046,1718,537,345]","arrowleft","false","0","2","512","2000","[""0064_N2000_K0512_CLIQUE"",""0069_N2000_K0512_NOCLIQUE""]"
"canvas-keyboard-response","191","69883","0.0-8.0-0.0-0.0","","33","","arrowright","","[1673,1126,1270,249,1022,1840,236,1952,963,782,1026,488,1429,304,1533,1986,1267,611,647,953,1463,248,1965,1182,669,449,1963,1811,1439,1225,691,207,1798,1177,993,5,295,942,722,240,1600,837,1786,701,146,1110,494,548,820,1228,1010,1209,420,698,296,1727,0,1243,1681,558,533,1733,1251,1349,1976,764,193,1325,52,1255,746,1468,1586,1855,254,1402,228,1743,1653,275,1190,1516,211,890,1400,1330,1112,343,1382,898,592,1173,952,1575,958,1242,582,1204,588,149,624,25,1314,1206,1249,672,1915,1862,227,219,1714,1970,833,1447,357,1701,1821,1730,1122,61,1858,15,1148,825,600,145,1292,1573,1373,26,7,22,41,1469,541,390,1867,1390,1152,353,1643,166,1195,124,921,786,1099,535,562,1357,151,1717,874,850,1826,330,1083,1008,139,686,1851,634,206,1467,315,117,827,161,360,1579,1800,851,239,489,1213,522,866,12,796,1761,1545,243,1576,564,182,1901,127,1235,1215,358,342,1593,1664,205,740,986,751,24,951,1138,883,795,1815,177,630,1647,223,271,474,94,859,635,1880,422,486,1196,1438,1159,42,1500,483,67,1881,1040,1777,1153,1074,165,767,791,593,50,1644,1931,1210,794,919,1165,1911,1458,1692,617,943,847,48,949,618,1690,1109,388,1360,1024,431,1052,1168,720,763,1001,1526,1735,1715,222,1520,1622,1779,23,372,727,1835,1298,492,1058,1227,517,1837,1975,1945,443,664,999,1217,1266,1035,1640,1233,1903,1793,261,1265,262,96,934,1626,1737,1932,1944,1750,882,1279,579,1296,529,200,573,1166,1237,702,1324,1120,555,685,1202,1891,1716,1510,362,559,1723,389,456,498,1408,1428,1454,678,1536,878,445,1125,1317,983,1192,1608,1341,1609,1546,1123,1755,1981,290,128,162,656,1180,1560,108,1264,908,829,1016,54,1411,1089,477,1652,1841,1948,1605,1923,1813,1404,216,140,886,278,979,291,528,297,812,1849,307,1239,252,1612,218,1212,613,467,1433,198,1870,1459,347,1426,106,864,1297,1527,1442,1012,965,1776,682,694,1263,1334,380,1059,1051,1929,1260,997,1874,1045,589,1825,773,690,123,1571,226,1958,1351,753,931,250,401,697,1419,1519,976,484,961,446,937,1303,679,398,1954,1423,677,1354,1616,962,394,68,1884,81,1747,1448,1962,1473,1105,967,1111,711,439,574,355,1418,1822,171,82,1199,775,1098,313,735,1363,69,531,1753,28,333,1728,1885,1913,143,1244,1216,147,917,792,1072,1452,1401,1252,1920,1752,493,1079,1782,1512,971,1684,1032,155,225,1218,1724,1322,1980,119,987,329,1873,1309,1,534,903,1472,830,868,750,246,724,1993,521,260,880,994,485,1084,185,502,1029,1403,409,47,433,436,199,288,251,1691,180,32,253,1896,1621,481,1476,1649,832,1905,658,373,214,726,1788,1956,1872,580,1144,1128,1315,803,513,547,1528,960,186,1019,181,1720,946,79,542,1174,978,1829,1256,747,44,230,476,255,895,232,16,1854,447,1258,351,86,1584,55,1990,1355,507,707,719,1781,1570,1486,272,412,922,778,174,1042,933,1261,848,1523,642,1784,1883,1682,604,787,419,1666,537,459,1342,828,1069,1568,63,65,192,1066,92,935,1856,1969,509,1603,1783,1498,1564,1906,1726,718,622,179,737,1766,348,1080,27,402,1805,368,418,692,688,911,1762,506,323,788,1391,220,1848,1617,1075,504,478,1658,490,172,130,1502,1437,1278,1065,1934,1808,1860,90,915,1506,1284,284,804,1850,696,932,1909,204,699,337,40,608,364,1549,1594,648,1687,434,479,298,743,1902,305,321,567,39,649,996,1722,1142,1688,91,1757,512,131,1943,1205,89,1387,1316,758,1030,105,1117,1844,184,1939,58,561,29,553,56,1147,1738,789,194,1102,1566,500,1344,732,142,631,1916,1417,1457,327,1221,1200,2,676,1529,1186,62,1547,900,1817,1585,1583,1061,785,826,1542,1031,1530,1068,1712,861,309,472,1308,1642,819,334,540,269,1623,1346,853,1713,176,480,46,957,457,1524,797,873,1968,1768,1481,650,1619,1834,1337,1167,1828,1396,1229,1802,709,1550,1259,31,1366,1709,1559,936,583,1198,359,1183,197,1569,34,568,331,790,665,1746,835,1907,188,1088,1637,76,1979,1453,576,881,1704,280,990,1037,1974,141,435,473,1503,793,602,714,838,1648,614,413,19,539,1475,13,432,455,1773,947,1194,655,1211,36,1919,328,1765,1371,385,292,1277,148,503,1178,543,769,809,1742,1073,639,49,800,744,1601,1219,545,1241,1082,1845,1494,1677,1941,836,887,1323,1131,927,1435,294,178,1866,352,693,904,1660,704,708,625,1521,396,1397,273,1888,1489,191,116,66,11,1386,135,1554,876,973,762,1078,1039,451,768,3,400,100,1795,1599,1895,594,1367,1693,1918,988,125,1295,1063,115,1465,395,424,107,326,308,1294,1276,560,1002,1057,599,1543,1383,715,1000,1388,1389,597,1797,1705,300,132,241,1139,1009,969,742,1756,894,1482,749,164,710,1917,1478,1967,1431,1393,1291,1892,1985,1169,1208,1262,1338,1055,1304,1106,530,399,813,1156,1951,516,415,38,1796,1535,160,1863,584,381,1116,910,408,1369,1960,341,1214,411,1759,1912,991,1683,956,872,841]","arrowright","true","0","3","512","2000","[""0088_N2000_K0512_NOCLIQUE"",""0002_N2000_K0512_CLIQUE""]"
"canvas-keyboard-response","192","71884","0.0-9.0-0.0-0.0","","562","","arrowleft","","[733,1266,1007,898,594,116,967,555,685,723,1657,887,1885,1655,1064,1217,1654,1893,1377,1453,695,834,513,170,1993,1748,1419,1372,748,758,66,1999,589,233,874,1614,1295,1533,999,858,1336,200,85,140,1425,1660,584,379,468,1973,1869,1787,347,1551,1584,188,1823,1363,55,1793,403,1203,1423,638,941,910,1043,895,855,1444,649,650,315,1749,1516,1836,1778,470,1097,595,1100,516,6,1667,355,1980,226,1469,238,1527,1873,1503,465,1864,168,32,1949,1809,1789,878,323,1278,988,1922,1359,1292,1550,534,1261,937,407,1135,925,253,1815,1698,19,372,1300,985,539,1935,1770,1209,86,837,1800,880,401,1343,1108,1929,1583,209,429,1087,1825,327,969,1264,647,76,473,897,1369,461,440,881,527,1086,1188,46,1630,1240,958,103,166,34,448,1706,1540,1820,1107,1307,151,1373,1666,278,1751,1559,1500,1446,1311,1618,422,82,1859,1242,681,1928,444,1610,437,696,1003,154,167,645,144,809,328,950,701,1166,378,1555,135,1736,1046,541,1258,1479,1344,49,1844,1032,13,489,1115,424,74,1483,783,981,75,1696,852,505,322,957,1137,232,101,543,8,203,1069,191,577,277,579,755,1480,458,870,636,1794,561,1995,952,939,1152,1878,172,1819,319,888,1865,592,1151,1312,867,540,348,1174,866,1387,1892,1511,674,1589,519,1158,430,1021,1710,142,269,1886,1404,1522,1371,1632,353,1524,405,1022,1099,1028,37,760,129,190,1293,627,929,1020,1136,443,1320,1835,1594,1587,1234,249,672,336,61,1068,1832,1405,775,1471,1165,1273,1289,653,1910,506,621,1465,1987,774,1004,445,1724,702,1755,211,178,84,573,928,193,1985,1890,1947,264,746,769,299,293,222,634,1070,1554,1257,1181,1250,1447,862,1050,676,1396,842,428,1852,753,1078,654,739,643,1316,791,425,310,1911,1231,88,20,1241,1889,324,893,610,497,504,522,1851,838,455,1185,666,730,1905,1335,257,1009,747,39,266,725,1375,599,927,421,1398,1958,1360,487,1984,43,1613,94,1834,245,338,68,1646,700,1538,514,704,956,1395,849,228,1631,1394,732,1596,312,1653,1743,1582,847,1721,501,1302,1376,1322,889,1334,268,472,1427,1455,1409,551,382,1436,1508,604,909,1625,945,1481,1575,1870,1552,1390,420,1620,276,1277,399,974,1190,997,12,1118,1796,418,864,1456,665,1082,585,582,267,78,1919,29,875,1912,1959,523,1829,1208,1056,797,1225,872,1962,1639,972,366,1808,1908,133,1268,1847,1603,311,1507,227,1006,962,478,1544,111,1608,1167,761,1883,1675,502,221,792,731,1128,398,646,1291,1752,345,123,1586,651,1996,1969,1016,152,1966,51,1518,1733,1686,840,1777,270,659,722,383,220,1595,1319,1694,1199,175,773,436,793,1127,1138,642,1676,452,1645,749,1644,18,357,1000,1831,1256,326,588,1592,839,331,735,1463,766,777,1659,31,652,1033,1895,745,1294,1391,186,711,463,1541,385,1727,1635,1330,1076,1315,563,832,380,1616,1909,1177,726,1027,835,806,1434,717,466,794,7,670,859,620,1896,1875,1693,1451,185,477,1502,1723,174,1662,954,619,1349,743,1170,216,1866,1880,281,119,1019,1601,96,1265,846,138,1801,600,109,709,987,1766,868,697,1392,1860,996,469,1925,1591,1147,1331,1783,1609,815,411,754,1426,1767,1762,886,337,900,1095,402,433,1351,1744,510,1526,3,891,708,1272,1251,970,1478,607,454,295,255,1709,1986,1182,107,1370,716,1649,393,1557,1532,1454,869,930,1235,1931,1489,491,1945,1246,1711,762,192,260,1515,149,826,42,566,1418,1992,1448,912,53,1053,904,892,873,1220,1160,1917,1468,613,1760,1598,1385,1643,104,21,409,1140,1768,991,35,1652,1664,800,629,518,451,1168,1074,1636,1858,1732,1341,1247,499,885,1484,1309,1542,1672,160,1431,1914,161,1501,280,1543,507,1212,1230,246,24,1671,1918,1673,352,560,303,1629,789,480,788,229,394,1408,1243,1304,961,1512,1938,397,903,1888,625,1038,1805,831,180,750,1443,977,877,1067,1771,1593,474,213,710,1285,462,1485,1776,1624,1270,1213,934,265,317,1737,1144,691,606,901,1576,1558,1758,611,485,1301,87,282,1989,1590,4,593,1101,860,576,308,17,1412,207,968,371,408,1362,768,1420,91,1682,590,342,819,1184,435,801,236,215,72,237,1380,95,158,110,1994,493,1290,334,1781,1923,1198,553,1837,779,360,1977,1288,544,1846,438,313,1685,1525,450,552,1034,1998,1055,1633,1229,1169,143,990,744,948,943,1967,824,145,100,412,871,1697,1130,1324,1116,848,734,441,1891,1884,1687,1276,1658,1960,1531,913,118,1802,363,1104,286,549,1726,1506,1145,1738,1695,181,362,1972,669,1214,1826,1281,1210,125,830,30,490,1702,1259,1010,38,1528,1680,1640,162,575,953,622,254,690,1249,623,1094,1389,679,641,571,1224,426,1269,1175,343,1421,1716,1410,1337,1764,165,720,70,1548,1054,1384,915,132,765,1871,1354,1073,1002,52,1442,865,1383,1317,1,56,1407,1799,914,373,148,1346,782,1498,1520,767,108,1839,387,1961,1916,1149,975,1393,332,479,686,48,1612,591,1163,1066,556,1535,567,1227,1155,1848,1731,1617,1132,44]","arrowleft","true","0","4","256","2000","[""0027_N2000_K0256_CLIQUE"",""0052_N2000_K0256_NOCLIQUE""]"
"canvas-keyboard-response","193","73792","0.0-10.0-0.0-0.0","","385","","arrowleft","","[1700,462,1963,1754,704,1651,884,1195,342,1672,1151,615,1502,826,1781,80,487,1805,96,1300,169,138,298,1496,1667,1423,475,732,1974,1786,1926,1746,333,552,302,1901,598,43,151,675,1641,1547,276,1572,1853,1546,898,1329,1696,1752,1349,177,964,613,1884,691,1286,1995,1854,314,120,283,344,910,236,1633,785,1717,1480,301,277,975,373,1604,1262,1085,1589,1114,1811,1640,12,1141,1653,394,629,118,794,130,17,1357,603,1919,1560,856,1453,620,1401,1714,1170,1075,460,1711,684,1296,986,804,1881,662,1834,623,387,421,1551,1574,82,1905,1749,1008,1073,1080,853,559,1269,1198,444,936,989,1639,759,1285,750,540,278,1522,972,929,1914,1241,1592,1748,365,245,631,1029,1550,1998,1234,162,1222,307,1883,1482,696,1768,1623,572,1456,1763,122,1728,599,241,1213,833,338,363,640,1061,1001,625,863,657,192,495,770,854,414,1632,268,1818,459,1625,1362,1969,511,1478,1844,509,1960,371,1063,1215,294,996,427,56,1108,1611,1966,455,440,210,1326,1341,1897,557,481,514,432,715,286,1568,755,1309,491,158,947,1607,1324,284,347,919,859,1579,1899,848,3,18,230,369,437,776,186,1209,1534,337,1970,323,647,659,717,693,1109,1027,207,1416,938,1649,1721,494,383,1678,1684,902,1569,380,1836,1713,1037,1200,1600,124,332,1504,1774,1740,295,1425,92,658,510,375,1153,1025,1375,97,1999,1596,1221,1419,321,1460,660,1116,1509,993,1315,1557,668,913,1211,900,480,229,638,1664,1665,1867,1055,1201,280,1733,578,806,1661,828,701,665,237,1446,893,405,1015,328,1494,1188,1409,1087,824,1738,368,79,33,1302,998,1800,846,447,973,1466,1545,1865,335,1433,609,420,777,627,751,317,214,316,1233,1706,1529,1737,1469,744,65,801,761,869,1417,1462,1470,921,1855,318,1799,1294,1907,1253,881,384,1281,1913,1719,1192,977,445,1821,520,1017,1100,105,1436,1299,585,1510,584,1429,1134,98,505,1825,322,435,1440,1194,961,1245,1770,544,1485,262,472,1978,896,29,909,1135,1147,1012,116,1680,35,582,1369,1239,1303,1690,1378,1647,1938,407,962,1723,67,1704,1971,619,795,942,1838,77,1519,570,419,1567,534,887,1451,1180,633,812,1908,632,1904,832,1351,1077,1866,257,1869,756,1524,1720,1288,1356,1420,1117,1318,858,270,1594,515,239,720,994,1123,1636,68,981,1565,72,1383,305,233,1576,409,1204,1760,1255,357,1267,366,231,727,178,1467,1094,418,1617,1441,1020,433,1427,1246,1178,63,129,1069,787,1612,413,264,636,1217,1457,187,1833,995,1701,441,378,1483,406,1064,27,1553,488,1674,580,107,1291,1928,730,74,259,721,493,1121,811,1857,1895,843,1543,1031,1896,673,1104,1400,1256,1468,1813,1787,906,1810,1823,448,119,1028,170,1166,1099,1824,193,401,1780,1847,1807,958,820,1366,1053,117,1839,502,517,1284,1994,1030,1024,1566,222,1348,1916,19,1922,1155,84,1275,711,1290,1817,1058,450,1190,104,593,837,568,1179,1691,783,28,417,1533,1657,209,1944,866,850,1940,1656,925,680,1577,1527,464,1722,1174,141,1584,110,1874,674,1734,246,194,497,1732,1013,391,1775,831,355,1343,334,78,195,1517,1862,370,1650,175,1175,253,1219,1226,1404,1772,1150,1662,707,1705,1638,274,1086,1261,798,594,504,653,1271,1561,1742,1964,800,114,1319,610,159,1820,21,341,645,161,1442,1183,1777,204,1606,1338,1389,1382,350,1791,1528,525,500,604,9,669,1605,1621,90,386,757,454,771,58,1683,492,1538,361,1587,16,1536,412,979,1007,1718,396,1021,31,1181,4,376,1923,1129,1758,1609,890,518,310,1508,1851,1644,797,39,346,1712,1208,202,700,635,1074,935,985,184,1947,167,1445,1126,1493,1924,377,1945,1465,1702,372,1864,1676,945,1065,875,762,442,1745,523,1673,1698,397,548,1159,1091,516,1018,1484,1248,1499,1002,883,1164,1236,1898,45,1082,173,1535,1812,939,714,215,1843,1439,1247,1808,705,810,1278,1036,390,1792,595,754,1432,106,1173,1406,1776,1022,1815,1877,1243,252,616,1268,911,1206,749,1554,1790,1342,992,482,267,41,903,554,99,1229,763,1314,1841,1831,476,1259,1384,722,527,1274,352,1394,1771,768,25,1014,431,855,166,1699,474,845,55,1766,1878,683,1057,821,966,1976,1301,477,531,458,1160,943,1402,360,1047,792,1090,1693,57,1973,622,1582,149,1146,467,479,1845,621,1814,136,1163,1681,1943,1197,1762,1352,618,1327,1514,748,1365,1381,1629,1552,121,723,1144,297,374,1376,670,575,1939,148,1042,819,1437,926,758,844,1051,1929,1391,1729,260,238,1216,1331,340,959,814,912,1202,1819,1395,1306,1616,1130,538,1000,589,436,205,1283,1709,1997,577,1654,76,91,1084,1154,273,190,708,702,1048,1580,1880,878,545,1415,1803,430,1330,1398,612,1103,326,698,235,456,1822,408,955,1796,1967,851,140,611,1954,1879,319,227,1512,1102,228,1521,839,336,555,1846,930,150,1541,156,816,1136,60,135,201,731,398,1797,100,1010,987,1060,478,786,1858,1773,1618,639,411,152,536,1076,532,1779,1280,1438,1958,590,1254,1949,836,725,154,1463,434,1471,485]","arrowleft","true","0","5","256","2000","[""0003_N2000_K0256_CLIQUE"",""0002_N2000_K0256_NOCLIQUE""]"
"canvas-keyboard-response","194","75644","0.0-11.0-0.0-0.0","","308","","arrowright","","[1722,771,1505,673,1746,583,1796,1250,1221,791,1999,588,192,893,1535,1757,391,146,376,932,212,1452,1069,1488,403,1226,738,1869,1531,477,24,1921,389,229,200,837,1442,1028,155,666,1678,1496,48,368,436,584,299,1068,806,1828,1588,990,1742,1005,1692,1619,1624,911,455,186,1421,918,1354,1525,1541,1542,174,1903,1964,752,1088,242,1788,1087,1656,1149,567,538,1686,1861,374,590,1270,37,528,1650,59,116,1785,727,1602,1635,1727,1407,402,1752,1703,343,190,674,1786,756,121,293,684,915,1731,1233,1155,573,587,869,221,366,1119,1726,775,1468,1631,1685,102,410,334,1893,757,1006,742,387,1247,1124,1176,1120,95,1318,1897,670,547,1664,949,916,17,1857,170,493,751,1177,601,557,438,322,1704,149,1948,682,271,488,1457,1441,497,646,656,1208,252,618,1159,1590,886,910,1434,850,1946,181,233,1925,201,1806,610,289,1618,781,160,1705,565,1034,1875,1503,68,1536,1647,1612,1479,1099,1379,1540,933,1465,1055,21,758,803,1648,1251,1245,307,609,1500,285,1792,1687,446,29,1976,604,1676,313,1950,1770,631,812,1513,766,27,1188,1171,324,1193,1140,1527,53,648,1173,1243,1185,544,832,876,1373,944,330,1277,399,1738,261,106,880,1552,219,1882,1174,315,257,929,486,1915,1219,1269,874,1181,1961,696,566,1953,1336,801,1418,1211,1236,765,1039,1755,724,663,209,701,807,1501,23,1679,641,851,1194,1054,87,3,848,1735,377,1358,1335,1374,284,1258,1040,1776,1480,152,1979,1273,1302,792,555,1879,645,1673,1430,1117,705,1105,172,1043,664,326,1683,292,549,318,362,1787,70,1459,960,1420,1325,420,162,1447,923,1322,1249,1135,920,77,975,922,1035,1544,1850,1079,1711,761,1819,904,317,739,617,1230,1753,26,1312,1713,426,1445,1293,1094,745,958,1933,579,956,632,1569,1748,1192,831,363,1782,1444,919,1157,510,158,1467,151,1387,833,107,1912,697,1580,9,1932,1152,273,1616,784,1972,250,86,1807,1425,1982,991,1596,296,39,19,258,591,393,1997,1090,1660,1282,921,1075,371,1284,1331,130,1816,1262,8,171,179,232,815,1377,1839,968,1396,1072,1451,506,1848,479,855,1769,634,115,1514,1573,1827,924,1775,1095,1554,649,34,793,1924,244,598,269,596,628,1227,49,1010,358,1592,1570,401,241,1914,1477,122,816,1744,1574,184,785,718,1978,614,1617,1659,708,1534,1002,473,1438,644,1357,1405,414,700,501,853,1437,1385,735,1148,350,776,994,1873,1275,1663,1614,442,1772,1980,1854,1021,1910,1528,1133,1940,1670,329,198,125,982,1078,940,950,1763,1750,268,1429,373,42,1546,1065,1084,1777,1917,1654,203,1949,1885,754,424,541,58,1896,690,862,772,1518,228,437,1583,1833,782,264,1000,1909,472,1943,32,753,1004,1131,1,1440,475,1196,1009,1712,392,218,354,468,1107,1951,802,1048,651,988,1286,746,1300,972,805,305,1450,1862,1601,314,1837,1427,1751,526,1512,433,127,889,626,119,938,193,168,1800,1228,1007,144,737,1934,780,1783,878,1063,1017,1992,836,900,1311,79,466,134,1853,197,619,1994,239,527,82,1594,683,44,849,1016,441,1701,669,595,208,607,105,1464,1413,1070,1246,1158,81,719,841,1317,1632,778,259,1898,1205,1963,1304,1559,637,1030,811,800,564,859,1038,1359,1435,1866,1112,355,1306,1487,1401,1952,236,142,762,304,1141,1162,702,1665,1825,1404,553,1715,821,1989,335,741,729,351,1813,571,5,1097,1073,1225,1939,613,1363,1003,481,1719,709,1766,1022,327,597,1878,1298,1031,1987,1150,1203,554,661,1062,1876,1165,1168,1852,901,55,720,1422,388,1167,809,1299,1710,114,1549,723,1217,471,1343,971,62,1649,1539,681,131,1367,665,1244,113,145,1201,1587,965,78,1204,935,487,1014,1699,556,814,672,1561,1984,1132,852,1968,640,464,1860,1426,1905,574,483,1720,1386,98,1928,1216,101,1139,188,1254,459,605,1966,67,730,1431,1143,531,1908,1709,1818,519,1938,240,370,1301,582,50,126,16,636,347,138,1899,1291,1025,750,214,1911,454,957,840,1832,1640,1210,1931,66,515,1935,767,0,1061,1489,1717,1591,594,947,1137,1183,825,955,828,675,857,1239,1136,1508,1889,1642,748,265,1667,1494,457,871,1355,1689,169,654,1809,1707,1019,1756,1202,346,1237,1011,1456,277,839,227,505,1962,542,1811,1986,1316,90,1822,1256,96,383,406,36,774,57,1129,936,41,1515,1037,1883,1732,722,1651,946,1134,879,255,136,624,338,1801,230,902,1634,1677,458,1937,93,652,906,478,643,1521,1491,1666,1279,1365,1122,1969,827,415,662,1916,779,1123,1958,1060,1900,509,1469,484,514,1868,694,931,593,695,74,301,1389,1804,1091,680,569,1052,1730,1289,262,1320,1388,899,1296,1739,381,409,1096,1045,1790,1215,1238,216,502,251,1696,333,1867,1153,1784,294,1504,279,348,993,1691,1639,474,2,1380,539,533,1615,1835,1872,99,4,364,676,1545,337,627,1001,222,934,1042,210,320,873,891,1983,1797,1851,1555,1836,202,1724,47,1332,1353,1829,178,434,860,1337,1529,400,449,939,1160,1507,861,1266,498,1927,1268,1930,1111,864,1798]","arrowright","true","0","6","128","2000","[""0006_N2000_K0128_NOCLIQUE"",""0064_N2000_K0128_CLIQUE""]"
"canvas-keyboard-response","195","77484","0.0-12.0-0.0-0.0","","306","","arrowright","","[821,1396,812,1519,393,136,358,1830,1035,704,841,83,162,312,1401,1000,466,809,970,458,1470,1563,125,1478,45,1580,676,1496,1704,1088,114,1284,1847,750,1120,1334,924,1968,543,1207,1757,1610,143,1557,102,927,1863,450,1090,575,348,403,233,18,1642,991,942,441,1874,1198,1750,1702,1604,1089,482,1199,1501,303,318,1115,1432,1646,1779,182,1243,73,1422,813,1638,1460,1482,508,1878,683,1426,978,1203,449,1819,359,1450,1091,1714,909,541,1471,1618,1146,1164,339,1281,1109,1939,304,249,1549,608,623,1103,48,1135,1382,1264,1805,257,661,320,903,1130,1951,1221,1512,730,895,803,413,706,1906,1275,1747,545,179,382,103,1581,1398,846,1844,1385,1217,1762,401,565,1641,459,180,1399,1765,658,1116,1296,75,1634,657,47,387,1226,82,1324,12,1231,1443,1416,74,1999,1354,1667,55,404,217,349,1546,570,1184,1163,395,1063,1669,850,665,1144,1374,195,1713,1214,338,1384,1748,1869,499,1628,1312,980,649,1465,86,1590,521,1208,861,1900,1533,186,1790,1222,1249,1336,234,254,1189,1523,523,139,1456,5,1816,118,840,293,408,146,1755,775,1924,1138,1438,1593,489,885,1899,1550,13,1654,1976,62,378,270,1826,591,619,1069,632,1419,274,1916,902,1154,848,1194,1180,1728,507,1843,1378,1719,207,1259,1518,1677,1343,1588,1292,323,1118,517,654,1828,1036,1545,171,1061,1831,1825,674,862,263,1263,1508,1500,352,1363,773,537,1952,536,72,737,1224,1774,384,1954,261,1996,816,237,911,1929,778,1745,1705,1592,1220,1423,1252,1002,1612,187,906,1880,111,463,856,113,283,1983,1674,827,782,555,1461,879,1021,515,876,121,1229,1953,1663,421,196,1644,424,324,362,1487,894,963,1075,932,1666,1357,205,1187,1577,663,117,1007,1225,331,1306,1682,6,240,235,601,740,1458,1133,866,1340,1386,478,500,962,1607,1245,51,1603,1723,647,954,252,1695,1567,890,1596,420,173,560,1772,703,1441,587,1572,1554,576,772,1481,955,1415,1505,1799,739,227,599,432,1812,851,53,1902,1727,1108,1544,310,10,551,731,141,1360,867,807,1298,1921,486,1072,409,169,989,1758,534,445,1670,1994,714,662,1209,1855,1749,470,1435,411,1587,461,1421,896,800,1797,881,120,784,1633,1990,1201,1417,1339,1348,1809,148,617,52,1322,1912,1016,722,239,566,1931,985,588,206,864,1058,631,483,313,698,1961,1121,553,446,1126,1031,621,1428,340,4,1801,1038,1492,625,618,399,451,1538,1352,430,1802,193,826,315,474,198,578,1711,1171,50,1925,1451,1839,1724,1764,620,477,1429,1407,1368,1706,71,1147,422,1862,1566,191,829,1763,882,937,1851,1573,1730,355,226,771,1037,150,1513,1442,1722,1650,1239,804,1388,1665,606,453,1835,259,24,1660,622,1250,1693,19,655,1969,84,1574,138,1285,1785,1251,1101,870,921,155,1013,188,899,513,1318,1692,1140,1472,1379,34,1956,1059,788,1098,1700,1046,1425,345,1132,582,1540,1390,1029,1457,675,481,39,604,116,568,272,1308,1258,1307,993,787,1302,1141,1507,1085,684,417,1256,1949,1018,1049,454,1846,1807,1397,597,1185,1941,346,1119,1389,1459,546,614,1602,950,1978,94,456,1001,1864,429,1589,1395,221,1933,951,435,1742,1879,887,735,822,185,791,1143,1908,1009,1980,723,1299,215,368,1701,1872,648,1313,967,1327,457,101,287,1473,1111,1006,554,1753,1294,1082,1235,1026,1928,512,271,1694,1047,1964,1436,707,1729,1475,859,204,1945,1703,719,392,652,509,1405,1102,1883,1213,1661,1305,858,151,1274,583,425,947,900,729,1786,1125,1453,278,552,431,363,1402,1095,828,915,276,1893,1210,1760,1586,562,910,1739,968,115,1532,824,502,1039,43,810,1530,593,1521,1552,127,1510,1204,938,85,1233,66,1657,1822,1998,1756,1286,802,135,1834,506,1272,639,67,1431,130,765,63,1372,443,550,668,640,1420,965,307,751,1051,109,76,1671,1627,579,1168,1136,1257,1468,1081,1783,1289,626,1012,427,81,1127,1086,1597,1015,891,972,1974,629,752,718,175,1971,1555,1744,1777,878,794,1266,1238,99,1687,650,3,1568,907,1219,1984,745,1942,1798,935,49,112,1690,920,262,1725,1829,1319,328,908,245,814,1578,1608,1320,524,8,31,1356,37,1227,1918,638,823,796,1775,539,1162,1709,956,1148,1794,893,1559,1337,1870,1178,609,286,736,1571,912,54,1617,944,1326,831,1156,178,366,633,1105,1080,888,282,100,1335,783,695,1871,214,1896,1645,535,1511,984,140,1813,964,1582,184,2,815,883,41,351,1930,1110,1276,350,189,763,1698,1498,1176,774,727,1297,1353,256,290,1856,128,966,487,1197,1216,1845,1585,1267,64,21,79,732,330,682,946,616,1350,1253,244,273,336,1383,1528,1387,529,1019,448,285,400,982,874,275,1773,1092,994,768,1244,533,1824,1907,267,549,27,760,367,613,1598,1149,598,1751,241,465,1314,1295,1068,733,1915,479,1910,1859,1394,17,1024,627,1186,1622,1901,798,1400,1927,122,1052,1488,749,1615,305,904,1889,1967,808,975,292,547,1206,183,1726,651,194,612,203,26,370,615,1867,1629,1881,1817,754,519,892,1485,697,361,1045]","arrowright","true","0","7","128","2000","[""0026_N2000_K0128_NOCLIQUE"",""0012_N2000_K0128_CLIQUE""]"
"canvas-keyboard-response","196","79404","0.0-13.0-0.0-0.0","","395","","arrowright","","[171,463,205,1161,24,1213,1381,588,1104,1120,527,1722,220,636,64,290,557,861,1073,30,1110,1392,633,6,836,595,743,897,338,125,1238,1331,1118,206,856,272,1052,1979,1826,1379,793,1185,1133,1349,1835,1053,1846,1229,1778,1576,1071,12,1961,2,783,1414,1927,1711,33,416,1211,266,546,1181,784,578,1875,19,1501,1047,144,280,411,657,177,1766,1834,946,97,691,661,1302,1977,228,1090,1114,1227,375,674,378,1813,574,84,623,1547,436,545,45,519,1278,1072,62,602,1760,1527,263,203,896,225,333,1845,1802,1124,1312,342,146,456,78,1493,1205,1097,1092,103,630,1634,86,735,1716,937,1284,1044,855,876,593,38,1197,1727,1999,490,1815,1084,1613,353,168,1065,708,1864,1933,610,26,1016,1426,179,1042,980,767,960,1837,806,1271,914,1086,727,1292,1250,23,739,277,513,1057,1878,982,890,722,1938,1696,1701,1033,1749,604,1993,300,1583,1396,7,1806,1560,1510,1522,1368,1009,108,730,214,1746,178,1515,676,303,152,778,271,491,383,1645,1674,1889,956,1098,462,609,1262,976,769,1596,515,585,1945,426,56,1822,902,1126,319,641,535,418,315,1051,996,1561,95,1653,187,797,1224,1395,1907,965,1241,543,945,1324,695,1963,1769,274,1524,1670,787,1372,1550,1076,307,244,1244,1007,1824,1347,1307,223,190,583,1929,1869,1103,1452,485,1327,510,453,37,618,8,913,1821,1832,1417,1917,50,1959,332,927,374,1863,1382,1335,1350,745,1282,1619,899,1761,566,742,1154,1934,600,273,1827,1983,995,1094,1923,253,382,792,477,1389,1409,335,1430,327,1886,926,404,575,1744,1490,1285,252,1434,218,151,1544,10,75,744,1707,1913,814,1590,150,1661,13,597,905,717,1150,1925,267,1774,83,822,1491,580,975,1796,638,1107,1386,443,1041,707,1876,715,973,869,148,912,598,1415,698,159,1499,511,1013,1112,464,1572,541,923,1597,1594,1195,1122,265,752,875,1799,40,589,962,192,1183,978,1164,933,885,1566,4,1024,183,1485,1599,594,972,369,1637,1309,1502,1012,1027,601,1643,55,1286,886,147,73,1481,1210,567,322,1063,1800,1608,1649,1138,1726,308,961,1318,1246,1301,126,951,748,620,1960,276,398,555,1859,476,397,757,1448,1064,1017,364,954,1856,622,959,671,559,1523,1388,1326,1679,1538,915,540,649,1730,1406,3,167,460,61,262,1854,719,1134,1187,264,1794,1758,1606,1060,354,1049,1901,1276,1342,1304,1393,270,1508,1519,731,1020,386,260,1356,154,1077,1105,1370,1135,1946,447,1160,1970,650,473,501,194,482,299,166,1325,1953,1467,1457,1849,611,1277,681,1534,786,14,1433,584,217,1484,1617,70,372,1900,1994,213,1874,343,1867,399,440,599,1403,119,1916,1199,872,634,1882,469,1966,1895,1811,198,200,123,1264,239,1428,1563,1000,947,882,349,1521,1418,1074,1477,324,596,1283,1123,1106,1996,728,1170,403,891,1362,1337,994,827,149,1995,1320,410,677,116,840,1836,122,907,430,1479,813,184,1443,204,1757,1742,1605,1884,475,17,802,759,930,1988,811,1620,437,587,1231,401,991,1268,1486,925,1950,1171,645,762,1660,561,789,1810,1973,445,419,362,1207,278,1733,576,1332,1775,711,1192,1121,1015,1030,917,400,992,1693,1719,1509,1672,607,1257,328,1928,283,1495,1947,1500,407,1681,874,539,1158,1844,1939,1912,1253,1021,1256,1004,428,570,577,1763,1768,47,755,139,1579,863,388,706,1740,1516,1793,572,1322,687,684,548,675,1163,1714,729,359,21,1657,408,1776,953,360,487,497,1540,1830,1497,553,164,1957,1807,311,489,693,606,441,251,1174,1153,1915,427,279,1314,31,662,841,680,295,1254,345,65,1647,1028,417,414,221,1339,536,157,1779,1842,331,771,409,1001,659,766,346,1694,805,1902,608,569,999,1892,1397,761,1591,483,1449,1359,512,79,1986,1790,27,1411,11,1965,1625,1503,990,879,394,637,18,1046,1656,145,760,1567,1699,904,1082,838,1471,1288,472,1218,919,603,590,984,820,1795,1658,1402,1226,1341,457,1862,1310,298,1782,115,193,807,1043,189,1812,76,1128,1189,621,500,1984,174,1571,1998,612,1539,1048,1684,1885,1545,1820,1586,1627,1100,1948,72,486,629,887,1905,1944,1357,1083,746,1922,1191,672,1526,492,1677,1803,844,1512,720,939,134,479,1949,1817,199,974,1890,830,390,1279,723,804,282,268,1419,1078,1976,1582,1377,1220,669,471,948,1789,653,1891,309,250,1823,851,1421,812,454,1989,143,493,699,842,1745,51,1323,1119,127,1712,654,102,1975,1992,1529,551,1743,1265,586,831,1908,1209,1829,1008,1720,880,1704,366,15,212,1019,1385,1646,1167,1825,516,106,1035,526,1962,1709,0,420,432,732,1488,71,255,1741,1311,1868,1172,1480,1321,1918,1290,801,208,857,1980,571,1954,1773,1783,1654,412,1587,1364,881,286,768,1770,1376,1581,1056,169,1002,28,779,389,1631,207,466,1407,1116,862,716,498,626,1632,1839,259,952,988,747,843,1765,1808,1236,858,392,640,613,429,942,628,845,725,1601,246,367,1280,900,1616,435,158,1478,837,312,222,1252,562,1473,1724,1697,1096,1267,1061,1851,1969,39,1494]","arrowleft","false","0","8","96","2000","[""0010_N2000_K0096_CLIQUE"",""0051_N2000_K0096_NOCLIQUE""]"
"canvas-keyboard-response","197","81371","0.0-14.0-0.0-0.0","","418","","arrowright","","[1720,65,1414,980,1753,1087,89,1923,1761,1369,1482,1462,1164,708,173,1594,973,91,1547,938,1251,543,1496,802,1689,707,761,629,331,832,1950,1955,1003,904,839,1148,1198,1884,13,1885,1447,1338,1634,1526,129,1837,117,751,565,1534,1984,1599,290,23,679,46,1444,960,1097,167,1542,932,1919,403,765,375,161,749,755,462,1433,1366,1843,1329,507,1288,1573,1058,1665,1551,1386,632,1271,890,366,1661,1681,460,540,1671,1981,1395,1630,1614,323,379,1620,1245,1041,453,1272,1295,1025,506,474,1144,1683,311,797,1451,1443,513,372,621,1868,38,1006,1053,604,664,1404,73,1918,1755,1545,1075,1998,546,1388,834,1480,115,1699,1248,1503,1485,1268,1153,633,138,547,1474,1540,20,748,1997,1625,1279,998,781,1659,1066,427,1470,1176,1655,687,269,1052,775,71,1306,1221,1054,1355,1400,925,1838,1460,1228,1611,572,364,24,279,88,753,1869,1865,446,670,1805,1783,481,1313,1170,1916,571,1327,1468,1140,1829,954,1436,741,347,1771,499,901,44,1357,941,662,971,1304,422,559,1635,209,635,245,490,229,1407,1952,1111,997,1143,1979,339,1749,291,511,1951,1656,1971,766,82,525,1629,1803,166,25,266,1860,1358,456,773,1055,981,263,1898,843,211,994,530,594,1405,915,1672,1643,1910,463,910,690,1722,274,1876,566,1207,136,14,1421,457,1068,1214,1028,104,1310,986,669,1660,1886,1184,1275,1118,1642,867,242,950,1142,1857,1171,459,416,1001,186,541,1904,1113,1185,1538,1309,1446,1502,411,260,1666,1715,1393,1748,859,1570,1710,524,1872,1777,1963,41,1384,1728,1141,1732,1988,1389,1825,734,870,1789,1307,1541,430,1077,1633,1987,1094,993,8,1696,655,1834,645,641,818,370,537,27,17,846,1648,1252,523,1022,1225,1848,418,1484,1668,198,1738,114,1102,37,404,1342,1368,754,3,1566,776,181,1760,922,159,1486,729,397,704,371,1237,1179,1427,1199,667,1150,1619,508,1832,1535,742,934,1845,107,1515,1801,1936,1318,1705,1509,902,806,956,496,142,887,916,1167,879,1335,1461,1800,592,584,517,1269,56,122,215,1677,344,1123,318,1024,1158,791,966,168,1121,368,1900,141,820,801,350,581,1459,124,1644,521,345,36,1375,133,1057,1281,821,1188,1522,1096,1174,1337,1163,1437,1029,1718,899,1506,1821,725,1265,1556,936,891,965,95,1602,1636,852,1740,893,162,817,315,1092,34,330,1495,1927,207,1289,257,1791,1517,969,1878,1086,1434,840,1007,385,1391,831,1169,510,640,231,1438,760,32,1888,1616,1695,19,222,750,1945,1780,1253,769,473,814,1471,1966,307,2,1124,425,808,9,1765,251,1785,990,139,1758,342,1756,1905,1050,373,281,1392,1340,1383,1352,672,1700,1844,1402,514,432,1525,1617,170,815,1836,968,283,988,119,816,841,1064,1284,587,1727,1416,285,219,1960,1875,627,720,343,569,1487,1591,78,1070,919,278,1151,638,1713,1717,1319,1125,906,1478,1127,813,1373,145,838,740,1874,1263,1813,1597,317,786,1647,1441,228,1507,356,545,1873,1152,1297,1428,1497,1880,1581,1345,1654,1686,1539,351,1559,646,999,1892,324,394,1682,1204,221,923,1546,1333,1774,237,567,1381,1626,1211,406,952,1609,1499,1913,1264,1704,1430,650,618,1091,1296,1684,476,220,1567,1397,1072,790,378,1624,1637,1493,433,778,955,1569,1277,746,1767,400,1926,1051,1371,116,1465,1469,1033,1364,1618,858,177,1508,1488,1693,1320,103,413,1477,130,15,200,962,282,1840,1082,710,861,1042,864,1377,1099,1778,1408,1056,40,772,1036,1424,154,869,205,76,1467,471,126,631,1513,45,531,7,10,1947,1308,1853,1115,1267,193,1802,939,1348,1501,1653,1965,1454,1197,1005,1940,1101,218,611,1472,33,1189,1059,630,1687,410,558,785,1134,578,1537,1088,1223,983,987,1019,1600,1613,319,252,1932,712,1631,1117,705,663,1321,362,1456,206,224,1578,152,1106,80,1968,1114,461,1206,845,391,227,1017,1011,1084,1440,234,1855,722,1579,450,1435,1723,1731,1523,1065,1992,634,1632,109,203,1552,526,467,390,1255,1324,341,195,1344,134,1047,1302,1403,1776,702,796,1238,1073,1514,436,1030,693,1343,158,92,501,295,217,1489,882,862,1529,1641,1678,253,465,492,1924,575,823,1009,642,1854,1757,892,96,1589,745,52,1043,612,299,812,349,380,303,60,1387,1852,607,1850,625,328,255,63,1555,1694,1737,1311,1331,191,1528,420,601,996,1458,717,1797,534,202,1074,1977,1974,764,1652,1784,1601,1679,144,727,1466,271,1645,1550,1346,1220,780,1583,995,613,280,135,1908,29,542,732,1445,947,1650,1741,1021,386,1676,685,1604,4,448,483,105,156,502,1048,1037,961,503,84,484,1735,1035,489,1090,1949,1286,6,435,1139,844,382,1709,1745,900,1982,495,1379,264,1721,533,568,226,1912,1920,1216,1646,609,695,192,1261,147,363,174,423,275,47,424,1991,140,355,108,1959,182,837,876,491,500,438,743,800,1394,1194,1726,1010,1399,1062,1129,1044,803,216,241,302,963,1863,309,909,860,1788,1479,1266,1500,1995,475,1669,171,1325,486,562,1795,30,1902,1349,1504,1294,1103,593,1520,1915,169,244,1190,442,1917]","arrowright","true","0","9","96","2000","[""0020_N2000_K0096_NOCLIQUE"",""0092_N2000_K0096_CLIQUE""]"
"canvas-keyboard-response","198","83468","0.0-15.0-0.0-0.0","","563","","arrowright","","[72,168,121,1020,980,429,300,972,527,1585,1493,1230,718,1350,514,69,620,1949,631,401,1776,1106,671,855,372,27,1955,1428,322,1882,1658,675,373,480,1388,156,1161,1080,339,1148,180,1590,389,488,742,459,394,1531,946,22,1022,1936,1359,1668,95,1139,162,747,1565,1801,66,621,1469,1669,1941,1273,556,550,186,378,893,966,234,1796,1978,551,1545,1514,1228,1577,38,119,1466,1278,1676,1705,1205,1183,1191,188,1637,1956,1887,449,640,615,239,1542,1758,1464,1696,1281,819,1734,470,23,1731,1227,1184,410,1175,925,1598,375,542,332,520,1601,178,553,1288,838,301,1275,533,1313,1198,1452,833,101,1289,1119,1426,758,580,1110,176,183,1422,1305,1004,897,1053,1856,1374,67,1415,70,609,848,1416,210,1357,903,476,879,1818,1316,223,1834,307,1785,47,670,1929,1768,1207,1282,1185,1027,42,1817,1395,387,511,549,368,1201,862,1349,716,252,46,1427,1159,592,45,1602,1504,1615,357,1940,921,836,293,1899,596,1727,1150,1383,206,1235,748,1234,1239,1431,1900,1492,1166,1423,703,266,627,636,99,1088,961,843,87,832,1939,285,888,911,885,1687,1145,1400,208,1924,150,1344,324,1541,1588,1056,973,1558,294,201,993,104,731,1780,1362,439,116,800,802,634,751,1212,1137,628,1632,1517,88,1745,699,323,1560,365,768,1691,956,1549,96,686,1547,242,669,1703,386,1146,148,840,262,1379,528,1253,1937,814,110,1852,251,1483,687,585,1043,522,1095,1261,793,1079,1072,1408,165,1364,1488,1077,84,237,707,1272,1010,1980,815,1539,1846,1991,1208,1436,421,175,1931,1158,641,1315,297,1619,730,65,909,794,674,776,1302,1434,632,169,85,1523,384,24,1604,1814,908,1537,1525,232,880,172,713,937,587,39,194,1675,1711,83,1122,1190,530,1237,18,1530,1325,460,12,1778,858,822,1193,1168,1606,143,1620,1002,1358,517,353,555,1513,1086,189,1501,1290,613,1594,302,1287,1233,190,1071,532,1180,726,1438,1934,197,1247,1382,1486,181,1066,1976,1894,1031,727,1741,342,1885,657,1375,11,1147,612,134,570,896,1516,1295,930,1,1855,1621,426,1635,1701,1624,296,1710,1057,207,1347,1907,1142,1918,1568,1151,659,625,1765,1597,1672,281,1111,7,1790,795,1557,538,1810,464,1497,568,1671,1014,453,1697,939,56,349,1654,1631,562,523,1298,757,573,219,1712,688,664,351,702,1341,1901,741,1510,875,1398,1143,326,643,1410,1293,883,381,1973,1518,1847,1032,16,1983,1386,1121,964,1173,507,1915,601,1069,369,392,246,1187,928,1331,1721,1132,1174,1297,1761,752,1267,1613,1794,113,1971,1540,1804,136,133,1006,1257,1468,273,934,1037,923,947,1652,352,805,1405,1831,595,259,1063,698,1788,1073,448,842,913,874,1913,1094,216,76,1993,1789,430,895,200,951,954,147,325,1690,1162,711,1791,660,1361,1045,474,1648,1369,1614,1307,1622,943,1389,773,1421,1172,1673,605,250,482,1723,1680,1853,588,1083,1754,1806,1653,1451,344,559,1232,402,1640,124,255,519,1319,1021,1065,1276,1863,173,1835,416,393,1534,1866,456,575,784,1766,343,1450,1393,1197,1959,132,1935,1229,1093,904,655,786,618,584,1764,1583,1317,635,1471,941,138,1134,1987,1576,574,1318,243,792,1561,248,1695,1509,1550,204,329,1396,125,1221,1908,1802,77,1572,882,310,1141,1720,149,1634,1784,1472,26,889,432,712,495,1886,696,1575,900,1170,445,492,841,415,785,1030,1243,589,1343,1551,406,672,606,131,435,1118,719,1773,1739,518,93,1756,1223,286,1311,130,827,989,728,54,1879,461,705,1809,1296,1910,1850,809,1646,109,817,810,1952,548,940,781,1012,1914,1759,221,799,226,1299,834,1061,59,691,399,957,1007,1592,98,1112,624,733,356,1245,1838,166,623,1793,1263,870,1737,184,680,1842,998,1752,1300,1556,1457,1479,254,1250,1366,1498,462,1728,1082,314,1403,1425,348,151,49,8,117,604,950,812,545,590,963,646,534,938,823,1424,155,1511,750,1573,1115,1206,1587,607,1851,1595,1443,271,1960,860,1840,1241,1832,1878,1865,1246,1224,755,287,140,970,1136,1231,654,1169,1360,1473,916,128,1825,536,1476,3,367,614,1152,1355,1439,772,1750,715,1724,992,561,581,1826,873,906,1462,1312,34,1828,396,105,917,1283,1254,490,227,198,579,390,211,830,433,1339,338,1864,611,48,1291,1748,1563,306,199,28,1125,987,1617,167,1564,1266,13,1067,1769,1747,572,141,1543,44,1854,1581,639,1883,135,1238,1060,1164,1116,847,863,912,1294,831,566,444,693,737,504,700,1685,374,1430,1099,828,319,1651,991,1643,1875,1524,952,668,1988,1353,762,1683,1920,905,974,1623,890,1306,1678,1314,1950,82,1698,552,959,1522,626,1252,1779,1872,487,1744,126,1084,1596,1495,1074,202,1665,313,1638,1603,1625,602,1909,334,1016,1841,1186,1199,749,1222,267,370,1859,761,1381,1559,5,1757,187,1742,683,1709,1975,1327,1336,1489,1154,1508,1478,1679,1726,767,6,217,1435,1456,1951,1284,1927,1972,471,512,163,1732,734,1898,1367,380,690,1090,112,499,1985,1702,591,299,463,1292,1998,1627,1808,932,942,1092,1025,1140]","arrowleft","false","0","10","64","2000","[""0040_N2000_K0064_CLIQUE"",""0086_N2000_K0064_NOCLIQUE""]"
"canvas-keyboard-response","199","85389","0.0-16.0-0.0-0.0","","374","","arrowleft","","[1325,501,865,1107,1064,1673,298,1810,44,5,1534,435,1856,1141,1187,731,496,416,13,1483,1290,813,1345,1138,794,1125,1258,786,753,1908,328,1422,1179,1990,1351,1363,1811,1644,925,623,296,62,202,358,424,1015,460,879,1773,1400,313,783,1117,628,877,1854,814,1562,207,1614,25,726,1387,224,1846,762,729,688,1920,1936,1059,987,775,1498,292,249,1190,393,840,715,1643,761,1170,1596,1843,107,606,248,663,1174,1418,356,1900,926,1796,546,1024,1093,1645,1235,1759,377,31,137,596,1286,1808,1450,269,325,923,752,562,639,235,1230,1735,47,77,617,1772,1777,1627,190,1189,371,1426,1611,1417,1243,1997,1350,42,1066,1268,698,191,711,1533,816,1385,348,1691,417,1314,1129,99,1294,1532,153,1510,1143,491,374,1618,602,1774,1449,1760,913,464,1427,590,1105,1487,1000,192,1330,964,1177,1919,1591,1857,696,1561,1381,19,65,960,1026,37,836,100,1664,114,1812,258,1879,927,746,1204,1851,1837,236,1151,1438,387,49,1667,1942,1250,685,511,1324,828,1194,1486,423,194,1893,897,1288,921,375,1573,366,488,621,1794,41,398,1420,673,476,1063,287,967,1476,138,699,1899,1343,953,475,1490,1672,1616,197,339,341,1529,1307,1030,760,859,597,380,240,95,1721,694,1484,401,84,1106,485,1333,1100,943,334,1950,768,1876,43,593,1594,1795,1520,1388,1748,750,219,714,1293,1622,1600,208,1740,1983,1097,1924,1704,938,1882,285,1306,579,1421,74,659,115,489,441,957,1285,1700,454,179,839,218,1248,1260,1354,1488,534,1517,945,1658,1834,408,1424,701,1464,951,1497,1823,834,686,618,1917,1384,919,732,1592,956,679,1055,395,1295,1309,1481,255,756,1472,549,1578,1623,842,1193,770,1039,935,605,1025,486,324,195,653,1907,227,1163,1077,1525,528,682,289,1500,1869,410,406,1925,306,769,724,205,467,1120,1056,263,97,340,35,1558,1886,309,589,1923,1678,1380,1257,561,650,1019,1146,680,1802,1356,1373,1021,1053,860,1974,1743,1996,531,163,1555,1698,1770,1412,582,991,161,545,1341,1945,1816,610,787,274,101,823,799,1824,826,1359,866,106,1289,1291,301,1655,1516,934,1181,928,34,440,1460,1092,1575,1993,1002,1262,17,288,1124,1954,1165,1660,763,149,1828,572,636,1935,841,1963,1515,868,1214,1998,1040,125,1216,1228,1281,1444,1168,916,1171,1847,782,675,1283,594,800,1431,422,648,1975,535,500,1659,1315,1809,942,1654,1405,1751,156,262,899,1135,1213,1047,1054,265,1909,1707,303,1719,1175,1393,329,1656,130,1188,495,253,802,576,474,1587,893,604,1027,90,1758,353,1334,1048,792,1320,684,524,518,630,403,1280,1242,1918,854,869,977,1396,1916,56,1245,907,181,1564,1720,709,71,1506,1197,228,667,1398,1344,1582,1156,1013,931,994,1128,691,333,1696,1904,1833,527,471,1383,719,12,453,327,1321,221,1310,1657,69,710,1374,182,1009,232,1789,1744,1145,322,1798,477,1541,1347,1023,1929,10,482,1134,1607,1446,1956,1479,958,1937,1043,620,175,896,1376,1652,146,1167,150,50,510,1765,542,1032,902,480,383,1503,68,876,36,472,173,974,1653,1402,1087,1012,139,1094,1428,1200,622,318,878,588,1642,759,1149,671,1462,172,906,1842,1157,1513,978,1662,564,1302,992,1313,233,1425,681,1985,705,108,1859,432,1599,252,725,493,1593,683,808,1084,413,1086,678,183,1928,145,1158,851,1469,1737,789,874,706,655,1609,692,966,1546,1538,791,198,847,852,1114,670,1199,600,1332,1775,1717,853,267,1279,142,363,1051,337,1722,1868,391,595,559,239,402,1569,1705,537,809,811,1006,1637,609,1060,1142,206,1671,430,1730,1711,1835,722,1702,494,193,946,849,1715,6,32,1913,778,1182,1661,1784,1815,211,237,407,1007,922,1303,91,381,1010,640,1346,1877,677,128,51,522,1521,1889,21,894,200,1523,1946,214,349,930,1675,7,59,1008,970,1981,591,1065,1297,1137,506,1901,1110,1130,94,256,1911,1747,1556,1034,1650,111,1781,1367,129,93,1312,656,1458,1109,1764,1377,1864,801,803,1849,831,1861,1144,737,1017,1136,1371,323,552,1680,1554,1805,755,270,1408,1459,963,1980,855,1902,136,210,302,668,940,1778,1551,121,1527,1791,1731,1912,307,487,700,230,158,1552,457,507,1941,123,1545,1057,924,1639,242,1581,419,754,166,1276,996,1045,1884,295,73,118,290,1535,394,469,186,133,1475,843,162,1410,1769,1052,1394,316,915,222,1072,863,1818,314,880,1988,1583,1668,1435,1880,342,1029,1322,806,758,741,226,1873,727,1432,120,736,646,1504,1821,355,135,1414,1083,1018,436,702,1236,1069,1766,1665,521,917,1559,1629,1780,448,280,1434,1547,1352,797,551,1921,1885,716,1443,1746,1651,1827,1829,1574,908,14,519,434,796,131,1382,22,635,647,1104,1865,1461,372,452,774,1098,641,360,38,455,1404,78,818,1819,1543,1544,1518,950,553,1206,76,1184,892,1608,1271,11,112,1118,1560,1080,1173,1872,875,9,739,1406,642,1437,1612,199,1319,822,1298,257,1166,1348,361,1590,1977,1150,1264,88,445,1694,220,742,116,1779,294,1407,1915,712,1948,1473,1329]","arrowleft","true","0","11","64","2000","[""0073_N2000_K0064_CLIQUE"",""0034_N2000_K0064_NOCLIQUE""]"
