"trial_type","trial_index","time_elapsed","internal_node_id","view_history","rt","stimulus","response","success","nodes_order","correct_response","accuracy","block_index","presentation_index","clique_size","graph_size","graphs_names"
"pavlovia","0","668","0.0-0.0","","","","","","","","","","","","",""
"instructions","1","9832","0.0-1.0","[{""page_index"":0,""viewing_time"":6756},{""page_index"":1,""viewing_time"":2400}]","9156","","","","","","","","","","",""
"instructions","2","15564","0.0-2.0","[{""page_index"":0,""viewing_time"":5729}]","5729","","","","","","","","","","",""
"html-keyboard-response","3","16576","0.0-3.0-0.0-0.0","","null","Please wait while the experiment is loading...<br><br> (This could take from seconds to a couple of minutes)","null","","","","","","","","",""
"html-keyboard-response","4","17716","0.0-3.0-0.1-0.1","","null","Please wait while the experiment is loading...<br><br> (This could take from seconds to a couple of minutes)","null","","","","","","","","",""
"html-keyboard-response","5","18753","0.0-3.0-0.2-0.2","","null","Please wait while the experiment is loading...<br><br> (This could take from seconds to a couple of minutes)","null","","","","","","","","",""
"html-keyboard-response","6","19762","0.0-3.0-0.3-0.3","","null","Please wait while the experiment is loading...<br><br> (This could take from seconds to a couple of minutes)","null","","","","","","","","",""
"html-keyboard-response","7","20764","0.0-3.0-0.4-0.4","","null","Please wait while the experiment is loading...<br><br> (This could take from seconds to a couple of minutes)","null","","","","","","","","",""
"html-keyboard-response","8","21822","0.0-3.0-0.5-0.5","","null","Please wait while the experiment is loading...<br><br> (This could take from seconds to a couple of minutes)","null","","","","","","","","",""
"html-keyboard-response","9","22834","0.0-3.0-0.6-0.6","","null","Please wait while the experiment is loading...<br><br> (This could take from seconds to a couple of minutes)","null","","","","","","","","",""
"html-keyboard-response","10","23835","0.0-3.0-0.7-0.7","","null","Please wait while the experiment is loading...<br><br> (This could take from seconds to a couple of minutes)","null","","","","","","","","",""
"html-keyboard-response","11","24837","0.0-3.0-0.8-0.8","","null","Please wait while the experiment is loading...<br><br> (This could take from seconds to a couple of minutes)","null","","","","","","","","",""
"html-keyboard-response","12","25959","0.0-3.0-0.9-0.9","","null","Please wait while the experiment is loading...<br><br> (This could take from seconds to a couple of minutes)","null","","","","","","","","",""
"html-keyboard-response","13","27146","0.0-3.0-0.10-0.10","","null","Please wait while the experiment is loading...<br><br> (This could take from seconds to a couple of minutes)","null","","","","","","","","",""
"html-keyboard-response","14","28159","0.0-3.0-0.11-0.11","","null","Please wait while the experiment is loading...<br><br> (This could take from seconds to a couple of minutes)","null","","","","","","","","",""
"html-keyboard-response","15","29284","0.0-3.0-0.12-0.12","","null","Please wait while the experiment is loading...<br><br> (This could take from seconds to a couple of minutes)","null","","","","","","","","",""
"html-keyboard-response","16","30558","0.0-3.0-0.13-0.13","","null","Please wait while the experiment is loading...<br><br> (This could take from seconds to a couple of minutes)","null","","","","","","","","",""
"html-keyboard-response","17","31668","0.0-3.0-0.14-0.14","","null","Please wait while the experiment is loading...<br><br> (This could take from seconds to a couple of minutes)","null","","","","","","","","",""
"html-keyboard-response","18","32690","0.0-3.0-0.15-0.15","","null","Please wait while the experiment is loading...<br><br> (This could take from seconds to a couple of minutes)","null","","","","","","","","",""
"html-keyboard-response","19","33794","0.0-3.0-0.16-0.16","","null","Please wait while the experiment is loading...<br><br> (This could take from seconds to a couple of minutes)","null","","","","","","","","",""
"html-keyboard-response","20","34964","0.0-3.0-0.17-0.17","","null","Please wait while the experiment is loading...<br><br> (This could take from seconds to a couple of minutes)","null","","","","","","","","",""
"html-keyboard-response","21","36144","0.0-3.0-0.18-0.18","","null","Please wait while the experiment is loading...<br><br> (This could take from seconds to a couple of minutes)","null","","","","","","","","",""
"html-keyboard-response","22","37146","0.0-3.0-0.19-0.19","","null","Please wait while the experiment is loading...<br><br> (This could take from seconds to a couple of minutes)","null","","","","","","","","",""
"html-keyboard-response","23","38269","0.0-3.0-0.20-0.20","","null","Please wait while the experiment is loading...<br><br> (This could take from seconds to a couple of minutes)","null","","","","","","","","",""
"html-keyboard-response","24","39290","0.0-3.0-0.21-0.21","","null","Please wait while the experiment is loading...<br><br> (This could take from seconds to a couple of minutes)","null","","","","","","","","",""
"html-keyboard-response","25","40291","0.0-3.0-0.22-0.22","","null","Please wait while the experiment is loading...<br><br> (This could take from seconds to a couple of minutes)","null","","","","","","","","",""
"html-keyboard-response","26","41293","0.0-3.0-0.23-0.23","","null","Please wait while the experiment is loading...<br><br> (This could take from seconds to a couple of minutes)","null","","","","","","","","",""
"html-keyboard-response","27","42296","0.0-3.0-0.24-0.24","","null","Please wait while the experiment is loading...<br><br> (This could take from seconds to a couple of minutes)","null","","","","","","","","",""
"html-keyboard-response","28","43298","0.0-3.0-0.25-0.25","","null","Please wait while the experiment is loading...<br><br> (This could take from seconds to a couple of minutes)","null","","","","","","","","",""
"html-keyboard-response","29","44300","0.0-3.0-0.26-0.26","","null","Please wait while the experiment is loading...<br><br> (This could take from seconds to a couple of minutes)","null","","","","","","","","",""
"html-keyboard-response","30","45306","0.0-3.0-0.27-0.27","","null","Please wait while the experiment is loading...<br><br> (This could take from seconds to a couple of minutes)","null","","","","","","","","",""
"html-keyboard-response","31","46310","0.0-3.0-0.28-0.28","","null","Please wait while the experiment is loading...<br><br> (This could take from seconds to a couple of minutes)","null","","","","","","","","",""
"html-keyboard-response","32","47362","0.0-3.0-0.29-0.29","","null","Please wait while the experiment is loading...<br><br> (This could take from seconds to a couple of minutes)","null","","","","","","","","",""
"html-keyboard-response","33","48363","0.0-3.0-0.30-0.30","","null","Please wait while the experiment is loading...<br><br> (This could take from seconds to a couple of minutes)","null","","","","","","","","",""
"html-keyboard-response","34","49596","0.0-3.0-0.31-0.31","","null","Please wait while the experiment is loading...<br><br> (This could take from seconds to a couple of minutes)","null","","","","","","","","",""
"html-keyboard-response","35","50701","0.0-3.0-0.32-0.32","","null","Please wait while the experiment is loading...<br><br> (This could take from seconds to a couple of minutes)","null","","","","","","","","",""
"html-keyboard-response","36","51866","0.0-3.0-0.33-0.33","","null","Please wait while the experiment is loading...<br><br> (This could take from seconds to a couple of minutes)","null","","","","","","","","",""
"html-keyboard-response","37","53054","0.0-3.0-0.34-0.34","","null","Please wait while the experiment is loading...<br><br> (This could take from seconds to a couple of minutes)","null","","","","","","","","",""
"html-keyboard-response","38","54230","0.0-3.0-0.35-0.35","","null","Please wait while the experiment is loading...<br><br> (This could take from seconds to a couple of minutes)","null","","","","","","","","",""
"html-keyboard-response","39","55246","0.0-3.0-0.36-0.36","","null","Please wait while the experiment is loading...<br><br> (This could take from seconds to a couple of minutes)","null","","","","","","","","",""
"html-keyboard-response","40","56452","0.0-3.0-0.37-0.37","","null","Please wait while the experiment is loading...<br><br> (This could take from seconds to a couple of minutes)","null","","","","","","","","",""
"html-keyboard-response","41","58542","0.0-3.0-1.0","","2089","Experiment has finished loading.<br><br>Press <b>any key</b> to start."," ","","","","","","","","",""
"fullscreen","42","60587","0.0-4.0","","","","","true","","","","","","","",""
"canvas-keyboard-response","43","71704","0.0-5.0-0.0-0.0","","9709","","arrowright","","[1788,1073,1104,680,766,767,1552,431,280,1526,1373,1213,1893,1971,1689,1430,565,533,696,469,888,590,104,791,18,865,1434,376,245,666,1551,1189,604,1713,1749,786,1290,509,1801,1720,817,1934,1770,1446,1105,603,1987,1467,1412,755,67,995,740,961,324,1322,1040,836,1529,1751,213,107,1691,1556,123,468,1871,1978,99,1015,1777,920,109,292,1471,1839,1030,1466,1904,1153,1414,169,182,623,823,662,882,252,136,480,1179,1578,1951,120,1216,409,1782,398,1312,86,1133,684,1542,1917,1812,813,165,1541,1869,521,724,679,1146,1148,1821,765,777,1469,1048,296,1705,1127,223,990,761,1979,1155,895,1965,928,1924,993,1116,733,664,1683,434,695,1098,490,779,1948,1022,60,1358,1557,538,335,1400,401,1170,1607,1027,1233,663,833,1262,769,47,981,1631,278,1967,143,449,62,481,1513,1687,1108,639,1472,1524,226,1439,879,1773,381,1567,1035,902,332,31,422,955,75,1295,1490,418,738,1272,1593,121,1774,749,1303,300,1175,1316,1878,1693,795,757,1581,1980,1032,369,346,1289,556,1634,100,367,788,1933,352,571,1114,112,1765,1571,730,1799,1696,1177,718,962,625,194,1741,56,1546,498,611,853,1107,997,65,14,1128,575,1966,1968,270,1601,1253,368,1355,1461,960,355,407,934,1920,19,781,1403,170,1796,782,1887,869,342,737,762,693,1138,3,50,574,1566,1099,1937,685,505,971,1122,110,1899,1819,774,57,1554,265,1858,1706,1952,1087,1474,146,1379,752,497,1483,1388,654,149,1123,1230,1668,79,1645,439,1616,30,1574,1453,561,1323,1753,919,1376,354,125,1201,1246,1735,402,378,1062,441,333,1327,588,1928,810,1669,1649,1406,1447,485,688,241,1485,25,775,1903,1599,1652,1078,1973,576,1873,564,512,1340,852,861,728,605,206,1897,1494,630,1746,1935,161,1895,912,287,763,1792,239,1385,706,1930,1617,1997,408,1603,1154,1338,1853,652,124,1568,951,1576,1627,1861,1283,522,1197,845,1779,1223,1166,785,1654,929,1288,141,580,1028,771,1222,329,1479,826,873,97,1662,377,940,1817,1396,1695,1577,249,389,996,1456,1169,874,507,1324,1540,1356,455,872,1969,673,1833,1791,453,1325,1550,1119,135,1198,1944,1224,1724,435,1886,1215,986,444,915,1664,936,595,29,258,1416,1723,1835,570,1411,1731,132,113,1226,657,546,839,885,1075,965,187,524,1433,1523,1140,22,1787,1392,1321,1890,1892,790,838,1334,1929,1310,255,399,1736,1029,308,816,446,1438,1970,76,562,1608,743,243,1636,1639,884,459,1894,945,421,939,1297,283,1716,930,257,1717,74,1884,829,1464,51,159,1458,875,1208,975,46,1080,382,96,1688,1457,1065,1598,691,155,1010,690,1714,77,144,1361,197,460,582,803,228,1532,1268,610,20,1896,72,1623,1740,988,860,1034,1885,631,506,917,1051,1044,1730,1304,227,190,1203,1719,1857,192,1591,508,1836,425,1021,1144,1086,1800,115,1711,484,1220,259,1121,1641,268,1670,1615,1727,1943,1161,1172,1612,334,415,1784,1543,1043,251,471,1614,1743,1072,1452,800,1537,636,1752,1703,98,608,1988,420,326,1275,1780,1911,1644,1889,972,1945,1624,1499,1306,1994,1539,1982,1677,532,1633,628,1136,536,1939,183,987,866,807,1912,1918,1874,201,1375,597,111,61,486,681,1834,1158,1247,477,1054,1302,1872,436,1280,959,1018,1586,1650,27,1112,1309,1501,1635,88,704,1359,745,772,1845,297,1493,609,867,1463,63,1950,1435,103,1822,80,1491,167,1120,511,59,236,1827,1031,458,1891,702,347,1657,1476,1996,1879,184,535,207,83,1592,1699,624,1194,467,1431,842,1504,1739,322,722,1818,568,1708,1704,938,231,244,1832,806,1525,968,1820,142,906,598,1228,837,708,379,1205,1449,140,1587,1465,789,390,891,741,992,1059,1239,1264,952,1480,40,1759,1823,846,841,1300,263,1462,927,134,850,1829,658,1037,1023,545,1837,1386,95,616,1521,626,1063,854,264,949,1364,591,1785,81,908,1005,1756,108,1747,1882,878,1024,394,1512,1802,1486,242,64,348,470,117,148,1487,1859,1507,1090,1147,539,1441,607,338,1271,1620,185,776,1237,1251,619,1482,764,1473,646,7,1682,457,269,357,650,720,1366,937,1076,907,527,1214,188,1401,21,174,1932,844,246,1475,519,302,1488,1331,454,670,1335,581,1602,754,1536,331,1402,1562,359,1538,958,517,615,1111,1011,9,1618,374,320,1131,1991,172,1006,923,1276,1715,911,10,11,310,353,1544,1145,599,350,102,1672,1690,638,1877,260,349,805,1002,1768,397,1573,304,414,1423,1460,1064,661,870,1351,319,1042,1350,28,1096,1085,1855,154,195,1974,1240,797,6,496,1132,1995,12,716,1419,138,1422,400,173,956,126,1231,1962,1767,514,692,461,1269,831,818,275,1328,617,417,585,281,336,1909,1789,1200,427,796,1781,1535,644,1663,293,1806,847,1938,759,26,1776,1558,212,396,614,370,637,266,1570,1056,932,196,642,38,193,351,58,717,1949,419,1286,1317,1900,726,1057,489,1270,1374,1628,976,272,1728,966,686,1660,1009,383,1125,978,285,1579,1489,1496,1163,954,1299,1329,452,1828,1926,592,294,1103,1038,721,1846,1484]","arrowright","true","0","0","1000","2000","[""0091_N2000_K1000_NOCLIQUE"",""0038_N2000_K1000_CLIQUE""]"
"canvas-keyboard-response","44","73703","0.0-6.0-0.0-0.0","","548","","arrowright","","[268,1312,678,1903,1478,663,892,686,730,856,855,73,203,698,1761,993,174,1491,82,1571,1902,1438,846,40,1608,1838,1642,781,1034,890,449,1879,1024,456,733,947,1976,1217,495,485,1708,89,109,437,1724,160,650,198,1197,1225,1893,463,1985,441,1548,1967,1375,1030,785,6,865,1954,1280,282,794,1264,251,1043,742,171,1360,1587,1868,961,226,1483,931,156,879,1385,1056,1169,505,1606,423,1563,1340,141,53,1524,967,1049,30,1550,88,809,242,452,1027,1778,959,1940,656,994,75,290,1900,676,743,1562,804,1972,754,1718,1358,97,753,1726,1262,1271,1401,1000,765,1964,956,1984,1236,995,722,875,1131,1782,937,790,1931,1144,948,1229,1177,833,59,1356,1432,112,849,406,690,1260,717,245,553,286,1207,1254,1901,1238,409,93,1368,787,50,1602,429,1765,1886,1922,46,1175,921,829,768,1245,1139,1058,1215,929,1633,3,1892,913,615,256,408,843,1371,60,312,1974,2,128,1737,1509,55,918,1413,922,891,1681,1180,1504,1966,898,1403,643,473,1556,274,909,255,196,739,1757,322,949,1190,159,789,1096,659,447,1076,1882,472,1714,44,25,90,66,827,939,492,1199,1123,19,706,1256,419,1561,1844,1191,118,364,1991,713,971,1699,738,5,11,1750,1091,1585,646,1702,1094,616,1156,1283,1827,1221,654,1909,1638,208,718,1618,504,552,238,324,1458,56,1470,665,1359,1398,1685,565,524,425,1324,1290,1496,1999,980,1268,845,1449,1481,294,579,1138,61,1796,834,258,1979,1604,267,138,231,197,1418,1767,1942,1184,597,901,1134,1414,1313,92,571,708,618,1333,488,672,1495,259,512,21,1993,1794,832,1710,1395,1274,1821,525,998,639,1640,1447,530,521,1921,1469,1120,1629,434,42,1319,1194,1731,752,375,336,232,702,1831,550,1771,1155,178,455,1578,115,779,119,1316,273,633,84,968,1689,1529,94,1885,774,1711,992,1106,1658,966,143,1417,674,1412,1308,1382,1597,732,236,1128,133,857,1100,1440,983,1383,1452,508,1115,628,1051,1818,823,882,798,1196,388,99,348,777,319,687,38,681,1856,1686,445,1322,587,459,77,817,945,202,1441,1109,709,1503,1001,710,703,1828,957,1592,96,1565,474,664,1321,836,1566,1851,62,292,1471,1078,1619,1457,1261,1021,317,517,699,1945,28,1296,1998,12,1881,589,37,662,217,624,257,453,1235,1980,1142,335,989,1812,1455,358,1660,301,569,1299,1915,35,1672,749,1749,1486,1579,252,76,791,1036,1823,387,1435,1013,694,148,1701,962,153,384,1411,1372,1065,111,1266,1906,874,412,1350,1189,1396,1095,1193,673,1008,1678,1575,130,629,1728,1148,461,298,509,984,1612,767,1822,81,33,304,1019,1216,1925,904,1896,1969,1574,792,941,1923,759,903,1354,499,359,297,1649,367,45,247,385,697,1468,1680,1070,383,723,482,57,1644,1377,211,1614,43,627,1402,1331,1467,1783,1989,331,1425,354,1705,346,520,1376,887,551,51,841,1715,653,1117,533,104,450,376,1275,1936,1084,1111,1173,1488,351,1949,1740,1136,1367,1332,775,1694,216,1309,632,237,1154,728,788,729,193,563,65,131,1742,1973,325,83,1150,465,36,341,125,1960,538,1011,965,523,1586,801,1059,859,640,295,1473,1790,1007,1791,1344,124,1683,1776,1192,1195,934,839,747,1605,1730,100,396,444,716,1545,1047,1286,1125,1347,805,164,870,155,613,1546,1709,773,1147,276,266,608,1022,168,519,401,982,32,685,254,300,378,1768,932,85,1399,379,1793,1646,1664,573,670,1475,1451,270,741,271,1511,1343,320,847,726,1348,529,1995,1853,625,1697,370,731,1092,1662,1345,29,67,1305,1591,1769,1246,1751,1944,194,1799,1318,1037,1617,1498,806,1392,1955,1661,183,1590,1805,1802,428,1397,502,1239,1179,219,1044,1898,180,1518,588,500,1668,535,506,1494,1883,911,516,796,837,1293,1082,842,1010,970,927,536,1570,1677,940,1004,101,1889,1540,311,636,719,279,1124,1813,218,661,1186,600,1785,184,1965,1797,626,1521,1713,1211,34,47,594,924,1798,1410,1653,1314,1687,1269,79,1937,783,1706,693,601,1099,1720,1074,350,1460,734,1643,1804,1064,1220,1830,1459,988,24,249,1648,1465,1613,522,64,1864,293,907,443,1203,467,284,1558,1986,1907,1747,1112,1113,395,1950,1214,1295,120,1446,275,564,1157,199,764,1259,917,1077,1866,493,793,1833,514,1352,576,1507,1723,1329,91,1114,1497,1854,1928,1248,1210,750,1878,1400,1987,558,1722,997,811,457,920,1539,684,464,1223,299,1127,439,610,776,1499,291,305,243,1840,264,720,1775,1691,1363,1762,1301,540,688,612,1311,1391,209,1704,1023,1577,167,1780,808,527,1428,107,1873,574,315,944,1263,1688,1303,1231,883,316,1884,1341,1872,848,1466,440,49,1763,195,365,361,1913,1551,86,287,306,1639,596,954,230,1825,1102,234,577,1167,1816,899,1607,1505,1817,110,424,497,894,223,1289,10,751,1625,1867,1594,896,489,1934,1952,1596,381,1330,169,1754,1547,152,1164,161,1774,1484,246,727,176,469,1357,820,1926,1430,1795,902,582,1647,861,1970,1560,1362,951,1756,1835,1334,265,1307,1202,1,537,1510,1635]","arrowright","true","0","1","1000","2000","[""0088_N2000_K1000_NOCLIQUE"",""0011_N2000_K1000_CLIQUE""]"
"canvas-keyboard-response","45","75447","0.0-7.0-0.0-0.0","","337","","arrowright","","[899,1716,1850,1506,631,1229,1253,1752,1165,751,1610,1171,833,391,271,481,959,787,813,1122,426,1725,1303,179,423,1747,1561,1510,1870,1930,20,432,796,1655,1801,144,915,458,211,519,1830,354,1237,530,686,819,742,1316,1712,756,89,497,1793,1942,1395,784,1596,15,410,844,1104,585,1472,231,1518,1448,1119,1225,1913,1241,730,64,709,978,1682,536,250,236,1500,1538,619,747,43,1638,1837,855,1429,626,203,1666,1557,510,1208,1983,763,385,679,1461,128,1646,831,1555,477,865,1798,633,515,727,459,125,1778,892,672,590,443,1984,1230,466,1289,165,1756,1310,1288,509,198,1710,990,99,1431,7,1135,517,770,705,1270,1789,1112,595,185,603,891,1674,319,514,744,290,1146,1668,1888,1295,331,1962,13,670,658,538,759,1242,367,294,904,613,1849,1027,589,1277,1715,1669,762,1401,1736,1469,1619,710,925,1559,439,292,1447,1893,1131,118,1077,1707,1833,485,69,474,1028,699,841,1857,1525,1319,1804,1960,858,882,1149,1613,370,1274,1536,1130,400,815,104,1436,777,1423,1292,750,1352,332,1787,1132,1980,1342,1615,993,669,298,611,408,1098,1480,1499,223,582,94,1592,494,1623,218,220,263,1291,353,1102,1105,1481,821,694,1802,1066,1071,541,562,362,11,378,207,1511,225,824,725,1558,1457,1076,407,718,799,1795,755,1182,1580,1730,215,966,1324,1320,757,1335,874,937,88,961,1680,823,1410,558,419,547,887,166,312,817,1000,1878,847,1891,1637,1269,879,342,123,568,293,1359,1051,1467,1484,1332,1600,59,617,1671,181,939,1708,286,397,304,1544,1019,1914,574,1254,1869,628,1432,1686,883,927,1621,1250,1844,1212,570,591,1744,241,1618,398,697,1709,1551,782,1868,889,1764,1640,1526,1113,814,1864,593,1411,1389,1290,436,1885,404,859,340,1609,1251,721,1183,1107,1781,1586,1464,1990,1046,452,1616,1106,895,469,53,1717,680,1956,1400,1871,983,616,849,1834,880,1337,1803,529,569,1424,731,177,449,788,1139,1694,476,579,601,1905,468,1936,1501,586,820,171,365,1466,534,1490,1745,1631,1660,434,73,16,1043,217,1073,1353,1929,1568,256,1925,1545,210,174,873,1358,1753,794,1922,566,105,55,1247,490,946,554,903,1737,1597,1029,1100,178,1003,453,50,109,1991,1915,1851,1784,1856,1731,775,302,1284,580,470,1519,1554,393,444,1659,685,829,420,1163,683,640,642,1907,321,934,1728,828,1678,1209,1780,137,1190,429,95,797,1773,1059,1442,1670,996,1854,1161,120,671,1214,1846,1086,375,657,836,604,182,372,886,1349,1620,1873,85,260,356,807,1821,30,1455,1275,162,1200,283,184,1413,1033,1002,1427,825,1932,1055,805,1865,1088,839,1369,911,893,1996,155,1384,1013,1574,230,894,1450,1581,1950,1268,719,1415,1791,723,117,976,1376,605,1679,923,654,473,457,1842,528,900,1091,1280,66,1503,163,1101,1329,808,291,1063,1340,550,1763,592,1252,724,1520,1452,1690,1796,54,462,522,835,1193,677,1346,1197,1522,584,1062,682,905,431,23,75,229,1260,84,1665,308,516,1458,1549,681,1598,1317,1969,1422,145,1735,523,560,1697,1441,936,320,752,1330,1263,1174,338,1829,1622,1325,537,818,1278,197,329,1068,1397,704,506,1608,1876,1887,564,176,853,1005,940,1257,518,1056,1486,624,1407,953,1344,1495,428,834,167,1926,37,115,1194,158,1585,854,1224,768,1283,1882,737,1565,1806,1699,1584,1813,1375,1187,1355,1365,544,1603,1698,1571,186,843,1351,1010,1661,1293,938,772,1001,1188,1425,636,1127,418,1684,1542,1478,1438,1754,667,72,1313,116,546,1093,1,973,827,802,929,296,1566,153,1393,749,187,1483,1327,1491,227,968,1951,1155,602,1883,738,1117,994,1439,1221,957,1899,359,191,1446,792,674,499,1022,317,852,1321,760,1799,1258,1007,1301,1772,1906,1039,1141,224,868,1989,1919,1341,1232,643,482,427,1657,1348,126,366,967,1453,1014,1444,1243,364,997,1217,402,862,1639,1647,272,907,555,1185,857,615,1449,1138,625,333,1213,140,1978,243,1238,1636,1890,358,383,944,791,987,1896,1089,1220,803,773,228,634,1487,735,1635,1881,1357,454,345,360,1334,1186,960,916,6,138,279,1276,1894,1774,1945,999,1933,552,1742,1651,754,783,417,780,68,533,717,707,610,1041,1625,1970,285,388,1541,1087,1042,1532,1569,1309,692,336,675,995,1819,39,1999,269,5,693,131,1537,521,1160,1594,1648,753,405,1097,1023,539,1338,1074,698,860,1827,27,102,1052,1696,660,655,1371,188,1175,1900,325,952,464,1550,890,614,226,316,627,1750,1178,641,1606,415,1437,1979,1123,389,1768,1814,986,152,44,1642,1689,438,1687,1125,1092,1897,1612,1643,504,1235,1790,1838,3,363,202,1166,881,326,1152,274,1771,384,684,1749,1205,563,425,399,1760,1394,832,41,1391,689,154,513,618,1757,1374,1428,1812,1822,1507,696,1954,1986,1964,1025,648,1937,1732,60,1203,395,608,1589,1633,1975,798,1841,235,450,981,56,811,1109,1820,998,1304,130,1080,278,1210,1726,1807,1811,1385,1739,314,746,132,328,1703,1050,1333,1847,1775,421,1738,565,1115,1823,700,413,810,1644]","arrowleft","false","0","2","512","2000","[""0070_N2000_K0512_CLIQUE"",""0061_N2000_K0512_NOCLIQUE""]"
"canvas-keyboard-response","46","77783","0.0-8.0-0.0-0.0","","795","","arrowleft","","[514,1056,1177,1439,10,331,943,665,1528,544,1128,830,1205,1926,585,439,648,1804,1572,1200,1938,900,736,166,76,401,940,101,683,506,1646,1355,907,1772,473,1691,1722,987,853,918,1650,1715,803,1623,468,1015,800,1586,1561,1578,624,1981,1740,143,1448,116,811,1391,1688,1362,1005,433,875,1082,1976,1556,210,105,1651,849,915,715,1224,1292,1927,784,302,1843,776,1100,1984,1776,322,1281,684,1896,478,1999,313,208,925,1208,1822,593,315,454,1220,1910,411,1588,1311,1944,1814,1330,1334,255,1166,212,1874,1410,1946,790,693,1240,1696,1242,1617,1303,1933,1353,819,781,1347,787,804,181,1098,1269,1600,721,486,1280,1690,407,1199,466,1806,846,571,1149,1196,102,1092,75,1339,939,1444,89,1312,1176,606,768,1671,1855,564,1483,1291,1088,389,1547,916,635,98,1621,525,1630,990,77,63,1827,1802,220,149,845,273,1484,898,1030,1741,1331,793,1294,1023,1373,1191,251,1599,1538,1206,879,1028,734,364,701,960,1967,914,751,1779,1313,1955,113,661,366,934,1543,1175,750,423,334,1530,1597,379,312,829,1612,543,1465,1709,216,1454,1053,1226,82,400,832,746,1839,937,1610,1936,358,844,1481,963,1571,1214,1425,1192,1736,521,1754,474,1275,1923,546,748,353,532,1371,1953,301,671,1456,187,1064,1329,463,1085,1987,1663,535,491,1078,1644,1539,1922,1296,1676,1129,755,35,1890,744,515,1559,799,1496,1883,248,110,341,156,1464,728,19,1942,169,200,272,1510,287,356,1799,1305,761,1115,1283,641,1637,375,240,534,1246,1095,1441,1524,1591,1144,1504,654,1641,1875,483,1509,1577,1613,388,144,1604,1928,737,794,1412,533,1097,1321,213,198,815,1832,369,1141,1012,2,1787,1728,1002,726,922,646,1031,1263,1094,1819,1916,1813,179,1146,1213,1301,228,125,1185,894,773,1657,1732,11,878,1725,732,1340,497,735,858,346,383,1304,370,1675,1761,1402,243,1062,70,1382,1783,1380,1026,480,1318,1631,1784,194,332,1029,1001,788,1594,140,222,574,1940,957,1840,1436,275,679,455,1809,1383,696,1974,653,968,1770,680,1490,1065,60,942,1442,1054,851,856,1147,203,1276,307,1211,381,1518,1046,1997,738,1427,18,797,969,989,1533,97,1615,1248,1579,1567,1428,1190,1789,1159,1222,437,1173,874,1154,932,1236,197,1823,118,712,762,1332,1463,1503,542,24,325,842,1357,1112,905,1790,1759,1869,1958,1367,1109,791,1687,1835,1261,962,485,324,1553,1315,711,964,616,1580,207,695,337,6,524,1861,1473,94,642,1120,191,1455,997,7,1695,1359,1859,669,1163,266,1232,112,681,1245,1249,1181,889,83,160,1302,1912,1198,1286,1111,582,1748,1453,317,1587,1513,1665,731,655,1895,1856,1013,1536,1417,1833,596,1119,1964,881,1705,390,127,982,1122,992,1027,867,88,611,396,408,467,1702,215,1243,498,1700,554,637,268,1193,892,656,1803,1189,1068,1733,14,1229,39,1138,296,1337,259,1701,836,308,1282,1811,979,765,899,1640,1810,1,50,870,426,249,1816,1255,1438,1145,1298,435,1252,981,1826,827,1171,1837,1491,1904,443,719,170,1227,1954,1985,1957,1215,740,117,1139,677,556,507,967,1201,713,1943,132,929,1830,704,551,1107,598,959,415,263,1418,884,622,1180,1678,1194,138,241,945,1020,1632,1729,792,817,157,702,20,1392,1988,1527,1498,984,330,1658,1788,1760,951,848,739,1998,196,227,823,1568,368,567,373,789,280,1309,1289,1605,69,180,300,1885,1381,559,1080,78,236,52,838,1846,1151,410,1647,1308,594,1983,202,445,1478,1562,1266,837,995,1118,8,1751,1390,1396,1003,1105,1557,603,996,5,944,1059,863,662,476,114,1153,1399,1888,1949,698,1450,908,189,621,1775,1316,427,1768,855,419,1618,763,1197,1089,1866,126,1718,618,1915,1689,163,529,165,1982,293,572,805,1601,365,1596,1574,344,1487,835,1415,865,1174,1739,270,490,1584,1235,511,775,13,1216,267,1750,1552,360,1563,109,371,1488,1057,999,1322,1882,1117,1979,685,1470,807,1277,1452,691,1081,888,828,1061,1627,1212,1416,448,211,1529,1948,494,442,1413,274,54,561,607,340,93,1508,1825,1360,1101,1158,446,1773,1328,288,234,912,880,1931,1264,391,1863,1479,150,224,1968,1202,857,885,565,23,397,1204,420,633,106,1661,1096,872,820,1257,182,1767,305,1476,549,43,1969,1422,645,84,34,1924,752,1785,92,357,309,1542,147,1878,717,1886,1844,903,1075,1654,1669,1274,672,1167,769,609,68,555,1325,1387,1876,174,840,562,1102,632,961,528,859,1564,1838,1918,386,1660,604,1108,631,1796,772,523,1860,168,612,1951,1033,1462,531,729,588,1540,351,541,841,1862,1672,1293,1649,587,65,1314,1891,1421,931,314,1225,710,1854,1711,1634,625,720,148,620,252,1016,1592,1389,975,336,1815,1457,1091,17,1753,31,1635,1850,1424,1233,278,1959,774,508,1980,347,1279,22,402,1459,299,284,716,1818,1726,444,217,668,111,1894,1025,1758,1254,782,692,56,158,873,970,1971,1244,492,1125,1898,1506,1079,306,1947,295,1771,1934,233,367,1160,316,1349,151,328,1925,1752,1766,1664,1132,25,1544,538,161,1231]","arrowleft","true","0","3","512","2000","[""0033_N2000_K0512_CLIQUE"",""0090_N2000_K0512_NOCLIQUE""]"
"canvas-keyboard-response","47","79201","0.0-9.0-0.0-0.0","","5","","arrowleft","","[1265,1005,1633,1454,796,85,1721,647,1171,1207,602,642,975,528,1514,876,715,1477,588,1464,370,1115,1336,1577,947,1573,172,799,1380,1486,1619,109,1994,553,1377,1086,1645,980,1950,1933,425,1640,894,1947,1575,119,64,1386,166,1679,238,676,345,1620,613,154,914,1777,40,1698,233,1073,1419,142,1743,368,617,1330,217,1852,628,121,469,1074,1160,1237,1566,1015,1006,100,182,351,1411,409,285,1108,939,1684,1239,260,764,1055,1189,74,224,1338,84,322,267,1286,842,837,201,394,126,174,1695,1608,408,755,1345,578,1262,1547,1591,214,511,1521,1119,822,445,606,1886,641,988,982,1523,1857,110,1174,1893,1337,1256,1999,289,1823,59,1446,1489,159,1216,709,1964,128,898,452,1111,1112,638,1383,1708,297,1892,48,769,222,1876,1707,1148,434,9,1300,775,1275,1518,1738,1630,522,1941,1775,990,1704,783,1598,1510,1664,624,1046,390,969,72,442,1846,1447,814,1311,210,1022,1116,1473,1541,1031,1875,1776,583,75,1163,1317,1472,950,1914,931,330,1792,352,767,196,1307,1234,1204,177,381,903,407,1465,1424,1064,723,179,1368,1483,686,1236,748,1281,1230,1742,1930,31,1082,1414,247,1346,1655,19,1505,374,1904,1709,953,454,752,295,1911,310,1142,835,414,188,1025,490,825,745,1348,164,472,1102,26,811,917,881,1508,1308,1555,779,1113,1812,1007,782,1173,1233,1916,1313,1644,1712,1459,355,287,1084,1176,1845,681,1299,1169,1128,275,958,592,485,1021,239,830,1557,1500,346,951,888,1556,1513,600,136,385,630,123,1621,1661,1910,1042,955,483,986,704,1953,1699,1735,1816,1543,1542,1451,1263,806,1974,1827,992,906,999,311,1435,1784,977,1616,4,1579,286,1943,1596,1807,199,336,1343,786,739,328,968,677,1008,865,685,1951,922,934,1647,1371,315,714,269,626,807,1576,1182,307,978,875,1268,520,1979,788,349,1936,960,1494,936,114,153,689,1114,1955,62,415,1996,1553,1560,1820,1766,1149,1289,293,571,245,772,1000,1800,1050,1043,1747,435,1280,416,1915,690,500,57,1770,249,288,519,342,1582,710,364,1155,1799,384,215,1277,1567,138,1322,10,1753,305,1361,836,397,740,1020,535,418,1412,889,1240,265,281,1467,1819,1302,1295,961,1840,99,45,587,1527,712,1060,1982,929,884,972,400,450,1771,942,721,1872,650,1646,230,619,1017,688,112,242,365,291,160,1068,1287,1728,984,1471,1242,589,899,1079,71,1983,609,973,952,1197,27,1628,877,693,372,967,122,191,139,1722,1223,1794,924,1932,51,1296,1450,1430,810,304,92,1590,1563,131,597,1913,1657,393,1141,1358,1058,1426,1546,539,1838,94,1053,1971,575,185,1960,774,1602,1597,1429,366,773,1331,1164,246,909,654,1729,599,1666,1413,127,58,1637,83,1711,778,639,497,1923,871,957,1453,838,1259,1570,86,1829,1734,572,549,1507,1485,1215,855,1944,152,1805,1461,13,820,727,1693,1765,1131,184,1867,1110,593,1703,1821,144,1278,860,22,1001,1764,237,819,161,475,1291,258,1161,762,1625,1715,1095,1298,1069,716,1175,433,1878,1549,1973,869,1697,278,858,1593,259,1090,564,1350,1781,1652,1760,734,1686,1273,1014,643,1835,1498,1535,1756,1448,1811,1855,132,785,1714,1706,945,1492,543,1309,750,1474,878,1205,1232,1261,1434,466,1297,1185,1274,546,585,614,1678,1554,1626,765,1613,615,1683,376,1288,1887,5,49,761,1802,266,1129,937,212,679,1934,680,1387,795,1824,1154,618,1980,1251,1421,735,1859,493,1351,1900,1144,361,995,470,1211,1926,348,1100,1894,938,544,1861,1530,1503,290,963,533,16,1895,1137,319,662,787,1946,264,1525,872,554,1255,1925,21,1105,1344,171,1385,625,80,1642,694,1529,612,347,176,486,375,1364,852,1212,1927,863,534,272,1214,651,661,1836,660,1372,1067,1315,24,129,956,1962,277,997,1418,569,991,232,227,495,1422,337,81,1558,363,1949,241,1754,1907,1476,595,1885,1984,1186,1332,970,1581,1193,1779,465,573,324,494,1178,1285,674,1828,125,913,670,1921,424,692,1203,671,338,657,895,306,1519,1184,1883,1545,292,1565,1023,421,1988,256,1427,55,567,1304,1676,1987,1830,1965,1444,1405,192,1201,398,118,168,824,843,1122,777,1085,908,728,300,1208,768,601,96,1134,1959,605,1190,1452,480,760,97,1127,632,1681,1504,864,1610,720,901,560,1187,406,979,1469,516,1482,789,1491,318,18,1258,479,668,1745,1716,195,1080,1249,1455,30,1790,1460,284,1048,590,438,658,1124,763,873,1303,664,1092,1153,1294,891,383,1103,954,1718,1406,1463,1864,1078,1956,39,1685,211,1468,426,1267,1107,1617,1897,854,474,1559,627,1052,1253,1806,412,219,521,1942,334,791,1537,821,637,1191,1243,1378,327,1096,983,391,1740,1329,1656,2,904,1881,577,11,1512,1592,1818,515,1631,1917,718,1013,1033,561,1139,1030,158,274,1719,502,457,558,800,432,236,1938,1968,717,725,911,116,707,1605,1793,652,1588,478,1045,1222,570,608,1929,1849,1672,1940,1817,566,1609,411,299,163,1607,91,1890,1809,1691,1334,1123,1271,1456,463,1654,1874,1497,1635,678,1674,1701,1221,1822,653,1922]","arrowright","false","0","4","256","2000","[""0085_N2000_K0256_NOCLIQUE"",""0059_N2000_K0256_CLIQUE""]"
"canvas-keyboard-response","48","81195","0.0-10.0-0.0-0.0","","510","","arrowleft","","[1122,1815,937,661,735,1527,155,1443,1660,607,1740,1334,771,1159,526,1004,853,1559,319,1688,1909,1791,1899,246,1539,1525,1097,316,1895,427,1739,1711,954,1223,1970,701,384,109,470,1193,271,1754,216,758,836,1457,1981,140,1,739,1683,1149,818,669,334,645,1555,1296,1497,1215,1953,1690,1954,1642,1094,1864,964,906,524,828,1859,1140,1723,989,725,1253,1816,1048,500,1372,1077,992,1546,336,1650,844,382,1797,1249,33,782,1869,1846,1545,1677,1504,1811,1636,464,61,751,1179,687,181,1663,1617,678,514,956,133,886,786,1035,1777,536,1326,1874,1716,1190,545,1368,1973,1386,559,1099,322,430,1713,1423,1378,1155,894,974,1982,1295,531,1323,1955,1012,823,370,1379,1477,740,126,1152,657,796,1637,7,1436,1373,938,187,855,936,1705,1343,307,864,1337,636,152,1049,860,1680,1793,647,508,1510,48,1522,1267,34,631,1348,663,28,1217,918,489,1583,388,1165,1482,655,164,775,1369,1839,357,922,503,1992,1623,806,144,1573,378,360,1385,305,1956,684,546,1399,1828,1209,247,1364,1947,1824,29,916,963,1424,1959,944,448,1473,587,200,1576,235,23,1120,847,803,1294,1808,89,602,616,1552,1161,22,401,1813,1119,1838,1491,807,162,329,832,400,787,310,1524,1237,1494,1756,56,1532,1032,947,177,609,173,199,1977,488,473,1361,185,158,1868,1971,278,862,87,760,301,153,1886,238,878,1835,1478,1024,490,1408,308,1798,1252,1812,1872,151,1669,561,1455,125,253,969,1728,1405,1009,1158,824,1208,1216,188,1143,1321,839,1988,1459,767,1034,1112,1462,1875,1581,1676,566,1192,1843,1045,1671,1790,1460,983,1881,202,1902,1111,195,478,778,1707,752,996,1265,421,159,810,88,1433,467,959,1042,1274,1183,705,1575,63,1115,919,479,1292,95,1007,1722,395,502,1442,358,1500,1008,625,1163,136,1819,1471,519,532,852,86,175,1170,1873,1608,934,31,51,615,674,1561,325,463,1553,160,475,232,254,194,805,1674,458,248,497,984,1307,644,651,1266,672,999,529,1590,438,1377,1109,32,1461,1205,1475,1993,403,1606,1064,1177,715,1615,1752,340,1488,1616,1822,2,543,599,452,209,1162,581,1543,874,764,1987,562,283,197,460,675,1322,913,1469,1771,1440,1196,1197,510,825,1747,1304,1644,1481,1261,1338,1670,243,1717,593,942,1430,196,390,426,1631,1349,871,1345,869,627,1654,1882,1807,1571,1412,1444,548,302,1495,113,809,1630,52,1731,624,1724,1664,1319,1621,763,1031,1200,317,1453,1760,156,64,1792,1404,1699,759,901,1968,1198,468,784,865,620,217,1229,1028,1925,1696,261,483,366,1804,1972,1071,506,1685,129,696,1750,542,242,921,1019,67,306,1470,389,1983,327,1809,1554,1353,1093,1174,1921,1609,1061,1330,1852,505,738,670,428,929,1359,549,148,1417,135,748,166,848,1923,1929,679,1574,585,410,53,404,456,198,75,295,1242,1166,1542,118,1107,318,1041,628,203,912,766,923,1830,1913,1101,222,1748,695,598,691,450,1172,350,137,10,971,146,1694,813,1721,1796,1362,1657,296,534,734,1347,835,1131,1262,441,70,1251,1213,1173,1601,1963,440,1786,1010,1168,1787,80,1191,1240,267,1672,1299,1284,100,1996,975,180,527,1945,558,386,314,1668,1134,513,219,770,1950,1279,1127,337,1003,1312,592,439,790,658,1763,606,330,544,1468,1794,436,1439,879,1526,1603,183,290,356,375,331,236,103,1062,610,795,1512,351,1986,1050,943,1114,21,1832,802,819,1562,831,294,1556,1577,1075,940,127,1783,415,1138,288,689,407,1472,1352,1891,1599,208,1450,976,385,1729,1766,693,343,1125,1303,1324,1476,1043,134,520,1611,65,25,794,1398,1922,998,843,637,1194,1421,656,949,798,1409,117,1066,1063,677,765,1331,911,1749,1363,131,891,432,781,1697,507,234,260,59,1930,1876,927,694,101,431,762,1836,1285,1757,804,1767,537,926,1880,1799,121,394,1316,387,1778,1607,275,1407,1948,1286,688,866,462,1390,1742,1102,1344,1391,138,1823,801,1784,233,1651,111,1340,881,207,26,1051,1915,1389,1652,1681,5,116,90,300,967,266,40,812,167,905,239,104,398,71,1052,1047,1974,105,1231,1544,1241,1679,419,820,1595,572,1280,484,1105,1486,9,567,1781,1675,189,114,1422,1189,1498,486,1825,285,1116,924,349,617,1612,756,1648,960,997,1437,1867,1662,47,1727,800,1572,1984,292,92,1493,1401,122,241,667,882,716,840,743,877,867,1979,641,1501,1776,204,487,1858,1157,1055,1896,289,1141,299,982,551,522,1978,477,221,754,333,1746,995,1490,1587,193,1840,846,402,413,1920,1926,1735,622,1380,1889,1083,861,1855,603,1863,1738,1212,612,1980,1934,1879,420,858,1592,1805,163,1633,682,883,1104,309,1027,186,1770,1639,1924,1383,744,827,1095,1966,1017,1001,1263,1999,714,393,555,1506,1597,1370,35,749,1706,210,1628,344,50,1182,6,480,1106,732,1429,900,1327,955,1743,1256,948,1406,1431,244,191,1540,1309,516,986,8,98,154,1659,634,1452,731,876,1025,282,1374,838,811,1942,1335,1861,595,1917,406,1351,457,409,1883,1695,251,85,383,1315,1341,712]","arrowright","false","0","5","256","2000","[""0051_N2000_K0256_NOCLIQUE"",""0019_N2000_K0256_CLIQUE""]"
"canvas-keyboard-response","49","82684","0.0-11.0-0.0-0.0","","5","","arrowright","","[355,254,1169,735,933,1079,932,1370,1061,550,1380,925,1640,1144,885,892,190,988,824,1618,1758,491,1106,1735,1958,777,948,949,769,722,384,1479,49,95,569,740,568,1188,798,959,1948,1334,1719,944,76,1967,1027,851,1566,1448,44,1374,676,1322,1869,804,1874,128,555,1423,628,644,1896,223,1253,403,1683,1695,138,1222,122,1054,1241,1625,1376,927,1965,968,111,380,680,1261,1893,1274,683,1899,1062,1897,1570,1264,1866,1527,1743,171,695,1097,1630,486,242,1130,1233,1272,1417,1025,409,120,588,93,747,1942,1900,564,832,1473,1668,1830,1140,379,395,1063,738,1785,983,963,703,1276,510,247,1658,1321,839,1991,305,1516,690,109,672,671,1519,1128,230,245,1864,508,1356,1138,1192,830,1187,962,151,586,1384,796,1102,132,1716,278,172,1006,145,1913,1840,1704,1281,1136,168,1298,415,439,1129,1393,1518,1411,1806,589,167,1258,574,1909,482,1133,541,1267,256,116,6,1213,1729,238,706,977,659,433,1100,1691,1706,250,1176,1344,1844,263,1263,1328,1262,699,1290,1359,1964,975,1395,1705,1818,1153,790,965,1120,453,1206,1956,1772,857,281,1021,532,1360,130,1152,929,985,1923,1438,955,1517,1354,737,658,1751,773,469,1299,910,375,432,1855,1604,837,1158,1032,614,771,84,937,144,876,1430,605,1804,498,869,1135,621,1608,127,870,89,381,1467,1748,1724,1447,1667,1165,1664,1554,459,1982,394,1738,1959,235,786,1317,246,1092,645,1629,1792,470,165,489,101,1817,341,517,791,1303,558,1476,775,700,114,1747,364,166,1628,764,1212,1650,1113,1616,862,1623,1108,480,1872,1752,1285,1232,1979,17,467,1878,340,1860,105,1921,270,183,1304,205,393,177,1510,840,745,1862,1870,1613,1409,1750,492,225,1826,1396,999,1954,377,277,981,20,1843,1882,1131,1789,1049,490,1511,531,119,1147,18,1535,604,253,787,1652,810,1489,458,1,936,1033,1141,697,1015,1427,1858,1868,539,1920,1601,1703,1922,420,957,1592,1551,1172,430,1690,1096,1597,441,1674,692,1493,1101,1891,946,1022,1462,729,1126,1947,1559,991,1111,1408,1673,1075,77,131,866,350,679,1726,1287,1342,950,299,1313,506,788,725,186,939,1315,1482,1686,935,1244,1352,157,1076,1349,1434,1456,912,385,1259,553,1056,61,259,219,1332,780,1007,1666,615,1845,73,457,1215,646,1373,349,1581,212,882,733,1700,956,1951,347,332,940,1876,1416,800,5,1905,255,1546,361,1904,87,369,1887,1774,51,768,274,1684,793,752,81,1842,1453,995,1835,674,666,1918,1292,1483,1098,421,669,598,663,398,750,664,805,1239,1105,817,535,314,1529,801,974,1385,996,291,921,201,388,162,248,1415,1775,895,52,819,1707,1800,1607,1242,1720,1853,922,285,1488,315,1980,1451,1805,115,1693,872,1333,1457,534,320,1143,570,710,1297,1256,1283,1919,1885,402,1495,1593,1371,1809,845,1254,1265,577,1306,524,464,1586,544,1019,1579,1406,1523,673,189,631,537,82,240,1435,617,1928,1710,560,1365,863,1382,1432,1793,354,271,1089,362,966,272,203,24,290,1008,454,1970,1388,1556,1875,1713,814,92,1028,1279,112,1184,622,283,1696,1802,1671,1389,1898,1993,1538,217,1294,160,1646,1367,501,1877,358,54,1573,1963,1205,446,329,1815,1600,538,1856,1284,1513,1017,868,848,1277,986,797,451,1424,879,826,1436,4,1645,1545,1574,53,1194,1902,1460,1992,28,1364,1452,251,753,184,632,1702,1320,449,1791,30,675,1035,1246,844,1231,1116,1894,1937,1587,994,325,653,1086,1046,484,79,1109,210,1931,462,438,1372,1541,1767,554,1324,429,969,1725,497,749,308,1391,760,1280,1565,269,609,1632,1974,1933,422,992,62,1341,1617,1721,1157,1972,685,1237,726,687,1044,435,799,547,252,475,724,1901,335,557,1946,267,1010,1811,1181,1487,665,1011,1884,434,998,113,1402,1611,198,1950,661,1634,823,206,1795,677,1564,200,266,748,1375,1678,1347,1930,10,997,404,762,461,390,689,581,527,522,1514,1090,7,231,0,1178,774,31,846,296,1248,1127,197,795,209,1575,1925,1813,1957,1681,1270,338,1355,1410,378,528,1404,170,243,1040,1682,1734,1657,783,1009,474,1849,1307,1412,481,1788,1103,356,1282,1325,1038,584,833,739,1252,1099,847,809,418,1624,1047,989,351,71,914,367,951,1260,58,834,778,1916,102,519,413,1903,1847,1461,613,1544,1149,23,1418,1289,850,1823,311,587,1994,387,1712,1020,1000,919,1558,1976,1803,1563,1780,1082,1501,1045,1492,1779,575,546,1134,258,1728,1407,244,504,973,1827,618,873,897,1369,1381,221,744,1455,1164,1672,828,192,1816,1929,1892,770,1200,1190,445,1003,1934,1091,1715,352,1940,1968,1500,1880,204,228,224,1781,1345,1219,1961,1202,27,1014,133,1995,1137,191,1209,213,275,899,513,1654,607,838,891,1353,288,135,567,1790,1949,1879,1552,1727,859,2,424,1069,1305,1692,1077,1012,1459,1598,820,1362,1606,1663,980,72,1115,542,301,1122,754,871,1161,806,1166,785,533,1917,1394,1569,1771,466,1631,1653,1034,551,880,1679,782,1585,408,861,984,63,1578,448,348,1039,709,765,1528,1708,226,276,647,900]","arrowleft","false","0","6","128","2000","[""0010_N2000_K0128_CLIQUE"",""0090_N2000_K0128_NOCLIQUE""]"
"canvas-keyboard-response","50","84358","0.0-12.0-0.0-0.0","","125","","arrowleft","","[378,1454,1656,182,52,256,508,1499,1105,749,665,785,271,118,88,212,1127,1453,278,455,497,1247,1832,1331,5,15,637,1358,1039,1884,731,400,1090,1917,1447,1027,1569,1082,930,1302,539,1767,145,35,89,1377,1473,864,840,141,1743,1629,1093,1467,833,263,1430,1234,1108,1375,1343,336,1953,520,191,434,838,151,1197,423,1352,258,1336,16,1596,153,322,367,1668,1754,77,672,1101,1955,478,1159,1201,1575,144,614,1750,200,1171,859,1589,708,1063,381,992,1270,1032,654,780,158,1446,1807,1021,171,388,1979,1067,863,245,526,1720,952,120,772,1070,189,1272,1274,1501,1388,608,977,557,1966,586,774,1705,1847,1438,1652,758,680,349,1205,1369,102,756,243,294,1603,42,1340,861,1001,1961,1503,172,364,188,150,566,81,402,611,985,94,1258,1540,656,1425,1078,112,663,1009,1122,1576,694,901,1466,1212,1551,1315,1673,1536,1918,789,604,1493,1316,1729,797,851,1860,662,1123,117,1692,1958,1104,621,1426,964,917,480,87,460,47,330,1728,784,1934,1802,1730,1163,1727,1567,959,1616,657,506,178,327,953,1060,1053,625,1560,1642,551,92,1292,1558,272,777,1775,1248,205,1393,944,754,801,635,906,238,1081,872,136,958,425,1485,1402,185,1634,823,195,1988,1280,1390,1709,416,1790,126,60,1178,628,1877,1678,979,1989,1943,1338,753,405,1568,1529,1160,1129,347,301,1632,1810,37,254,300,162,1665,140,344,260,1309,1168,1553,1777,1836,1250,341,676,1218,1235,1162,494,309,885,18,1481,1534,1330,1221,1126,1611,96,84,1299,1907,1931,1628,1601,1152,48,266,1625,1584,1923,1319,197,666,1312,1698,1796,157,966,250,1219,752,467,1820,791,545,999,817,1522,1349,1196,80,1999,1515,1590,946,51,878,1130,1492,1217,675,1812,1765,426,1262,395,507,302,499,1045,1867,421,247,1395,1711,348,1189,1733,371,1117,613,1570,795,910,1208,644,1491,658,1058,1156,375,472,1416,204,159,71,924,1779,928,699,965,1005,1286,598,776,110,1210,956,53,314,91,1,891,1965,1762,1506,1225,796,1550,943,31,129,596,1333,905,1679,1523,1030,960,1645,1771,1296,1355,142,1613,299,1252,1804,1621,1310,1949,570,1845,374,206,569,762,1950,161,78,1581,810,679,291,23,1846,338,132,715,1941,700,390,639,1983,487,717,261,1666,798,1853,1719,1890,1230,115,1736,971,273,1870,179,894,1020,764,1386,697,1242,527,57,326,1057,360,1339,1817,458,1783,1155,585,1480,1435,584,450,761,311,638,1891,230,1766,821,1700,1298,1921,383,1209,1690,1109,62,100,1893,1456,568,1751,187,319,1038,1993,1739,0,1647,1285,1360,1244,1308,536,1740,1768,176,1470,1869,1899,1353,912,1246,415,1680,1327,987,923,907,384,19,703,936,1963,240,692,976,1146,563,1356,593,437,143,1612,1725,134,980,719,1403,1521,1782,1294,114,770,1391,1362,546,1363,119,1806,1815,605,1837,688,147,1764,1345,848,1143,949,1610,1074,1637,1497,1886,93,193,629,760,1980,461,927,1998,1651,1044,517,331,1646,1173,1182,1169,209,308,799,1372,1422,841,1223,1755,1895,1147,535,722,640,257,713,1185,122,1379,1974,886,1222,609,709,1789,317,547,911,1389,221,750,203,1916,1786,339,1323,1095,1717,1721,265,748,1585,1317,456,1478,1915,471,574,1200,884,1167,1268,1295,1697,224,148,399,1852,1158,479,973,888,555,1313,1722,1382,571,227,1498,1951,1834,1587,729,1694,1228,483,1407,1085,904,496,1112,1704,1351,599,1172,50,1959,1605,1490,802,1007,1405,1997,521,862,173,446,46,1411,334,1793,210,1892,742,1699,1488,1263,1034,1833,1465,534,1922,1214,128,1969,1838,1368,226,1942,830,876,1696,1889,601,1412,1035,1116,725,850,975,887,1734,1462,1374,1370,1266,1220,1013,612,522,1347,1400,1224,1992,814,1079,530,58,1799,533,874,1986,1639,994,671,1043,710,183,641,1747,1061,1564,190,27,1623,1344,1562,1586,578,1166,149,895,1072,445,1926,275,1753,1591,844,890,1320,1805,340,1464,805,562,1514,954,1759,1431,1554,1324,1134,590,524,510,1900,127,829,1723,1071,938,116,353,1099,1325,698,356,1046,659,714,1096,591,573,1756,1399,1180,1772,865,1598,1306,882,615,603,170,17,305,1031,163,543,286,1354,540,889,1863,1115,1920,1227,618,1971,1976,1026,1474,1142,1305,1593,1371,1287,1303,234,335,343,1547,1157,72,192,249,1111,1752,1017,1125,229,410,1672,484,95,109,664,1120,839,649,807,1885,1818,215,704,778,1944,1179,1588,538,983,1110,1278,1451,926,1256,1366,1421,1649,406,3,873,916,1519,1814,869,1494,788,1888,1825,1843,1925,898,575,1139,505,442,1008,1436,486,1028,1137,7,1933,1813,454,1022,1002,900,643,934,1350,1525,1176,1144,855,1677,1987,1978,1314,1236,589,298,67,152,1713,1183,1232,996,1829,1985,567,1463,1203,1273,724,1537,241,1800,1267,711,1423,1524,22,1064,741,990,1165,1341,1293,1683,379,1119,1655,6,1912,1041,1192,1495,68,312,372,969,1785,1631,1546,1994,493,518,1471,554,365,825,915,64,1887,645,1413,55,1693,1667,427,1741,685,345,1277,642,995,397,1364,1880,373,1437,328]","arrowright","false","0","7","128","2000","[""0083_N2000_K0128_NOCLIQUE"",""0017_N2000_K0128_CLIQUE""]"
"canvas-keyboard-response","51","86695","0.0-13.0-0.0-0.0","","906","","arrowright","","[1662,1386,1573,1816,993,1702,506,452,287,242,179,875,522,795,687,778,865,702,1309,1114,665,1200,1311,1700,1077,946,1610,1963,911,1665,467,1679,590,855,775,1364,1122,1937,1076,809,847,898,860,1625,142,1420,820,1919,994,1163,1485,971,306,336,1902,116,1785,1279,858,276,210,1732,1221,165,1804,629,377,265,177,460,84,1323,1824,203,1075,956,1682,1687,883,1249,200,948,247,1821,1116,1310,957,172,761,832,7,700,194,1841,1124,1820,118,1155,432,267,135,1097,1138,682,1201,1981,1379,1272,799,1327,1468,1182,1607,1822,1881,1055,164,752,395,132,1863,807,130,296,1426,927,58,1186,1962,877,1493,217,1947,156,586,17,1623,302,1604,1580,1172,362,1985,646,1069,1659,1868,1184,229,53,798,841,464,1157,1063,1007,920,1514,1657,1760,131,1238,1269,1565,1482,1592,180,445,1006,691,1707,1786,1241,243,1668,1471,27,1465,1708,1838,962,1280,208,909,609,1446,459,978,25,973,530,1040,1510,109,616,738,1814,876,363,1079,1037,1723,1598,20,1883,1190,457,1848,555,211,1507,572,1441,559,834,70,1308,1421,1890,745,56,1005,438,1495,1093,1048,949,1263,18,1600,263,1304,852,1306,980,1898,1663,220,1704,1329,713,499,1130,1483,907,908,426,903,1688,487,747,596,732,507,461,1540,38,831,1518,1433,1146,1960,1543,674,437,1875,368,1012,106,102,1004,1801,1051,1174,1,1080,1535,676,1474,1424,1319,1648,1995,849,1969,1071,1905,1443,36,719,1152,673,670,1517,748,645,1767,314,1237,1350,826,842,868,1052,722,774,886,427,175,1549,364,1016,1737,817,525,205,782,1338,1374,1405,810,1133,43,1788,466,870,1290,315,988,107,1101,1845,4,1961,502,1234,1430,34,520,1892,1606,678,1082,100,272,1261,129,1202,1784,1768,122,1355,1640,997,119,308,48,1826,626,1302,339,1317,536,8,1275,462,1090,1791,1140,584,1601,353,1855,1498,1536,730,1559,248,1534,1853,423,347,1731,519,1358,1273,1752,1938,471,244,326,1365,576,68,201,1728,141,767,1532,1946,959,1693,802,1360,1966,729,1916,1445,861,1435,1926,915,439,24,967,960,553,1541,1195,1410,771,1690,1651,796,1649,1021,249,598,1123,653,1994,677,1628,1353,1148,1378,488,1506,1008,1267,151,1864,705,684,333,410,640,686,1590,746,1777,1095,756,98,1395,1880,1250,1029,1698,1467,512,178,1922,823,804,42,1235,83,1615,1481,1452,1191,731,1558,294,833,1347,1871,103,1901,1997,1059,1803,149,1044,240,472,910,269,224,1286,385,273,202,538,1212,873,1872,1955,851,1113,1753,857,660,652,1629,879,342,1439,1415,133,1675,621,352,1942,1823,1813,1073,1523,1630,1583,1461,1160,617,335,1180,146,1944,1368,1429,1697,1742,428,1145,1039,1283,1119,1209,812,1351,711,805,1616,1349,1929,1669,383,1589,1641,1958,829,1074,1158,97,1422,1134,86,635,367,838,540,623,575,422,1711,500,1999,1772,1428,1555,1078,137,916,380,1436,1953,128,830,1136,418,1340,539,104,806,1886,733,262,1542,1918,1344,1062,391,1285,46,1852,1009,1457,497,1236,1566,1387,257,337,1226,890,393,514,1895,1593,1584,1959,511,485,824,789,721,862,9,1497,1099,1735,1504,1835,1964,1470,76,1620,604,171,1844,813,624,79,630,672,1061,1297,591,1409,599,110,1171,905,1333,853,556,60,1794,484,95,1407,815,1643,1891,1528,1758,1265,1256,1878,1312,372,1015,899,1404,668,632,361,35,498,33,1727,1807,1142,1131,1827,382,1176,1811,1188,1294,405,1416,204,301,1971,87,1734,1447,1680,1733,1440,1224,1780,63,1492,1626,1739,1879,419,321,1473,1013,190,614,280,114,1564,1396,914,344,241,600,1717,728,1597,969,1789,1874,759,1303,1245,350,1837,1455,32,1361,739,1033,77,1699,167,1105,450,1553,1011,1083,1695,581,85,430,1569,951,1046,535,1746,562,160,479,168,1456,12,1132,1556,1014,153,554,1094,776,92,1460,1098,1057,627,158,239,1747,1511,1434,407,1639,313,979,717,1179,1694,259,433,1381,1856,1100,1246,331,1557,615,373,1111,1714,690,1833,887,193,1572,1217,573,173,1678,108,837,1318,72,1193,374,1869,1041,222,1288,64,1851,1213,288,1332,1334,277,1255,891,1328,371,1042,216,1284,533,1915,148,279,411,1613,790,1218,1147,1810,1562,671,1887,1779,654,866,136,444,1165,338,1490,1299,1642,332,1812,1884,526,529,792,3,5,709,639,258,26,1161,981,755,1500,1444,644,503,938,261,602,186,436,1721,1778,985,270,62,1676,698,504,1271,1560,612,1030,489,1996,443,47,1520,769,127,1056,1748,1449,1369,878,1183,583,1730,1143,1586,1658,478,1897,199,282,1053,1024,348,417,189,760,1307,715,758,94,675,679,356,183,324,1912,1264,509,1970,840,1402,81,1127,801,1159,236,656,1836,1068,446,1373,1104,312,922,1925,848,505,695,1684,773,696,1671,749,264,328,297,816,281,1126,1870,1585,620,16,399,634,1866,699,1579,1983,298,1670,1527,1828,595,250,697,486,1660,982,1980,501,814,124,701,1065,561,618,1198,1793,245,78,1313,1301,1548,1988,1950,619,40,594,546,587,1710,636,683,784,1515,266,469,1952]","arrowright","true","0","8","96","2000","[""0092_N2000_K0096_NOCLIQUE"",""0013_N2000_K0096_CLIQUE""]"
"canvas-keyboard-response","52","88214","0.0-14.0-0.0-0.0","","9","","arrowleft","","[784,843,523,824,727,950,885,735,96,910,1638,184,1055,852,535,1822,1287,494,53,1230,114,621,1067,1690,732,740,659,149,630,559,1934,1531,1452,1269,1187,667,536,1079,478,707,393,937,1834,995,1254,279,1240,15,137,890,968,373,1881,719,1218,118,612,956,828,1380,1962,1553,438,471,1518,1816,409,655,4,709,1367,1650,1489,674,247,991,1880,1868,477,1051,1582,1820,1124,690,1444,245,1927,598,846,495,1594,1953,1902,135,1513,290,564,1151,1105,1108,1910,1462,1795,908,781,539,1153,82,75,1774,1547,1710,681,1296,1521,1318,1310,1639,1911,1321,1785,440,809,1176,989,880,1225,1157,1648,174,1715,604,158,160,444,435,1298,1695,1366,142,1445,1546,1609,1488,1839,323,1691,299,1864,1305,1612,204,532,856,1595,1530,1976,981,1149,1792,1732,1923,102,606,1959,1522,1882,1850,1757,1172,1155,1759,54,1694,518,519,124,1107,1514,1667,1533,763,775,902,258,947,1741,242,1480,899,1537,1600,57,1138,1443,1050,742,1193,233,492,1186,453,529,1052,224,1979,1003,945,454,566,344,649,1363,1830,601,153,1315,1459,684,1097,1226,538,1241,130,505,1583,1627,140,1023,281,921,1978,1560,1823,1605,1014,120,720,797,326,758,1475,1468,339,1526,778,1167,1678,94,545,1717,1649,953,914,1524,999,119,1376,1377,1784,1236,1584,146,459,1704,1993,577,790,569,161,397,1082,1233,446,1001,1109,769,1122,695,282,1232,574,1268,1371,1395,27,1971,1941,509,737,825,1247,464,481,90,5,1505,461,252,1506,1054,1935,60,1961,1278,721,787,1656,1391,1750,1454,238,762,1752,1758,1273,527,587,653,243,1859,1133,47,562,706,765,42,1372,1556,1324,738,900,854,372,841,1826,203,537,482,1060,975,1818,836,1924,1568,497,1805,284,1616,445,226,1440,218,23,1624,741,1083,982,1766,1209,1929,1283,1322,548,829,898,107,1250,558,1210,772,349,406,103,1730,1838,823,1843,403,796,875,208,1426,1410,1405,622,948,1519,1991,1401,1808,1886,1118,1852,343,794,660,1113,1907,1490,1901,1008,1870,1394,1786,918,496,1015,1179,1844,592,273,1532,1238,1718,631,484,1699,1340,648,1906,1228,1359,839,1104,985,808,551,1333,232,857,1975,1819,139,697,1246,442,87,1635,1030,1599,187,729,1544,795,384,1311,1112,1341,666,542,1574,1848,528,1804,540,949,792,253,1967,1603,1889,310,1354,202,266,980,1542,1767,1625,1742,371,1588,288,99,1685,1981,1231,30,342,1675,1267,757,313,231,752,163,375,799,134,607,619,111,1640,831,217,1135,88,1484,634,249,16,656,1331,177,1066,1589,571,181,1740,1495,1586,144,669,1493,40,786,613,347,1660,789,1738,1681,1930,1156,269,1116,1021,1076,50,44,1540,70,870,1736,1494,620,997,1048,1129,283,565,1787,922,1621,1334,0,1028,1276,1900,413,777,1739,959,1703,869,250,754,198,1723,1417,1769,578,239,693,300,1472,1937,1473,723,448,1053,1904,490,1326,257,1388,405,1771,246,1831,957,1190,1879,1743,364,105,17,488,1362,1548,1770,1630,1208,92,1288,1025,1132,1596,1192,1281,1390,81,127,633,1520,112,646,1749,776,1892,1110,216,1078,327,426,1147,894,749,1010,85,1098,1783,1688,179,1235,394,501,1510,1626,1301,362,530,1994,788,485,546,1181,1561,399,148,1580,1840,1465,814,1629,167,1215,1026,39,241,1977,862,1461,1725,1950,91,1764,1714,811,1997,1251,1992,966,126,547,1159,835,1933,1386,940,521,408,1985,428,1345,460,513,1984,722,147,32,1420,1434,1216,1057,1202,751,396,312,219,986,1873,1692,1403,935,381,627,873,1503,1166,984,19,855,820,391,156,731,432,1088,916,928,1447,1206,221,97,632,447,410,1243,1433,624,7,1846,263,1280,943,452,49,1709,1858,1314,145,1790,1701,1940,517,640,1479,1217,449,1365,1032,1508,1114,1523,1035,1570,1773,350,1634,1706,970,643,637,1529,1720,1761,543,1776,1453,1989,929,1170,1744,863,673,1618,779,745,1469,812,554,286,874,1205,401,833,1577,837,1449,1244,901,1797,915,212,1016,1194,1126,1191,1698,1662,712,932,274,206,295,816,1951,534,1120,314,183,771,1253,1042,289,1948,1642,939,926,1944,1277,694,1619,151,1343,368,1137,1842,1916,45,886,1611,132,793,1575,1056,1303,1499,1043,774,1810,10,865,1980,108,822,657,1931,1885,1747,209,708,1779,1252,254,1425,1146,26,1525,1566,1044,455,73,1368,1182,1587,1615,1011,618,810,1262,1674,1084,418,1637,377,411,1427,1370,701,1914,1229,853,13,324,1651,1753,556,1915,1713,1676,1828,1751,1528,1358,964,1689,192,579,1316,1272,815,360,827,1438,1130,1824,1782,116,1763,734,46,421,1328,1536,1020,318,1974,661,1081,389,1954,524,670,1817,1034,1227,1,1418,93,1550,1702,374,1125,1381,1351,595,934,80,21,1719,1141,1064,417,1188,1765,718,679,1578,1317,1131,561,1990,1471,334,12,1841,1353,351,308,277,1369,1636,1027,1220,1679,876,1802,691,1955,760,450,512,185,996,767,271,1457,1836,1245,1158,611,582,6,1165,1527,1279,196,1788,625,645,1409,1211,1017,909,41,1545,1196,990,1646,159,1899,1664,1031,1680,1428,1024,129]","arrowright","false","0","9","96","2000","[""0029_N2000_K0096_NOCLIQUE"",""0078_N2000_K0096_CLIQUE""]"
"canvas-keyboard-response","53","89893","0.0-15.0-0.0-0.0","","243","","arrowright","","[291,1602,1932,1488,905,1315,1041,651,208,1376,608,1957,58,1871,1563,1885,547,671,159,1354,677,214,1539,280,369,1740,949,1845,734,491,1594,421,806,689,200,231,93,1789,1955,843,358,918,769,262,801,1463,647,958,1992,293,1227,695,447,1541,604,1901,796,909,1213,1567,1362,551,253,1031,977,1438,1444,81,1498,232,723,1447,423,1359,538,564,1593,1307,667,261,1271,109,1061,1085,1122,1235,1268,1378,133,1633,344,1802,195,1710,1384,1935,1256,1264,942,1365,669,405,1244,501,664,1657,1119,1238,1005,1721,1468,184,333,742,511,854,1666,1864,1146,1338,531,1856,978,1247,718,679,430,429,446,314,1491,1736,659,903,832,699,1423,1328,221,1479,1682,282,952,1024,265,473,644,26,48,1694,142,1998,948,100,661,1827,1600,766,1945,875,84,258,506,1722,853,113,185,242,1960,1263,1302,1278,1193,250,281,616,135,1252,1706,1387,1226,495,1944,1717,945,383,1664,89,110,480,720,772,1583,136,410,62,1504,348,1778,224,770,1620,697,176,1954,1589,1585,1261,1388,323,160,1259,1411,1234,1233,987,1495,563,1728,793,802,1050,1529,782,1540,328,716,1033,1303,139,1042,1341,485,1903,1580,1959,1622,352,781,1185,1249,1242,1028,454,1075,49,124,539,1705,1692,1229,1034,771,341,1882,1854,1073,790,777,1858,654,305,1299,617,236,1288,1573,1475,1150,585,1542,1883,1180,1872,248,826,1142,179,865,36,1634,1255,737,906,956,1670,1614,962,1609,819,951,994,1486,1092,598,683,1096,820,849,786,132,653,296,1936,1975,31,694,997,1137,929,1610,908,569,1811,1301,1564,920,458,1737,1596,835,621,1637,1713,674,1012,773,1606,1797,871,1143,595,310,768,1067,1768,174,1105,698,1914,1953,549,355,692,1844,1246,95,728,170,292,845,1561,1556,594,761,1761,1430,8,69,237,1795,593,1428,1841,736,712,1453,1884,1801,198,1578,80,1549,1389,1169,824,1325,996,413,1794,209,1724,1677,634,542,212,941,1587,590,1652,1767,1908,1808,1555,1027,1723,1916,439,391,1910,1978,1828,1920,1219,1492,1611,570,1909,453,1081,317,1612,1196,841,1624,1907,1519,1446,329,811,719,1743,518,444,497,1829,340,926,1756,1648,1698,118,461,1221,1628,122,225,1184,1591,1688,1782,809,153,496,61,1667,540,533,1429,917,407,1645,848,1891,1177,950,830,985,206,1450,104,1333,1158,97,34,1642,935,302,1203,708,345,889,1911,557,622,240,957,1231,1089,1222,707,1406,1775,1452,591,1691,1595,1680,1192,1316,384,38,1171,638,172,1323,1253,465,1215,600,1990,380,1434,1239,1697,1117,493,343,1148,1455,128,520,1207,416,553,1153,188,227,1467,247,87,1440,1996,756,1946,1781,626,1056,189,584,623,1276,1830,1576,1663,1866,1113,1201,1967,1833,1839,455,125,964,251,1999,1605,1506,150,1461,1308,1016,463,1934,675,1870,77,360,700,1474,1200,13,925,1070,252,1291,636,544,1537,1746,216,1771,1011,357,1940,923,1402,42,1370,1764,704,1260,1618,1526,130,1943,1727,1493,1224,469,239,1017,784,513,1064,43,33,475,528,1106,9,998,1776,1533,402,1287,1175,1314,1087,983,1719,678,1059,1763,164,1123,703,401,450,288,1015,1415,112,938,1757,1080,279,489,1964,887,1040,260,337,154,30,359,147,290,1792,524,438,1069,140,374,1412,259,1684,1204,1022,254,215,1391,1134,1145,1777,529,1179,1063,631,701,526,1814,934,85,1403,372,1994,1788,1913,1499,363,642,872,995,445,45,1865,1906,190,1749,1577,1804,1894,1747,1695,1928,182,1371,1893,419,940,1494,959,1166,47,690,944,1357,968,588,1472,822,126,1228,1164,205,1129,1976,129,177,241,284,74,783,755,1147,1120,1330,1617,217,1208,1838,1217,1102,673,1565,158,1094,1807,657,717,1020,838,1514,1750,503,255,1824,1559,1616,1696,1267,1039,7,117,1869,1745,353,969,691,1456,912,1163,1905,599,63,1280,1464,676,993,244,218,574,1843,1655,1662,1251,334,1510,1298,541,902,338,919,1970,552,1030,597,1867,1558,144,25,111,94,1641,555,1689,1131,976,1197,220,979,1702,1116,505,862,879,1281,842,859,1887,60,1629,1436,1363,1273,1847,1532,947,1360,1470,988,827,1138,1471,378,1765,15,1881,151,685,4,665,106,1140,575,1395,611,1023,66,373,1862,273,927,1481,1509,914,1241,1987,1404,99,362,1126,1347,1473,1685,1210,1132,916,1744,22,1345,294,269,559,1741,6,1582,821,641,1821,746,936,1021,1435,411,1170,1157,479,37,1815,478,1597,1326,1277,1873,470,17,579,143,517,1187,1679,943,196,114,1527,1803,788,764,1294,648,1988,1065,1929,1071,233,991,123,1726,1520,1295,229,1343,1037,1407,1986,729,751,433,1266,1601,471,1044,146,1739,213,1448,1465,895,191,285,1088,966,249,1223,702,1432,516,138,1172,145,1057,1409,330,321,1369,1173,361,1919,1584,885,1068,1367,612,1114,1972,1892,1046,364,312,1035,1842,271,804,35,566,1971,202,1279,1536,1604,354,1755,428,437,1551,1286,412,880,999,554,73,1202,1718,397,1489,44,1859,436,270,504,70,67,107,933,894,1813,1482,499,577,1082,873,1121,1007,459,1762,1312,120,298]","arrowleft","false","0","10","64","2000","[""0015_N2000_K0064_CLIQUE"",""0048_N2000_K0064_NOCLIQUE""]"
"canvas-keyboard-response","54","91656","0.0-16.0-0.0-0.0","","292","","arrowleft","","[339,1290,1797,128,1866,346,1726,1095,1826,549,2,225,716,752,1075,1098,1305,610,1308,1092,1641,620,700,1860,830,80,1585,591,1317,85,1745,186,1894,1722,1951,239,338,853,350,1511,1139,327,1761,767,1214,857,1737,1678,835,206,572,1165,867,1773,1136,1683,461,1246,1562,1447,630,276,1103,1881,372,729,1884,1153,528,743,368,1909,582,1249,588,1050,173,1853,1838,847,1984,1158,294,1992,1580,1917,713,719,1021,614,604,1266,1500,1206,1925,452,1329,1662,488,1132,1734,348,953,54,304,965,1959,1205,465,78,428,1886,1066,1093,125,750,1269,1473,1426,819,1716,929,1615,563,795,1299,1932,288,1753,1816,1288,1378,252,905,1749,1135,471,416,861,1203,51,717,1264,1020,140,1571,1748,1539,183,1800,1213,1161,169,512,255,302,1338,1823,1486,989,1557,242,1235,47,1903,1107,1769,1809,371,1396,5,645,1399,606,1407,553,1062,1996,270,441,1283,1584,1192,671,1398,909,227,398,18,1628,485,727,1057,1224,875,229,1255,262,1552,1758,1721,393,1924,526,435,191,1837,1684,596,724,323,1862,467,1849,967,342,657,1872,885,1841,792,994,1955,934,1295,1848,874,10,1905,728,554,823,478,1839,1015,1078,1842,1128,842,187,1607,1576,1126,848,1472,974,1787,1201,1056,1685,1150,556,796,1547,1914,920,381,330,1487,686,1242,697,688,1733,1698,1001,1844,1223,396,1482,1858,1318,216,1529,654,634,68,1475,137,44,1167,741,1983,826,927,204,470,689,1578,1112,1570,1489,352,409,119,1373,291,1379,1137,908,219,1209,43,460,1559,959,769,1851,325,158,300,1141,1796,765,1963,679,1377,1156,1280,858,1289,670,1110,1231,1736,1309,1558,636,1267,1744,159,1831,840,1974,1516,1609,1053,1517,1550,919,659,122,1929,240,1701,759,1179,1883,798,836,1090,629,397,1663,1962,707,58,551,333,1022,1193,1986,756,1676,1806,1325,411,1039,1058,831,1045,377,241,487,496,1287,625,1164,1793,455,1306,127,184,833,1928,1339,265,1234,783,860,1634,139,1617,1912,1349,419,1569,1185,52,641,66,1775,1101,985,736,19,585,482,1244,450,1400,653,921,808,1196,1031,110,1409,849,56,587,1922,380,1930,1923,1688,480,1742,181,702,1836,1935,1294,236,1533,746,627,735,1526,1237,251,1133,1490,289,1171,194,1563,708,364,931,1049,1545,200,1715,883,402,745,1301,282,980,845,1854,210,293,1084,1018,1070,1000,675,1410,379,1863,1292,326,844,828,1812,109,104,946,133,32,637,801,803,55,1334,1174,117,386,1896,733,1130,1669,1599,458,1789,1456,1499,1582,1038,1341,515,1729,824,1900,38,185,1934,1510,1658,163,768,1353,373,685,1799,1961,1535,1947,1948,889,197,498,418,1376,1265,90,1221,1604,1967,699,1007,534,1361,1411,1567,462,1640,1650,176,1759,1470,1589,1887,566,305,50,1497,1366,1226,1645,1695,1356,1013,269,394,1990,12,1549,1,1154,1134,126,1689,1614,106,568,438,1319,1380,1561,1523,1082,1638,976,73,1412,977,710,999,451,100,586,1538,1228,1480,618,753,773,274,981,851,367,1115,406,816,766,784,815,1403,1395,1384,383,770,813,642,205,542,336,449,1328,869,182,1252,279,1553,1647,72,1840,1346,1435,1784,579,355,559,1424,235,1514,721,1621,472,829,573,1518,1194,8,1428,1867,249,1507,1746,1954,1067,1801,156,1888,540,663,790,1554,382,492,62,1718,788,1271,88,1151,652,168,94,1906,502,245,991,1898,1122,1575,1864,1060,427,947,45,354,1454,1358,978,839,180,1522,431,425,1815,1568,1002,1876,1690,1240,1256,1534,307,395,613,1597,1706,272,791,1608,638,1692,1414,1375,1335,356,1598,267,1606,706,611,546,1633,602,1094,157,1725,1146,827,1850,1788,757,1832,433,1937,1434,286,1892,1464,607,129,1034,92,1613,1513,1359,1100,1671,667,872,1394,413,1871,951,1665,718,1188,1111,1560,1953,1630,1664,1756,1178,838,954,113,442,1250,1466,1691,1200,331,1555,1639,1324,956,421,1751,541,1790,621,1284,328,1973,1646,463,1694,1304,912,246,628,1949,1631,821,1035,1525,1819,1703,565,1026,1357,1602,1429,1946,170,1506,693,882,1493,266,466,91,975,545,898,1492,1140,904,1187,1610,1895,292,287,1503,296,941,640,1046,933,511,26,1653,374,1626,519,751,594,1978,103,369,1781,1868,507,592,714,4,1423,1590,1619,1479,1654,780,1117,1467,403,984,1893,1739,1813,513,1208,1455,1186,926,1297,584,527,1147,1622,280,107,1945,901,77,958,818,1169,575,161,318,484,509,1054,1181,1440,1072,479,1390,1741,970,1222,1911,778,1774,1975,763,1502,1950,915,1071,1987,623,468,1747,1344,29,1524,281,1347,16,1771,1933,1825,1270,547,1351,597,1427,1391,414,1846,1577,1686,9,1805,878,309,1160,1699,1583,263,196,1275,811,256,1451,1099,179,1943,1444,1802,740,862,102,1719,1965,583,914,961,1537,201,635,1043,189,1401,1321,1877,1765,1184,1282,1485,785,608,162,388,1354,963,1611,879,1936,1332,426,1233,432,1014,1074,260,407,843,1463,561,1593,1910,1919,1857,864,971,1897,214,1738,1579,1218,1572,854,1431,1446,1938,533,349,3,20,1508,1536,558,138,415,86,1449,643,1913]","arrowright","false","0","11","64","2000","[""0069_N2000_K0064_NOCLIQUE"",""0016_N2000_K0064_CLIQUE""]"
"canvas-keyboard-response","55","94423","0.0-17.0-0.0-0.0","","1457","","arrowleft","","[886,1723,1312,529,1852,1392,1955,448,1273,823,271,43,462,861,437,1633,1048,471,1386,814,1199,1270,1157,317,1375,487,883,1581,251,1985,1308,618,644,1005,1187,1806,1863,726,898,262,1094,1129,1221,1328,3,763,328,52,1285,1439,1173,283,877,6,449,546,1999,1360,461,1591,985,1228,1526,1384,1356,1993,1805,1052,995,213,936,706,302,737,569,1211,511,901,390,1798,652,1841,1291,1580,1447,396,135,1903,1329,299,1512,1079,1880,1055,282,774,285,1577,1583,1287,1337,375,1227,714,1739,1604,1097,1781,1614,255,605,1983,809,1455,1085,913,640,1523,167,767,1172,568,1284,1162,1504,735,1006,1690,921,1340,482,1609,790,665,1233,433,183,1015,1065,1226,580,976,348,826,535,1125,1222,1679,822,1659,768,919,170,894,177,350,801,623,1908,1063,1750,1317,1896,949,67,1561,827,1064,190,931,108,1421,1278,724,975,201,244,908,1290,454,365,1243,1436,952,1937,762,1061,498,1754,764,878,830,1847,1755,745,784,1234,97,24,1198,1771,1281,542,999,1235,732,1778,863,1911,439,662,1876,1816,1443,778,1850,215,1940,1395,479,82,598,1092,1897,1428,772,1343,1310,416,1982,1704,504,1542,256,44,1035,1794,802,711,1910,972,1708,1893,1586,1699,587,1321,955,579,1293,1176,249,138,1824,1463,1503,507,1698,1596,1351,609,1936,1994,934,465,145,602,693,959,1821,1557,36,1524,1589,226,1638,744,1558,1342,1566,996,1657,1973,1025,630,856,576,1948,688,1600,760,1004,1497,1248,950,897,702,1225,1220,836,1914,1685,1304,1555,1059,1330,1472,701,582,1544,376,336,1790,678,275,1849,421,1538,1828,994,676,442,1309,1747,1151,234,1921,1997,281,1817,1446,962,325,1792,658,1159,431,392,1811,1306,715,1294,222,75,643,1648,849,578,904,1859,1570,805,106,87,562,440,1576,1489,267,445,594,92,1267,1041,757,506,235,1359,556,64,297,1398,1366,1002,1263,1181,102,1671,1177,1751,1007,1784,1031,633,1499,486,756,1944,23,1202,1413,1414,453,1722,27,1882,1917,1607,1357,118,1760,1028,1537,1998,1658,1543,186,1812,1160,355,1361,286,944,86,1120,1642,573,1000,229,1900,1913,182,979,1662,1802,150,1387,1246,313,859,1252,1793,1564,1511,1081,700,771,1,1597,224,617,1715,837,747,612,364,1104,174,707,692,140,69,1365,1746,1484,1485,686,1442,1088,1082,291,1672,912,173,552,96,1435,1411,1972,940,450,786,168,1468,1271,558,1877,874,126,1645,1840,1567,367,1441,538,316,41,669,334,992,1981,923,1703,1295,1459,704,610,1906,1332,1922,1364,1988,888,1898,1044,207,1315,237,1912,269,622,1624,791,1731,1131,1904,563,1118,1909,595,545,1668,191,554,1603,1236,1865,28,839,119,1143,1881,1887,1621,740,1869,78,1146,165,248,1400,682,1073,1594,1182,329,81,1247,1056,899,71,634,420,1598,1184,586,1616,1363,314,1539,997,1540,548,1449,1481,1894,657,1664,466,1128,1038,129,321,2,1774,272,838,1093,857,98,1123,268,1720,1223,750,146,1942,1327,1456,39,480,72,1319,1647,627,1535,649,1261,664,55,1378,733,1531,1758,1734,1407,1410,646,1680,74,1480,1547,295,123,57,1121,1502,954,660,1175,315,571,290,567,1075,1404,1640,1205,1498,694,384,1825,1590,773,1611,491,1493,301,930,1665,37,1831,107,463,374,631,1823,673,171,866,397,1888,413,779,1072,1018,862,1612,485,1764,1563,1954,1127,1032,1625,136,59,178,387,604,1244,1779,278,626,452,1333,1644,1705,264,1729,1986,1194,95,1272,32,1462,1191,60,25,427,993,689,1593,489,858,389,1946,1313,875,29,1856,518,1992,1554,1675,1487,1818,391,937,456,666,1510,1842,1677,685,1215,1601,1516,114,742,910,103,531,998,989,1257,958,1019,312,679,443,117,91,1742,73,619,1269,1694,438,600,807,748,192,513,104,1505,1117,1298,1251,559,1646,951,1923,1212,1534,572,1423,796,1190,928,358,1254,432,252,125,1192,1174,1402,320,1836,280,890,916,1300,276,1517,296,1276,547,907,808,1318,583,1935,1229,1302,1637,721,1991,1905,9,1525,731,402,410,124,729,447,214,468,613,1163,1218,739,85,1868,1316,1666,187,357,900,318,1858,1878,974,254,323,656,1875,753,1890,1237,769,1282,1476,1353,677,1390,1114,1239,782,1980,1396,1582,221,1186,896,1231,817,1224,540,319,1767,1431,105,46,616,1091,1078,99,1737,1546,1889,372,534,120,926,1303,345,351,7,550,210,90,464,1253,8,653,369,1634,1401,1532,1549,533,1732,127,209,1730,965,497,967,1509,1264,1334,133,1023,713,635,1138,1137,963,911,1599,1809,537,1354,615,1496,876,517,614,1434,986,512,1643,850,746,1568,1087,709,1807,411,279,799,1219,1445,1541,966,798,347,765,382,370,1773,48,1833,76,1486,1180,1292,1207,310,404,1867,1631,1473,1716,1377,1283,938,492,821,1780,1077,1166,1437,1475,1130,1651,697,1837,889,373,1551,273,1701,1348,1109,1873,1069,843,1420,719,780,1367,1405,820,804,544,151,157,305,79,851,1036,14,855,475,20,611,557,738,1112,1710,1575,922,1684,436,795,42,22,242,541,1761,553,1311,141,175,867,1661]","arrowleft","true","0","12","32","2000","[""0073_N2000_K0032_CLIQUE"",""0005_N2000_K0032_NOCLIQUE""]"
"canvas-keyboard-response","56","96085","0.0-18.0-0.0-0.0","","163","","arrowleft","","[1121,1581,108,1160,544,1923,1308,1924,1871,1777,1281,462,900,1265,188,1447,884,581,1793,733,150,211,433,700,1528,217,1536,1195,18,1241,1370,1151,1967,193,1901,256,1211,1904,1270,742,1446,184,270,298,1565,480,1522,1078,1168,1014,1972,338,1338,561,1859,814,386,67,897,62,513,1296,925,934,78,1826,1795,1937,1225,738,422,333,1985,274,1069,294,39,1573,1966,749,645,1287,1019,390,522,1675,1300,641,187,174,1798,1408,1102,1943,1934,1992,940,603,258,859,214,1640,183,1787,695,1181,992,835,336,502,429,1489,41,1032,470,858,321,1539,1838,587,1880,288,1328,268,308,889,1306,1027,1780,1212,421,861,1561,286,1474,1112,1709,219,1673,486,1350,571,1320,922,1544,236,1238,788,1660,750,1619,1517,290,1294,59,1953,130,984,746,876,1468,1496,1892,1792,9,493,1152,675,242,1564,1260,1471,1615,1978,1938,452,1046,1546,1886,618,909,957,58,491,1289,1403,1757,1632,1161,567,805,351,1148,1198,1074,1784,583,169,408,1099,709,389,1963,1670,33,1411,1678,604,287,1998,1665,1987,1852,1066,1794,1868,423,148,662,353,549,1729,1311,1926,943,677,1887,111,517,786,1954,1567,1917,1574,451,24,1072,176,1293,1458,542,1609,320,1823,393,1194,982,154,580,1346,1429,519,369,1614,358,1599,1154,725,1379,1750,1881,354,1139,352,1020,896,602,1491,1118,1634,1256,335,1303,971,56,1481,1726,511,585,512,1816,98,1048,1113,1916,1965,162,1575,1753,1462,63,1428,1470,1767,1929,1898,1421,1261,1674,73,466,1685,213,570,179,1108,347,899,541,494,297,1563,1000,34,601,941,388,1094,482,1620,1006,1884,691,737,322,839,910,1981,564,723,64,1553,1312,905,412,1755,798,955,935,1641,1137,1033,562,762,1283,1872,1229,1814,1387,1909,1580,790,1849,413,1960,243,1271,1997,1030,1192,1593,415,1051,112,1751,209,301,438,1974,334,377,327,1956,1993,654,1514,1964,1693,1865,705,1515,4,978,36,536,1454,721,212,1768,633,527,272,177,1803,568,530,1215,1521,1796,12,888,1854,1766,743,53,1556,690,594,293,1347,1508,991,1028,385,1053,239,1125,1762,1264,1386,1288,1377,1336,1806,1279,796,523,367,1469,1810,1459,172,31,1495,487,1493,1157,1142,1630,1012,1259,1357,1736,170,1534,1239,1703,279,779,1391,295,1840,1097,266,771,510,508,84,1975,958,1478,1188,1455,759,284,1473,1138,1769,1029,484,1834,446,1098,1543,1602,620,464,1130,1588,1804,1150,1944,1931,1355,915,331,800,454,1712,1815,1062,813,1352,425,1040,1219,1883,845,1913,339,817,434,1413,1949,378,1595,1915,1861,113,598,938,1853,1895,1208,1450,397,1526,626,756,119,758,1807,1367,983,1384,1639,834,748,795,468,894,1423,1759,815,1770,312,1597,319,1725,495,1828,1824,1903,1651,856,670,1627,1117,1799,1427,1190,356,1081,99,851,1420,802,1232,996,913,701,921,1174,277,275,663,1333,869,432,673,66,87,1902,1100,1445,400,525,1894,1304,1277,459,906,806,485,993,1532,1425,757,1414,396,16,461,355,309,1617,325,142,180,406,1406,907,157,1506,3,504,881,447,837,981,1786,812,14,373,1026,1164,1041,1788,997,1114,895,1699,1835,349,1106,1483,854,734,1637,1369,186,772,1031,1284,1664,801,276,1297,135,623,1269,694,1274,398,942,1004,190,246,139,775,1249,337,1839,1716,1653,235,592,437,152,646,1484,803,1395,699,303,1056,793,368,1932,95,1363,1246,729,606,344,1719,1393,1366,230,1731,1197,225,880,1621,375,1409,914,952,1228,552,1713,341,313,1111,832,720,1340,722,1073,82,1412,1383,1132,882,1519,551,407,1747,615,1811,1510,610,820,1213,175,1147,1695,1082,158,887,1475,589,716,1047,672,681,1064,1267,998,828,1982,1525,245,1644,1359,1236,685,1463,780,671,1946,586,948,1268,414,427,1200,1962,224,1426,1309,732,1039,960,1310,1611,1548,631,1497,1258,841,546,318,28,1332,946,1273,1460,458,902,1812,644,1443,1791,380,1533,1566,785,1204,1133,1800,1875,1123,827,79,1353,1201,343,1177,201,1202,1313,710,207,1054,1210,140,1756,1701,931,1711,1299,1935,194,537,1068,147,1502,1487,1679,1779,1869,797,595,1193,445,199,936,1846,1690,1257,376,904,967,1235,362,109,1912,890,678,101,443,1570,821,90,10,1572,348,476,1922,306,937,1275,1682,1392,394,1733,1585,951,1586,781,1434,1933,1551,161,1730,234,1970,625,638,1628,1180,442,1440,472,1688,1562,1825,1292,740,879,1524,1372,1986,371,1764,1501,1686,1224,741,68,416,1592,8,1822,1801,599,1827,503,1129,1025,424,810,689,1337,1175,873,1919,1182,1131,1509,260,535,789,55,1866,540,1727,1684,830,548,728,1415,1734,986,251,753,324,1244,975,1457,374,1855,1065,533,660,247,1011,1252,496,1023,639,1001,1951,1024,54,944,1842,1891,622,1930,5,1216,1461,88,668,731,450,1925,550,666,1598,1740,403,379,939,1718,1401,173,202,1896,1343,1307,323,431,1055,919,569,892,316,1438,1529,1507,1836,1549,1905,1205,961,912,1862,764,539,86,1907,850,1542,1075,1723,1016,826,1155,1043,221,1018,254,197,269,751,83,1199,1833]","arrowleft","true","0","13","32","2000","[""0033_N2000_K0032_CLIQUE"",""0085_N2000_K0032_NOCLIQUE""]"
"canvas-keyboard-response","57","97577","0.0-19.0-0.0-0.0","","5","","arrowright","","[1181,248,1369,1637,1783,679,1264,717,315,1788,864,362,1913,1228,1284,1635,1488,1352,922,1540,39,1785,180,1279,1263,237,1506,1668,62,50,1816,225,1100,1878,58,278,1498,290,1219,1884,617,309,1768,815,210,977,946,76,455,733,1267,1237,627,106,1727,555,1989,886,30,376,1957,848,979,1730,265,433,1422,1774,1747,1300,944,1452,1678,339,4,1073,1789,801,740,1261,592,1356,1001,504,896,34,1787,952,1245,856,1077,1606,1153,1970,737,774,259,556,861,880,1102,802,1154,57,1595,176,1733,1445,1918,1316,1015,94,1061,1429,621,1029,27,65,1111,1720,739,804,975,186,1992,553,580,800,357,322,1186,1059,1373,819,686,1573,1775,791,121,773,1180,168,1381,1360,438,1675,1099,38,1845,1150,1129,920,671,588,989,1684,1827,927,1923,304,1815,1095,1307,754,1408,1078,1757,458,12,1066,465,688,813,1618,493,207,761,140,96,1623,1000,970,921,419,144,943,512,1231,42,570,1210,1336,1053,258,1132,1012,930,742,707,826,547,1985,1665,577,1227,1140,8,1853,797,338,55,1465,1084,1951,1690,1333,428,1993,483,1141,115,166,80,1039,935,197,177,1193,1349,1086,318,242,371,603,1903,191,87,1956,526,350,558,1038,220,442,630,92,1433,1942,782,1335,1321,7,705,1552,1410,32,1297,642,1101,616,120,1456,926,1806,109,602,1007,1828,1182,1166,1895,1168,1946,160,347,1608,1776,650,498,1519,814,13,1106,1190,1933,1014,119,1857,835,1479,284,1706,1930,978,1236,847,1725,1122,538,116,871,1864,1117,24,1376,613,199,435,1272,1200,767,1289,1974,355,1374,1904,379,1753,1642,1591,398,356,1047,1354,1812,1986,1781,1467,134,681,405,1843,436,520,999,141,1395,196,1,415,1399,157,1937,1824,1795,1975,557,306,1239,1271,95,1960,1699,1622,1539,1821,1288,897,1415,1685,1173,955,1430,334,945,1402,267,878,1792,1178,694,1570,770,1770,1558,1836,1058,279,222,402,142,1921,1726,1740,1891,810,1474,323,1705,1161,716,1694,1253,1020,523,1871,9,646,940,1031,1920,1451,1306,1927,235,1040,1453,181,1762,1869,378,200,286,917,1551,1700,1981,17,853,1024,670,1006,528,1022,1767,255,758,947,429,1680,1501,925,411,649,1656,1766,1590,1257,1082,942,1729,721,1743,968,287,1088,674,632,641,1889,1910,1772,1487,1922,1983,251,1724,1330,1096,500,67,1588,1226,1387,1861,541,1327,620,1414,1486,1329,466,484,313,1194,383,533,1754,1317,805,1350,1094,887,74,573,89,1689,108,1067,601,863,779,320,1823,727,472,957,430,260,1485,1662,1719,133,936,1522,1932,194,587,666,876,972,932,1367,274,1005,1660,1707,868,358,123,1384,1537,747,1631,233,1011,367,690,1874,709,506,1915,643,1938,713,1309,14,832,1113,988,1083,503,521,1441,1912,425,1093,725,1744,1883,454,581,1285,1472,1443,366,129,476,1688,1977,631,450,456,78,276,594,1364,1146,189,1710,845,1217,127,609,1480,751,1696,1615,369,1604,1811,1749,1599,1763,1148,408,677,263,1712,1607,566,771,842,1380,1649,1400,1025,584,1119,1866,662,1887,467,1579,1908,305,1661,341,470,1673,1016,823,1541,1275,360,1545,1071,1681,1120,1701,839,1807,973,59,1667,969,161,1238,1055,409,846,311,169,661,701,1594,397,1581,994,478,1978,663,1896,81,1357,1048,1900,1157,1571,1438,499,1167,1616,1274,1803,867,1598,364,138,1298,1879,1841,723,0,1984,148,1338,648,1346,1075,1293,1312,1432,904,1972,1494,10,1670,1782,359,319,223,1491,1160,1890,1602,738,296,1407,956,1482,368,610,1808,1532,1104,1315,893,135,785,1738,179,1259,1870,1881,1202,1463,860,392,872,1829,1640,150,1669,685,1311,990,214,1042,1070,1898,1980,571,1769,962,824,765,900,793,26,1461,1133,136,1322,1108,47,193,35,1473,1250,82,101,964,1163,1722,159,1605,361,1110,1613,100,1941,1041,253,41,295,1852,1124,1759,354,446,1596,1778,1177,1032,418,53,766,336,1945,152,582,257,1629,1459,640,1953,1907,1834,1224,519,412,838,165,1917,1302,1454,1419,1353,689,1971,1745,655,1123,1198,1130,1418,1109,1899,184,1617,1854,1344,660,1858,894,1089,118,426,514,938,1677,691,1906,45,676,1382,1959,400,1566,20,262,22,301,1967,1534,1151,614,1030,1511,452,1337,531,1926,1529,593,164,1801,1147,1601,825,549,1748,1027,406,143,1914,1417,1831,1372,1347,1283,477,1963,1332,1361,575,1252,381,28,205,1600,1576,722,529,1213,1406,1159,1645,1741,769,888,1220,652,809,188,889,1385,1179,1902,668,1184,513,345,479,280,125,56,1818,591,1643,203,457,1779,1691,1833,1377,1105,1171,564,624,1582,1520,1241,1174,294,1262,1051,386,66,1867,1940,741,890,644,1052,565,72,394,1847,1555,209,343,1886,933,302,1809,1875,699,1185,1877,124,821,611,480,1538,300,1627,162,869,811,151,226,1199,883,1947,348,1500,1405,1634,1708,918,696,1035,1466,598,1009,1624,459,373,326,589,2,982,1557,1076,1525,453,1692,1955,1258,1863,645,1771,1650,1439,1044,913,1508,534,275,928,1523,1565,783,939,764,745,229,1550,404,183,1201,1682,1426,335,327,562,1563,1876]","arrowright","true","0","14","27","2000","[""0061_N2000_K0027_NOCLIQUE"",""0089_N2000_K0027_CLIQUE""]"
"canvas-keyboard-response","58","99086","0.0-20.0-0.0-0.0","","32","","arrowleft","","[84,735,1247,898,76,118,966,1459,464,259,694,763,748,651,1323,215,1410,24,230,357,1871,820,1859,1639,1805,1467,287,1906,383,450,1477,1059,495,1636,1379,573,927,92,1796,1760,1736,1181,1595,1390,359,377,1243,58,596,833,34,1166,1220,1846,1230,1531,602,749,362,686,47,1196,1364,1062,413,726,1053,1392,571,545,1281,187,1916,930,746,1204,451,1154,85,729,1164,1669,1206,353,1271,1757,767,479,1861,1523,1446,1320,10,1018,1687,1522,1155,352,1735,269,598,1456,51,1770,1900,1663,223,1705,1954,953,1468,583,1933,1009,1981,42,536,683,1634,227,14,1168,253,1190,1550,371,1759,476,205,1829,125,1400,854,772,1748,1617,1624,725,1441,1987,1094,1794,591,1,566,275,979,1505,1890,1285,856,1046,1712,280,1611,542,1568,26,1262,184,1990,1841,1187,1560,435,441,1837,1430,523,1386,162,1070,1409,1134,1373,1974,1146,1986,1635,1543,1020,1048,332,1896,1588,1073,1305,1524,255,1443,1919,1119,816,672,434,463,1172,1141,1311,208,1203,1936,395,1869,1382,947,1569,807,1946,691,839,333,344,880,309,773,1778,249,257,308,455,8,375,1815,624,122,153,1252,487,1598,1194,1176,1153,577,1039,1210,1432,360,54,1104,1097,1878,1806,1093,80,1800,1002,113,44,700,1763,1605,1520,1436,1776,983,931,692,1979,828,584,1189,231,66,1544,440,730,955,562,1528,195,1484,829,1827,794,952,472,1515,439,556,956,1839,863,1772,1706,1943,1856,1557,1023,311,1228,235,1565,229,559,1725,206,681,968,1683,176,1504,939,747,1790,1951,736,972,1219,315,134,437,889,641,1780,1548,265,1474,361,1482,90,410,1035,1578,336,91,1067,506,98,838,220,1628,1290,510,291,53,349,1462,492,211,866,1137,1333,565,105,802,670,1608,1948,232,637,1907,648,131,301,1003,217,1675,1727,1178,1963,1626,39,636,1680,1117,1804,1590,664,514,917,1629,376,1508,1536,1057,1429,240,285,502,1945,1481,916,1167,1597,743,709,1771,190,143,509,1949,1033,1239,1013,806,821,33,1038,20,1139,862,1642,1941,658,522,213,372,5,1261,425,168,1719,1984,1065,776,1491,1728,1470,99,525,943,1287,398,1362,1377,831,1005,1633,313,524,460,1652,1599,1331,617,1959,404,760,1378,378,490,1029,585,1882,706,1322,1391,1526,1338,1566,1212,1928,194,271,1068,1952,1754,1063,1258,662,384,1082,575,1246,1226,1289,459,597,1733,671,819,427,1051,774,1442,129,412,462,1343,872,2,1223,1454,771,1355,1692,1296,1256,959,74,405,1171,1791,163,458,1724,1696,189,221,1541,1616,1257,949,447,855,727,1911,193,1224,262,695,965,1552,572,809,297,861,1434,147,89,884,696,860,139,1034,488,1158,998,1280,1925,274,590,1234,1681,886,689,1967,1653,1313,288,1853,306,666,1917,1175,1579,1857,793,834,246,347,266,226,1682,1764,721,697,647,1903,1241,1254,789,652,169,11,104,690,338,1891,960,1713,13,1914,214,1971,1336,1334,436,283,1685,254,1980,1315,67,810,1580,1961,1958,241,999,1698,1793,270,1613,1383,766,1156,1995,603,423,1209,1530,1662,900,1997,1930,733,341,1076,1554,1405,1351,906,186,844,1525,1929,1421,1934,619,1638,576,1061,1031,1711,1745,385,1619,170,1416,1983,544,248,1656,318,1201,1533,1729,720,1279,1789,1513,644,511,798,1425,1567,1965,305,179,119,48,9,992,649,1618,1551,1893,1527,1295,1546,1251,171,1299,111,1887,1755,219,302,1150,669,250,1766,1620,563,836,780,387,199,1121,370,1862,1460,1831,1455,1193,1356,1372,15,1090,1350,1464,1337,621,1431,1087,1387,82,234,645,1229,1054,1940,950,714,796,314,1426,1828,1854,1395,1562,392,705,1084,635,526,557,323,1881,548,6,1037,1291,962,1880,1418,497,1756,1388,330,1111,1657,1080,272,1968,1749,1381,1127,86,1897,615,78,1052,182,1774,1512,1798,431,1284,284,1648,59,508,394,256,390,1366,1819,1901,1852,41,908,555,745,896,558,507,1571,1722,592,196,1855,786,474,712,1994,1461,1877,675,634,924,456,1563,1457,268,946,1185,840,343,177,600,1651,273,1938,286,290,1339,1910,144,936,1845,406,1625,708,60,267,865,149,1797,1072,997,990,869,529,835,1138,1207,1992,1612,850,1781,988,1637,224,891,1511,279,1978,668,1347,978,43,1688,1730,1792,824,1056,1304,1559,980,1697,294,858,1200,1348,1534,1836,145,37,1931,1411,768,1918,1135,758,415,1448,1483,728,1751,993,1493,851,1401,1361,1116,1369,1988,984,1867,827,1601,552,823,1417,811,975,893,769,1773,1303,1007,1389,874,1480,16,443,707,665,1884,1817,1367,632,890,1812,1074,197,18,1803,1921,1947,172,797,1889,150,433,83,1182,1721,1498,847,157,791,1935,465,582,1623,1603,1293,1573,1326,1600,530,913,1989,1953,469,1118,895,414,1786,755,407,1998,418,496,981,1723,842,754,1955,1991,625,1537,1045,613,1021,723,1277,1160,996,1693,1015,1066,1821,1726,342,926,1352,553,1826,1799,1008,466,1091,1577,1186,411,1415,1752,1451,1088,1558,1026,1779,1875,1042,713,1147,1019,1775,64,737,1602,326,782,1810,640,1703,130,23,1811,663,815,655,765,1787,623]","arrowleft","true","0","15","27","2000","[""0041_N2000_K0027_CLIQUE"",""0063_N2000_K0027_NOCLIQUE""]"
"canvas-keyboard-response","59","100544","0.0-21.0-0.0-0.0","","5","","arrowright","","[1386,627,375,1062,511,497,468,1796,477,686,1988,587,1163,526,547,1558,799,1185,1552,203,323,550,409,1504,653,674,1912,408,1381,925,23,716,1266,1897,983,119,525,110,348,705,1216,740,1032,1945,504,480,1468,777,81,922,1501,892,1333,1262,1144,284,1128,584,31,1535,1042,1162,358,1599,536,1571,87,520,1159,1015,91,1863,1079,1647,739,1182,993,51,596,138,1607,1741,1074,1353,1536,439,454,1692,1956,1503,1554,836,1383,1050,128,934,438,696,401,896,296,219,381,981,1905,1271,1376,914,352,1858,289,293,1803,1567,1231,738,840,443,1731,1691,656,825,1428,531,1580,280,729,34,1646,1927,855,1355,1454,1461,1059,851,1099,991,783,1213,1382,431,582,1268,1479,1433,534,810,1604,1098,571,1867,154,638,164,1084,367,1444,1845,1354,26,1130,1523,1495,1086,1311,1052,707,1766,1314,195,1550,272,133,1623,1968,292,494,1998,498,945,1343,123,1507,755,366,1772,608,1603,445,954,1249,484,1821,222,325,1145,1764,820,1922,1749,700,1294,205,1534,1812,20,557,320,1572,467,881,1242,890,1871,75,1682,850,857,1263,68,559,1898,1908,1890,1243,606,179,80,434,1783,152,379,404,1438,331,1402,63,1652,555,210,316,176,1097,1844,1007,1251,354,1577,250,941,1885,580,337,1077,1349,174,394,265,449,785,1799,1048,177,19,586,1843,522,642,417,1866,868,516,1909,1591,727,552,907,30,395,1224,935,1218,355,130,560,1899,1344,1146,1944,744,1609,1841,1573,1977,312,1019,1706,1793,1330,1441,125,282,625,1036,1630,1446,1035,311,1375,824,798,402,241,1230,1281,9,1467,49,1727,283,1904,1187,214,1325,79,53,718,1676,1639,977,1137,965,1965,1315,1234,452,1150,455,1209,610,1633,368,1252,279,1384,1067,1211,1367,191,1698,1997,871,533,1986,493,1310,400,1155,869,593,1415,1570,652,946,812,1472,1361,1719,1362,726,360,540,482,1488,1346,380,918,132,1022,307,1103,937,1338,386,1804,3,1557,1156,169,863,1985,1807,1411,1404,592,67,1560,688,456,930,885,915,224,1246,1322,1285,1815,714,231,947,1915,1539,1732,1938,905,1200,692,419,630,1578,551,960,912,175,36,658,884,353,1690,95,691,447,1012,444,1661,1677,22,679,1849,1668,40,1790,158,1717,298,1394,570,843,76,1825,523,775,1005,678,1008,663,771,507,1713,1648,594,1597,1001,861,780,1983,1293,1711,1143,1923,274,207,644,182,1299,1684,1587,13,1929,1714,491,735,198,1470,90,301,161,271,712,1369,1342,1943,1792,1818,1272,1518,383,589,100,1797,530,1327,657,1119,635,1184,1761,585,1589,310,826,414,1317,732,1094,270,1962,1729,32,245,216,1217,436,728,1328,1506,672,1484,1321,1635,1889,614,1637,421,263,1540,1219,17,1301,336,1395,1370,1872,724,1636,74,866,1594,1765,974,1277,260,166,1575,1240,287,209,1450,1158,1391,599,1204,1298,1990,817,1292,1485,1925,335,1697,609,661,145,21,1934,1238,564,1795,693,1151,490,698,369,1942,253,1887,1555,168,1175,1798,204,765,632,1838,1616,1363,994,1009,822,1666,1544,1882,1480,492,1471,835,1946,1935,149,1060,2,1775,1850,313,683,472,1307,1893,153,469,1723,1406,99,839,495,1834,1473,405,1926,1087,1460,1987,1654,1206,1011,1688,1750,1959,59,122,1960,106,877,963,862,1215,1526,1474,483,1726,828,574,85,568,1083,1806,546,1774,872,1752,342,1071,387,35,1203,1865,1970,1101,1336,1846,1287,1883,1196,1902,833,1802,569,332,1991,72,761,134,1933,519,1142,565,1207,1172,226,1423,554,1700,743,766,172,1827,1614,620,338,1542,1966,867,878,488,578,1405,1702,1855,1612,940,709,1063,1699,827,276,1154,347,664,973,58,170,1453,1981,1610,821,259,750,206,41,1337,1842,1220,972,1780,528,500,1746,321,1538,267,1072,281,139,938,120,819,1116,952,1836,882,964,6,1689,64,796,1722,1082,1040,1493,690,1805,1379,1113,1679,1214,1856,723,1627,1192,1939,1210,758,1326,8,1180,858,1735,1165,1160,396,197,486,677,1512,649,1869,1038,1896,1972,773,1892,1387,343,1208,1673,459,1611,920,1080,249,1483,936,887,640,1588,16,1096,694,1302,356,976,1811,988,1954,1840,1703,1148,1628,1478,1202,788,350,88,1785,1123,199,1705,1919,341,1680,1313,1817,1225,895,1655,834,1788,1095,535,1279,160,880,1773,1031,813,1524,1421,165,733,736,1875,1166,1332,1565,529,1894,643,687,1419,117,1457,124,57,1047,970,631,577,1568,1936,1533,65,137,1853,1973,1809,1976,894,1913,601,515,1010,327,112,794,926,804,1125,897,1147,838,955,979,319,721,77,221,89,1397,806,297,1089,478,1233,667,473,1257,155,416,479,853,1928,230,1870,378,1104,437,603,62,239,242,266,357,70,623,1520,1028,595,730,949,481,1868,10,532,1615,143,1320,1886,803,1177,141,1517,1586,61,1873,809,1440,1400,1476,220,874,517,1469,118,956,978,286,188,1274,961,1751,1625,496,1605,1768,1197,1880,1133,1267,1532,1491,1813,465,217,1941,989,759,684,997,1350,1743,1672,126,1171,1439,109,392,513,1037,852,789,1739,334,470,318,1340,18,14,1316,681]","arrowleft","false","0","16","25","2000","[""0099_N2000_K0025_CLIQUE"",""0003_N2000_K0025_NOCLIQUE""]"
"canvas-keyboard-response","60","102586","0.0-22.0-0.0-0.0","","468","","arrowleft","","[1916,746,1631,875,1876,453,1404,1300,1486,1693,1111,1407,26,21,1024,1891,1717,1811,723,1375,973,1014,1362,61,1561,1168,1635,494,1344,1552,1705,365,557,485,278,171,1905,1005,1801,542,1782,1778,126,1361,602,643,1739,1651,1,261,617,1977,1614,1944,327,1011,38,1669,115,845,632,468,986,292,1618,99,1608,639,659,810,968,510,221,1370,570,696,772,499,1932,1471,1901,743,837,1337,1633,781,610,1885,896,1140,356,1489,1826,1904,1348,32,1525,294,1250,487,1634,444,1770,1385,480,1357,1812,1207,1097,841,445,264,545,1363,1422,1579,1546,1021,938,54,228,933,741,1162,753,0,1163,1845,1034,667,1101,1193,713,1768,79,1297,1784,858,1724,560,366,1559,1462,1725,1317,300,734,609,1057,69,778,1010,503,630,347,146,349,29,1195,532,1049,775,1762,1125,731,1682,1605,1325,1098,1748,614,212,1676,1835,1143,1825,833,1313,594,1544,1679,374,1483,1200,1199,1727,1686,1994,1146,1082,801,1444,999,1025,1567,104,1050,789,1665,735,1555,1930,1060,695,335,1106,622,1698,761,513,1732,1927,1158,884,683,372,1372,259,272,969,863,369,927,334,804,367,189,621,816,1857,1175,229,12,111,163,291,1154,1267,110,84,1761,1573,301,1035,722,1442,1571,341,1854,1305,694,493,1488,1040,745,1569,1503,1077,797,1183,1378,642,1817,780,528,1291,205,1312,1913,1995,1530,463,996,160,108,1171,1922,217,1743,794,1090,377,940,616,1124,547,1043,1975,1978,790,749,740,1053,1499,699,290,4,1660,280,1394,429,373,1621,113,130,1246,1009,1959,1974,1583,112,1928,243,1003,1461,892,78,795,1343,1247,687,1084,1391,1282,124,1293,562,424,1642,1936,266,750,467,1850,1880,62,554,1902,1211,765,1469,1861,993,1510,691,1237,939,987,1015,573,1294,1310,1543,555,1492,1241,439,1495,360,1882,1366,1074,776,455,1428,1804,931,178,392,1722,1786,1431,942,817,1033,1802,1259,1047,1226,192,1766,1990,320,1911,1173,998,1537,432,773,929,232,1839,1912,654,1834,1251,375,1481,404,1217,268,1650,1588,881,1627,473,1749,1751,172,914,1446,1302,1899,710,319,1445,742,1973,1606,917,479,564,949,74,472,59,24,835,1397,1413,27,1741,1696,535,1360,595,303,440,1528,1777,821,312,1767,1228,1563,1532,1640,1453,854,271,501,1675,1805,383,1867,1886,1319,1659,1731,1726,80,1695,1176,516,1299,889,338,1022,184,1414,997,299,1139,1136,697,155,381,1624,719,1607,295,9,729,1645,167,233,36,623,1206,1582,1673,1960,1585,1029,720,1626,282,1968,726,325,1059,950,777,1833,1455,1091,307,606,1507,1311,25,337,411,1249,275,1694,1496,882,496,397,983,95,959,508,1918,1610,766,1263,332,1709,1566,561,49,1664,202,1815,1170,879,1288,412,1243,1365,456,310,581,156,1750,1744,140,1411,901,214,1576,1800,380,308,1100,1678,1780,548,50,19,1156,1285,1703,972,1398,584,665,591,1646,134,1865,1473,1303,433,1581,538,830,655,317,707,1591,174,137,1448,1216,120,161,1032,129,1575,1879,664,1485,426,945,186,435,1667,258,1089,897,166,629,1611,662,1152,1877,1824,358,919,1323,1487,1512,1697,1307,899,486,443,1273,908,1070,1174,1616,652,844,165,647,1071,1933,1690,1937,961,413,1114,689,549,608,1356,1334,1514,1947,1045,1308,240,1358,289,1814,30,1052,1480,788,345,159,716,149,260,597,1718,947,45,1981,1513,1852,1093,1092,285,1338,1166,567,1716,551,1951,216,1822,1113,921,1172,738,246,1884,273,1425,151,1354,1755,1048,751,194,1991,517,906,1027,399,1148,840,321,1962,1042,688,1332,1083,512,1278,792,540,1336,462,1322,226,1187,1135,18,420,1619,1779,748,1415,1017,66,1868,607,342,721,1954,1821,1628,1983,188,876,236,31,1498,1116,1910,1773,537,281,799,1388,329,839,1742,511,136,1738,1287,1692,1218,1283,1859,1141,497,1349,725,1518,220,1115,483,1746,1438,1454,457,558,1420,1182,1699,569,763,405,909,1271,1938,1838,1072,770,1548,1054,650,978,1948,714,1467,1235,1298,1630,454,1992,460,1393,183,241,1269,340,1180,1952,559,1883,515,796,546,23,925,385,147,106,656,1721,344,995,1395,1296,1701,1584,127,1368,262,208,658,364,1475,1689,819,1108,248,1878,982,1188,35,861,1380,1903,1524,123,198,1807,1440,250,386,1416,1508,133,1472,1399,1364,1266,431,848,1969,1036,1787,1771,523,361,566,536,1432,1900,1509,1595,1120,1523,627,346,1144,1079,1549,370,967,1494,1775,286,87,1281,1262,1239,1577,1306,1781,1318,297,33,1656,1647,1783,571,1529,1345,1887,728,1684,279,589,1102,1589,1851,1609,613,902,953,504,1037,288,203,204,306,1215,1436,1403,1019,1227,916,1806,17,1795,708,984,843,828,89,362,989,576,474,498,1286,815,1547,890,1648,125,1441,1668,142,1502,1623,437,1797,1791,1465,235,1238,1655,620,1324,686,943,1377,336,636,661,1793,1769,1847,829,57,1204,1280,1572,162,368,1456,1491,992,813,1406,850,724,767,1329,736,1255,937,1164,407,524,1220,238,948,638,1429,196,1853,1714,718,798,565,1231,979,425,1245,783,1412,469,1794,552,1008,414,1122]","arrowright","false","0","17","25","2000","[""0024_N2000_K0025_NOCLIQUE"",""0083_N2000_K0025_CLIQUE""]"
"canvas-keyboard-response","61","105767","0.0-23.0-0.0-0.0","","1651","","arrowleft","","[1918,1623,158,752,262,354,1542,339,841,1300,574,425,807,1933,369,358,1316,519,430,1614,1893,877,1742,1978,1031,591,1071,1178,1122,1185,1197,679,1785,1517,1434,786,1849,1560,1588,1165,131,1997,1980,1249,1620,991,741,1746,1680,1070,1822,852,28,1743,145,1478,1386,846,418,739,1127,1590,1044,1767,1374,416,375,121,1481,110,268,723,95,1090,1818,324,292,1459,1347,978,17,1040,701,1571,1147,1012,328,79,14,1683,998,83,606,768,1790,1477,1740,1095,530,976,1838,1973,1807,1832,1329,469,1341,1643,899,1087,159,341,407,769,1991,362,1468,1576,459,1065,463,1651,1744,622,1934,1237,319,417,1527,1594,1293,215,412,315,1557,638,1732,1972,1696,209,1161,179,395,1670,906,1610,954,476,1033,1854,1472,1648,699,1613,1487,934,1085,64,1250,726,1803,1636,86,1155,748,1626,869,909,1172,1394,1839,1381,298,389,1290,730,1331,1166,1376,1367,628,680,1158,615,200,1519,559,1873,712,461,480,1138,119,1810,1693,1382,1578,1000,1080,528,672,1245,1896,1736,22,1816,1682,1447,932,924,1621,1035,956,669,1600,1764,385,1301,1763,1597,1114,644,347,698,410,1389,1941,1850,1724,326,7,90,982,1257,1413,564,1528,332,1827,1205,112,96,322,1373,614,1745,278,693,1449,408,632,1998,817,1948,340,837,943,1100,185,1800,765,759,1792,175,32,424,87,1546,575,1877,138,282,795,665,578,367,577,719,584,428,1054,1229,1912,422,218,983,294,353,1132,905,483,306,1034,280,750,851,1120,1676,142,1906,132,1275,1452,1675,387,1037,1154,1809,474,1804,1641,542,127,988,390,1555,1353,1783,153,1936,1927,509,1930,791,311,1240,1377,1755,1820,1865,1945,742,1281,60,128,1078,143,289,571,458,1956,1502,1719,1757,435,921,593,111,114,923,286,1384,1938,66,508,523,241,904,1601,820,697,115,952,1223,545,106,1511,1607,226,1535,845,1879,562,1922,1344,1144,252,67,242,598,641,1167,1768,1935,342,876,792,1525,1323,1586,534,1515,1669,18,1781,581,20,1699,1277,176,411,1638,212,1963,1195,558,1427,19,926,1024,1901,220,819,757,1833,202,489,168,1280,1954,80,1491,925,818,13,1003,695,420,561,206,590,495,1603,1905,1342,1735,729,1027,1914,1362,1691,971,970,450,163,535,1013,711,1484,910,1235,1398,357,1014,521,589,634,73,1231,1931,1981,149,661,1443,1592,1729,684,1653,1199,1828,1485,503,264,609,1644,1500,810,1575,734,821,1081,1334,755,470,373,740,1602,1593,1074,1460,189,1969,784,1630,393,1092,1260,1701,953,515,580,1112,601,1845,309,639,551,1357,414,1604,1883,1815,263,999,1063,1882,154,568,55,1929,668,1299,1504,779,247,1959,1279,1875,860,901,1916,1236,1831,1859,105,974,800,48,98,516,663,116,1860,743,1791,1650,1445,1046,1617,989,913,89,468,448,1711,849,1718,118,911,1113,657,611,627,1738,1410,813,317,1411,893,1974,890,692,1598,963,1194,117,1254,403,928,462,1943,211,1214,152,1438,371,1720,24,135,415,261,1750,374,1069,304,43,35,1256,1988,831,348,1428,997,955,1521,1221,652,1455,522,1082,307,1665,645,1176,1397,172,1493,221,829,120,1715,608,1390,49,187,1317,1523,658,960,108,283,1313,316,1207,865,1509,1728,1971,222,69,487,137,1847,1009,1917,1149,1005,1026,1274,1759,4,1038,500,975,228,1814,576,1796,1028,1135,329,738,1722,351,513,506,834,1421,1089,1707,1712,1216,1708,867,517,6,1953,967,1550,457,959,236,1606,1483,643,747,170,238,1713,368,1338,594,1181,400,77,838,1689,171,1264,544,1308,927,828,109,21,1705,650,336,12,423,192,879,1899,1498,1564,497,30,442,94,191,1834,162,265,587,382,1679,498,660,257,1830,797,555,1099,1631,1311,945,907,1880,1717,45,724,210,181,234,57,34,801,402,1615,496,269,1263,1591,1422,8,1126,23,1605,1091,1350,1947,507,937,431,1086,1426,1387,233,667,361,1923,1325,1327,1692,610,429,915,565,1234,1968,1136,596,1310,1773,186,183,1962,1475,1782,1786,1294,1661,1383,763,833,359,1996,1305,1364,258,1351,1463,1985,1919,394,29,320,184,1993,1580,670,201,1276,1282,379,1297,1309,529,1563,1667,1271,1664,372,56,1102,815,197,1587,552,1779,1939,744,1673,912,579,599,1797,826,434,1902,1863,1852,605,272,173,437,1244,1259,993,1507,82,811,157,941,1747,731,37,413,600,1424,287,694,1302,557,636,1723,1008,139,671,102,550,113,891,481,1226,136,1321,1247,1416,1265,454,62,1431,1210,1371,1001,439,785,1242,1840,1056,225,1497,276,421,1066,1697,648,1703,1908,1109,1239,783,1412,788,174,808,1183,777,746,1924,861,973,1319,377,107,751,401,1545,148,1837,1480,325,1156,836,133,715,93,1573,1771,1399,1453,1130,1415,1312,1798,850,1470,572,1145,888,1793,155,1314,360,271,208,843,273,293,1716,124,297,1106,1423,1072,1979,630,710,46,1887,756,1853,1097,1940,5,300,1075,229,527,1862,1874,1168,655,427,1937,1369,981,1402,883,1361,1499,887,426,1625,965,1248,267,541,1133,972,781,631,1731,1266,253,0,1976,1036,1067]","arrowright","false","0","18","22","2000","[""0004_N2000_K0022_NOCLIQUE"",""0003_N2000_K0022_CLIQUE""]"
