"value","trial_type","trial_index","time_elapsed","internal_node_id","width","height","webaudio","browser","browser_version","mobile","os","fullscreen","vsync_rate","webcam","microphone","success","timeout","failed_images","failed_audio","failed_video","view_history","rt","stimulus","response","nodes_order","correct_response","block_index","presentation_index","clique_size","graph_size","graphs_names","correct"
"","call-function","0","2","0.0-0.0","","","","","","","","","","","","","","","","","","","","","","","","","","","",""
"","browser-check","1","492","0.0-1.0","1464","755","true","edge-chromium","132.0.0","false","Mac OS","true","123.2","true","true","","","","","","","","","","","","","","","","",""
"","preload","2","627","0.0-2.0","","","","","","","","","","","","true","false","[]","[]","[]","","","","","","","","","","","",""
"","pavlovia","3","1123","0.0-3.0","","","","","","","","","","","","","","","","","","","","","","","","","","","",""
"","instructions","4","7054","0.0-4.0","","","","","","","","","","","","","","","","","[{""page_index"":0,""viewing_time"":3111},{""page_index"":1,""viewing_time"":2816}]","5927","","","","","","","","","",""
"","html-keyboard-response","5","11155","0.0-5.0-0.0","","","","","","","","","","","","","","","","","","4100","By accepting to participate in this study, you confirm:
                <p style='text-align:left'>
                    - That I have carefully read the explanations regarding this study and the entire experimental procedure;<br>
                    - That I have been informed about the aims and objectives of this research;<br>
                    - That I am aware of the inconveniences, if any, caused by the experiment;<br>
                    - That I have received satisfactory assurances regarding the confidentiality of the information obtained from the examination of my own person; <br>
                    - That I am aware that I can withdraw at any stage of the study.
                <p>
                <span style=""color: #808080"">
                    Press [Y] to <strong>accept</strong>.
                </span> <br>
                <span style=""color: #808080"">
                    Press [N] to <strong>refuse</strong>.
                </span>","y","","","","","","","",""
"","survey-html-form","6","21829","0.0-6.0","","","","","","","","","","","","","","","","","","10672","","{""gender"":""male"",""age"":""27""}","","","","","","","",""
"","preload","7","23233","0.0-7.0","","","","","","","","","","","","true","false","[]","[]","[]","","","","","","","","","","","",""
"","instructions","8","127008","0.0-8.0","","","","","","","","","","","","","","","","","[{""page_index"":0,""viewing_time"":2564},{""page_index"":1,""viewing_time"":3188},{""page_index"":2,""viewing_time"":1897},{""page_index"":3,""viewing_time"":3591},{""page_index"":4,""viewing_time"":3849},{""page_index"":3,""viewing_time"":383},{""page_index"":4,""viewing_time"":499},{""page_index"":3,""viewing_time"":240},{""page_index"":4,""viewing_time"":322},{""page_index"":3,""viewing_time"":217},{""page_index"":4,""viewing_time"":233},{""page_index"":3,""viewing_time"":160},{""page_index"":4,""viewing_time"":291},{""page_index"":3,""viewing_time"":171},{""page_index"":4,""viewing_time"":267},{""page_index"":3,""viewing_time"":282},{""page_index"":4,""viewing_time"":278},{""page_index"":5,""viewing_time"":2321},{""page_index"":6,""viewing_time"":1378},{""page_index"":7,""viewing_time"":1230},{""page_index"":8,""viewing_time"":2952},{""page_index"":9,""viewing_time"":1345},{""page_index"":10,""viewing_time"":1684},{""page_index"":11,""viewing_time"":765},{""page_index"":12,""viewing_time"":941},{""page_index"":13,""viewing_time"":881},{""page_index"":14,""viewing_time"":413},{""page_index"":15,""viewing_time"":542},{""page_index"":16,""viewing_time"":495},{""page_index"":17,""viewing_time"":805},{""page_index"":18,""viewing_time"":600},{""page_index"":19,""viewing_time"":865},{""page_index"":20,""viewing_time"":548},{""page_index"":21,""viewing_time"":423},{""page_index"":22,""viewing_time"":796},{""page_index"":23,""viewing_time"":539},{""page_index"":24,""viewing_time"":754},{""page_index"":25,""viewing_time"":1785},{""page_index"":26,""viewing_time"":1055},{""page_index"":27,""viewing_time"":2781},{""page_index"":28,""viewing_time"":1070},{""page_index"":29,""viewing_time"":1549},{""page_index"":30,""viewing_time"":604},{""page_index"":31,""viewing_time"":928},{""page_index"":32,""viewing_time"":2484},{""page_index"":33,""viewing_time"":483},{""page_index"":34,""viewing_time"":401},{""page_index"":33,""viewing_time"":239},{""page_index"":32,""viewing_time"":3646},{""page_index"":33,""viewing_time"":1878},{""page_index"":34,""viewing_time"":647},{""page_index"":33,""viewing_time"":313},{""page_index"":34,""viewing_time"":291},{""page_index"":35,""viewing_time"":2659},{""page_index"":36,""viewing_time"":3496},{""page_index"":37,""viewing_time"":806},{""page_index"":36,""viewing_time"":336},{""page_index"":37,""viewing_time"":2426},{""page_index"":38,""viewing_time"":267},{""page_index"":37,""viewing_time"":197},{""page_index"":36,""viewing_time"":345},{""page_index"":37,""viewing_time"":196},{""page_index"":36,""viewing_time"":211},{""page_index"":37,""viewing_time"":115},{""page_index"":38,""viewing_time"":815},{""page_index"":37,""viewing_time"":220},{""page_index"":38,""viewing_time"":189},{""page_index"":39,""viewing_time"":3917},{""page_index"":40,""viewing_time"":753},{""page_index"":39,""viewing_time"":211},{""page_index"":40,""viewing_time"":743},{""page_index"":39,""viewing_time"":1108},{""page_index"":40,""viewing_time"":367},{""page_index"":39,""viewing_time"":274},{""page_index"":40,""viewing_time"":294},{""page_index"":41,""viewing_time"":1360},{""page_index"":42,""viewing_time"":1878},{""page_index"":43,""viewing_time"":885},{""page_index"":42,""viewing_time"":307},{""page_index"":43,""viewing_time"":1844},{""page_index"":44,""viewing_time"":511},{""page_index"":43,""viewing_time"":4354},{""page_index"":44,""viewing_time"":3513},{""page_index"":45,""viewing_time"":1001},{""page_index"":44,""viewing_time"":331},{""page_index"":45,""viewing_time"":834},{""page_index"":44,""viewing_time"":224},{""page_index"":43,""viewing_time"":304},{""page_index"":44,""viewing_time"":249},{""page_index"":45,""viewing_time"":1296},{""page_index"":46,""viewing_time"":701},{""page_index"":47,""viewing_time"":1700},{""page_index"":48,""viewing_time"":565},{""page_index"":49,""viewing_time"":1967},{""page_index"":50,""viewing_time"":743},{""page_index"":51,""viewing_time"":407}]","103775","","","","","","","","","",""
"","instructions","9","133392","0.0-9.0","","","","","","","","","","","","","","","","","[{""page_index"":0,""viewing_time"":6384}]","6384","","","","","","","","","",""
"","preload","10","134606","0.0-10.0","","","","","","","","","","","","true","false","[]","[]","[]","","","","","","","","","","","",""
"","image-keyboard-response","11","139634","0.0-11.0","","","","","","","","","","","","","","","","","","5027","tutorial/p_reduce/task_familiarization_images/part 1/01_N160_K90_cliqueRight_question1.PNG"," ","","","","","","","",""
"","image-keyboard-response","12","141129","0.0-12.0","","","","","","","","","","","","","","","","","","1493","tutorial/p_reduce/task_familiarization_images/part 1/02_N160_K90_cliqueRight_question2.PNG"," ","","","","","","","",""
"","image-keyboard-response","13","145279","0.0-13.0","","","","","","","","","","","","","","","","","","4149","tutorial/p_reduce/task_familiarization_images/part 1/03_N160_K90_cliqueRight_question3.PNG","arrowright","","","","","","","",""
"","image-keyboard-response","14","147456","0.0-14.0","","","","","","","","","","","","","","","","","","2175","tutorial/p_reduce/task_familiarization_images/part 1/04_N160_K90_cliqueRight_solution.PNG"," ","","","","","","","",""
"","image-keyboard-response","15","149120","0.0-15.0","","","","","","","","","","","","","","","","","","1662","tutorial/p_reduce/task_familiarization_images/part 1/05_N160_K65_cliqueRight_question1.PNG"," ","","","","","","","",""
"","image-keyboard-response","16","149577","0.0-16.0","","","","","","","","","","","","","","","","","","455","tutorial/p_reduce/task_familiarization_images/part 1/06_N160_K65_cliqueRight_question2.PNG"," ","","","","","","","",""
"","image-keyboard-response","17","150373","0.0-17.0","","","","","","","","","","","","","","","","","","795","tutorial/p_reduce/task_familiarization_images/part 1/07_N160_K65_cliqueRight_question3.PNG","arrowright","","","","","","","",""
"","image-keyboard-response","18","151721","0.0-18.0","","","","","","","","","","","","","","","","","","1345","tutorial/p_reduce/task_familiarization_images/part 1/08_N160_K65_cliqueRight_solution.PNG"," ","","","","","","","",""
"","image-keyboard-response","19","153650","0.0-19.0","","","","","","","","","","","","","","","","","","1928","tutorial/p_reduce/task_familiarization_images/part 1/09_N160_K50_cliqueLeft_question1.PNG"," ","","","","","","","",""
"","image-keyboard-response","20","155253","0.0-20.0","","","","","","","","","","","","","","","","","","1601","tutorial/p_reduce/task_familiarization_images/part 1/10_N160_K50_cliqueLeft_question2.PNG"," ","","","","","","","",""
"","image-keyboard-response","21","155959","0.0-21.0","","","","","","","","","","","","","","","","","","703","tutorial/p_reduce/task_familiarization_images/part 1/11_N160_K50_cliqueLeft_question3.PNG","arrowleft","","","","","","","",""
"","image-keyboard-response","22","156810","0.0-22.0","","","","","","","","","","","","","","","","","","850","tutorial/p_reduce/task_familiarization_images/part 1/12_N160_K50_cliqueLeft_solution.PNG"," ","","","","","","","",""
"","image-keyboard-response","23","157628","0.0-23.0","","","","","","","","","","","","","","","","","","817","tutorial/p_reduce/task_familiarization_images/part 1/13_N160_K80_cliqueLeft_question1.PNG"," ","","","","","","","",""
"","image-keyboard-response","24","157906","0.0-24.0","","","","","","","","","","","","","","","","","","276","tutorial/p_reduce/task_familiarization_images/part 1/14_N160_K80_cliqueLeft_question2.PNG"," ","","","","","","","",""
"","image-keyboard-response","25","158794","0.0-25.0","","","","","","","","","","","","","","","","","","887","tutorial/p_reduce/task_familiarization_images/part 1/15_N160_K80_cliqueLeft_question3.PNG","arrowleft","","","","","","","",""
"","image-keyboard-response","26","159107","0.0-26.0","","","","","","","","","","","","","","","","","","312","tutorial/p_reduce/task_familiarization_images/part 1/16_N160_K80_cliqueLeft_solution.PNG"," ","","","","","","","",""
"","image-keyboard-response","27","159356","0.0-27.0","","","","","","","","","","","","","","","","","","248","tutorial/p_reduce/task_familiarization_images/part 1/17_N160_K40_cliqueRight_question1.PNG"," ","","","","","","","",""
"","image-keyboard-response","28","159568","0.0-28.0","","","","","","","","","","","","","","","","","","212","tutorial/p_reduce/task_familiarization_images/part 1/18_N160_K40_cliqueRight_question2.PNG"," ","","","","","","","",""
"","image-keyboard-response","29","161411","0.0-29.0","","","","","","","","","","","","","","","","","","1840","tutorial/p_reduce/task_familiarization_images/part 1/19_N160_K40_cliqueRight_question3.PNG","arrowleft","","","","","","","",""
"","image-keyboard-response","30","163015","0.0-30.0","","","","","","","","","","","","","","","","","","1602","tutorial/p_reduce/task_familiarization_images/part 1/20_N160_K40_cliqueRight_solution.PNG"," ","","","","","","","",""
"","image-keyboard-response","31","163309","0.0-31.0","","","","","","","","","","","","","","","","","","293","tutorial/p_reduce/task_familiarization_images/part 1/21_N160_K70_cliqueLeft_question1.PNG"," ","","","","","","","",""
"","image-keyboard-response","32","163587","0.0-32.0","","","","","","","","","","","","","","","","","","275","tutorial/p_reduce/task_familiarization_images/part 1/22_N160_K70_cliqueLeft_question2.PNG"," ","","","","","","","",""
"","image-keyboard-response","33","164296","0.0-33.0","","","","","","","","","","","","","","","","","","708","tutorial/p_reduce/task_familiarization_images/part 1/23_N160_K70_cliqueLeft_question3.PNG","arrowleft","","","","","","","",""
"","image-keyboard-response","34","164929","0.0-34.0","","","","","","","","","","","","","","","","","","631","tutorial/p_reduce/task_familiarization_images/part 1/24_N160_K70_cliqueLeft_solution.PNG"," ","","","","","","","",""
"","preload","35","165766","0.0-35.0","","","","","","","","","","","","true","false","[]","[]","[]","","","","","","","","","","","",""
"","image-keyboard-response","36","170397","0.0-36.0","","","","","","","","","","","","","","","","","","4629","tutorial/p_reduce/task_familiarization_images/part 2/01_N160_K80_cliqueLeft_withFeedback_1.PNG"," ","","","","","","","",""
"","image-keyboard-response","37","171295","0.0-37.0","","","","","","","","","","","","","","","","","","897","tutorial/p_reduce/task_familiarization_images/part 2/02_N160_K80_cliqueLeft_withFeedback_2.PNG"," ","","","","","","","",""
"","image-keyboard-response","38","171744","0.0-38.0","","","","","","","","","","","","","","","","","","448","tutorial/p_reduce/task_familiarization_images/part 2/03_N160_K80_cliqueLeft_withFeedback_3.PNG","arrowleft","","","","","","","",""
"","image-keyboard-response","39","172639","0.0-39.0","","","","","","","","","","","","","","","","","","894","tutorial/p_reduce/task_familiarization_images/part 2/04_N160_K80_cliqueLeft_withFeedback_correct.PNG"," ","","","","","","","",""
"","image-keyboard-response","40","173259","0.0-40.0","","","","","","","","","","","","","","","","","","618","tutorial/p_reduce/task_familiarization_images/part 2/05_N160_K55_cliqueRight_withFeedback_1.PNG"," ","","","","","","","",""
"","image-keyboard-response","41","173582","0.0-41.0","","","","","","","","","","","","","","","","","","321","tutorial/p_reduce/task_familiarization_images/part 2/06_N160_K55_cliqueRight_withFeedback_2.PNG"," ","","","","","","","",""
"","image-keyboard-response","42","174064","0.0-42.0","","","","","","","","","","","","","","","","","","481","tutorial/p_reduce/task_familiarization_images/part 2/07_N160_K55_cliqueRight_withFeedback_3.PNG","arrowright","","","","","","","",""
"","image-keyboard-response","43","174703","0.0-43.0","","","","","","","","","","","","","","","","","","638","tutorial/p_reduce/task_familiarization_images/part 2/08_N160_K55_cliqueRight_withFeedback_correct.PNG"," ","","","","","","","",""
"","image-keyboard-response","44","175029","0.0-44.0","","","","","","","","","","","","","","","","","","325","tutorial/p_reduce/task_familiarization_images/part 2/09_N160_K70_cliqueLeft_withFeedback_1.PNG"," ","","","","","","","",""
"","image-keyboard-response","45","175269","0.0-45.0","","","","","","","","","","","","","","","","","","239","tutorial/p_reduce/task_familiarization_images/part 2/10_N160_K70_cliqueLeft_withFeedback_2.PNG"," ","","","","","","","",""
"","image-keyboard-response","46","175738","0.0-46.0","","","","","","","","","","","","","","","","","","467","tutorial/p_reduce/task_familiarization_images/part 2/11_N160_K70_cliqueLeft_withFeedback_3.PNG","arrowleft","","","","","","","",""
"","image-keyboard-response","47","176122","0.0-47.0","","","","","","","","","","","","","","","","","","383","tutorial/p_reduce/task_familiarization_images/part 2/12_N160_K70_cliqueLeft_withFeedback_correct.PNG"," ","","","","","","","",""
"","preload","48","176484","0.0-48.0","","","","","","","","","","","","true","false","[]","[]","[]","","","","","","","","","","","",""
"","instructions","49","201507","0.0-49.0","","","","","","","","","","","","","","","","","[{""page_index"":0,""viewing_time"":25022}]","25022","","","","","","","","","",""
"","fullscreen","50","206275","0.0-51.0","","","","","","","","","","","","true","","","","","","","","","","","","","","","",""
"","canvas-keyboard-response","51","208700","0.0-52.0-0.0-0.0","","","","","","","","","","","","","","","","","","2374",""," ","[443,143,493,323,319,313,515,467,37,479,379,487,471,513,272,415,444,4,71,590,225,38,211,215,501,387,67,270,255,504,331,223,470,74,107,329,178,144,189,398,75,81,147,545,412,450,392,1,115,430,340,380,260,268,442,434,368,303,519,235,8,514,472,574,20,288,210,338,186,562,572,586,438,346,284,65,214,52,560,320,168,290,432,230,15,86,547,427,258,525,30,163,569,100,448,382,154,240,341,176,267,595,388,369,332,594,59,528,5,549,34,376,45,316,39,506,575,77,246,298,174,120,317,386,35,321,456,480,366,200,293,343,155,308,102,421,250,550,117,123,130,582,296,314,159,146,447,481,374,135,94,278,407,494,394,160,158,68,101,425,41,166,289,518,199,197,408,183,254,251,533,42,262,299,87,263,48,475,468,449,413,295,476,198,579,309,116,364,256,561,327,162,80,119,571,226,396,552,216,60,170,461,397,248,354,409,534,44,517,112,401,370,507,306,145,490,76,414,169,238,390,304,161,491,428,464,360,280,10,58,499,457,31,207,190,599,66,264,307,312,83,261,21,93,90,362,206,98,452,285,439,371,395,142,23,535,495,61,127,356,32,372,228,274,18,191,554,482,500,54,229,257,27,224,566,297,212,84,245,540,203,49,355,82,429,12,57,347,589,559,583,403,241,64,97,194,473,539,222,205,182,131,259,373,508,385,252,22,109,301,503,532,592,377,542,243,286,318,523,581,588,153,383,436,548,175,294,454,17,218,16,217,310,477,85,139,496,389,62,184,89,393,213,384,111,596,597,367,164,148,431,152,122,350,530,106,33,520,522,150,353,326,502,234,488,209,233,567,359,121,484,9,72,202,557,283,7,333,474,440,315,486,365,105,276,483,156,55,426,458,404,271,129,231,177,14,419,103,220,126,345,598,399,165,527,188,563,43,551,13,511,24,465,459,221,51,348,273,227,232,275,460,416,453,124,558,446,363,524,133,138,253,70,352,510,375,466,108,53,118,242,573,208,577,249,402,578,29,277,134,411,79,435,104,128,400,417,132,91,521,204,193,489,311,192,585,237,236,195,300,110,536,36,328,281,330,88,433,570,334,516,531,441,351,180,6,424,339,546,485,553,344,509,492,167,512,591,151,455,279,305,78,544,266,3,565,505,265,247,73,179,405,196,19,543,324,269,157,185,239,292,580,40,11,555,357,451,287,149,349,584,56,564,337,172,201,593,526,538,568,282,498,47,463,529,361,478,69,406,335,342,140,445,497,244,336,26,291,95,462,378,422,469,137,141,181,25,322,173,99,302,219,136,358,423,63,381,50,576,418,187,28,114,113,125,420,96,537,556,46,541,587,437,410,2,0,171,391,92,325]","arrowleft","0","0","180","600","[""0065_N0600_K0180_CLIQUE"",""0096_N0600_K0180_NOCLIQUE""]",""
"","audio-keyboard-response","52","209811","0.0-52.0-0.0-1.0","","","","","","","","","","","","","","","","","","null","audio_feedback/shuffles/shuffle01.mp3","null","","","0","0","180","600","[""0065_N0600_K0180_CLIQUE"",""0096_N0600_K0180_NOCLIQUE""]",""
"","canvas-keyboard-response","53","210840","0.0-52.1-0.1-0.1","","","","","","","","","","","","","","","","","","978",""," ","[400,558,291,353,125,384,180,165,389,166,127,273,595,566,310,6,249,391,59,430,146,411,397,284,513,477,530,468,336,329,43,339,422,313,215,320,285,377,529,19,84,278,498,556,479,361,97,423,355,16,454,547,150,2,489,302,473,186,170,227,292,120,42,464,308,173,39,499,151,271,10,276,456,41,584,378,351,255,443,503,228,178,167,509,79,15,295,578,148,203,242,386,487,500,133,576,586,549,491,288,447,128,50,390,401,40,231,254,387,494,3,577,466,546,220,396,449,226,44,486,304,241,579,219,201,505,139,583,238,66,239,519,596,362,140,196,512,369,134,364,349,262,144,380,567,413,520,94,31,91,347,261,286,87,465,48,471,452,204,419,257,198,252,162,22,57,561,126,99,539,256,161,475,306,365,372,51,294,141,193,527,405,121,483,460,168,96,543,474,568,354,472,38,469,436,182,258,210,572,321,45,492,470,293,108,335,298,248,132,243,437,122,394,418,314,229,569,450,299,53,70,263,24,410,297,117,359,46,531,439,83,237,528,536,68,280,515,363,197,234,433,311,28,564,316,453,352,356,47,214,7,153,154,177,265,225,8,318,89,76,303,330,145,376,149,14,553,29,383,478,379,156,71,350,538,445,17,275,343,550,502,485,72,277,155,548,374,305,143,266,100,301,102,518,482,1,268,554,590,545,129,52,532,426,571,597,458,101,86,26,209,375,164,517,440,281,289,75,563,342,138,570,107,235,506,540,62,409,484,78,118,222,516,393,438,230,67,216,34,205,35,223,233,338,116,403,385,236,92,73,593,592,462,325,404,565,559,105,69,189,55,589,195,208,501,417,58,416,290,448,591,552,111,13,524,555,428,274,33,300,340,95,537,337,427,599,172,244,123,269,457,348,270,360,82,319,441,119,217,587,312,174,322,36,315,585,185,142,93,18,245,373,412,25,455,407,157,287,526,562,598,497,27,357,113,109,192,368,510,159,64,247,106,341,326,131,147,77,60,207,191,573,323,432,327,279,381,459,282,522,23,199,493,581,65,158,232,21,344,481,582,202,388,250,213,49,80,296,112,283,551,580,85,88,480,37,260,507,56,9,358,514,525,429,32,463,309,467,136,259,160,333,574,371,451,63,557,431,511,435,187,442,334,169,446,345,588,5,382,399,152,541,181,424,392,328,495,20,246,331,367,184,324,444,240,523,370,332,30,521,476,402,137,496,461,176,224,307,560,0,594,11,135,406,194,163,206,317,366,190,115,61,414,415,398,508,534,488,98,54,211,103,535,504,175,425,124,542,490,221,4,408,253,104,421,267,183,188,544,81,90,264,420,12,346,212,575,395,114,110,434,272,218,251,74,533,179,200,171,130]","arrowleft","0","0","180","600","[""0065_N0600_K0180_CLIQUE"",""0096_N0600_K0180_NOCLIQUE""]",""
"","audio-keyboard-response","54","211923","0.0-52.1-0.1-1.1","","","","","","","","","","","","","","","","","","null","audio_feedback/shuffles/shuffle01.mp3","null","","","0","0","180","600","[""0065_N0600_K0180_CLIQUE"",""0096_N0600_K0180_NOCLIQUE""]",""
"","canvas-keyboard-response","55","212006","0.0-52.2-0.2-0.2","","","","","","","","","","","","","","","","","","38",""," ","[177,384,438,237,232,106,537,86,184,284,523,566,320,43,426,19,486,522,480,164,377,502,60,273,507,279,458,85,538,50,74,423,159,444,482,278,359,114,393,234,229,63,107,315,276,388,305,101,469,307,93,75,301,28,18,360,296,479,580,244,373,124,453,174,583,330,290,318,81,20,155,462,422,213,341,15,265,119,551,579,390,435,358,556,490,207,577,500,1,380,343,104,336,192,408,162,351,144,300,45,414,37,501,89,381,2,574,249,40,326,396,193,489,387,474,488,508,520,211,189,529,103,372,209,216,587,564,122,461,80,188,338,322,585,553,355,201,311,98,77,526,456,348,557,200,495,401,21,132,161,53,533,118,142,310,494,228,129,323,262,58,427,346,260,370,3,183,550,270,460,324,419,454,158,578,59,406,277,347,478,308,72,176,517,382,203,199,567,313,317,87,272,468,190,285,464,481,563,437,197,130,78,575,55,54,27,452,222,10,263,293,392,0,434,147,540,555,448,331,399,403,208,259,584,518,286,511,217,559,168,328,14,64,562,365,598,198,503,289,525,473,224,175,109,446,595,48,7,33,554,79,252,38,475,150,280,133,44,180,512,352,565,145,581,591,548,431,552,530,29,206,425,288,171,223,467,141,312,519,26,397,254,477,135,439,394,513,493,412,113,127,143,569,31,151,84,117,9,215,239,17,251,417,242,115,246,400,169,92,498,136,148,492,112,282,514,582,30,528,459,96,573,374,35,241,166,593,420,418,440,597,436,195,319,342,544,415,11,95,42,116,316,463,71,349,589,185,504,484,543,367,191,497,221,100,111,271,515,274,256,329,6,269,594,535,547,379,62,194,138,363,212,450,267,186,590,82,570,362,225,156,253,568,157,220,572,202,524,510,238,306,70,487,110,230,596,405,281,521,476,154,407,108,465,402,471,275,88,383,561,558,57,442,509,121,140,218,576,76,125,505,599,527,357,457,344,187,137,541,268,178,47,592,391,337,588,258,149,378,255,371,332,248,443,61,257,302,433,167,451,291,245,131,366,94,67,472,534,247,22,134,354,411,283,421,345,491,196,449,214,250,304,424,339,353,243,546,309,532,153,181,303,335,49,542,266,172,73,97,445,369,39,99,163,126,227,36,294,395,409,139,404,410,170,298,91,350,496,152,23,210,385,235,160,340,128,240,356,261,233,4,299,586,428,25,120,236,441,432,334,398,516,66,226,231,368,5,321,571,56,46,205,416,204,146,219,65,314,90,287,539,506,560,83,102,292,69,499,375,34,429,470,179,297,485,386,123,327,41,173,536,325,182,361,8,364,447,549,483,333,32,376,16,264,430,545,455,13,68,52,165,389,466,531,24,105,295,51,12,413]","arrowleft","0","0","180","600","[""0065_N0600_K0180_CLIQUE"",""0096_N0600_K0180_NOCLIQUE""]",""
"","audio-keyboard-response","56","213075","0.0-52.2-0.2-1.2","","","","","","","","","","","","","","","","","","null","audio_feedback/shuffles/shuffle01.mp3","null","","","0","0","180","600","[""0065_N0600_K0180_CLIQUE"",""0096_N0600_K0180_NOCLIQUE""]",""
"","canvas-keyboard-response","57","213212","0.0-52.3-0.3-0.3","","","","","","","","","","","","","","","","","","95",""," ","[486,447,286,216,372,168,370,49,43,396,363,594,593,171,528,546,572,313,346,445,373,45,329,182,498,411,241,479,414,114,239,393,277,415,246,234,320,490,467,462,397,52,191,91,34,188,2,137,142,306,589,494,558,300,101,245,439,463,586,244,134,223,534,541,547,555,424,315,352,217,221,44,236,348,457,81,588,302,509,17,355,354,446,322,485,259,131,333,113,565,4,520,64,324,53,12,33,421,208,199,343,578,420,483,394,517,376,571,257,399,256,281,25,143,507,580,530,408,521,235,123,169,149,407,179,198,311,292,14,218,552,510,6,258,128,60,559,332,136,288,334,423,93,293,566,516,67,129,557,583,450,140,448,308,111,59,428,247,453,318,504,475,417,524,398,71,350,175,526,590,548,344,252,527,491,16,430,458,27,152,339,273,327,77,74,505,243,116,73,124,503,432,493,144,0,596,441,440,464,282,5,280,488,477,200,400,148,392,518,276,515,85,30,121,525,141,161,15,561,550,102,94,269,237,381,70,349,478,180,514,579,371,204,506,41,253,362,563,576,174,319,265,192,489,438,497,11,54,104,543,187,500,57,560,511,22,160,222,487,212,361,8,80,326,18,519,587,157,388,291,110,97,213,135,193,266,32,155,163,86,122,409,443,495,181,303,248,153,513,224,452,170,65,63,20,133,99,117,523,386,139,591,238,309,167,37,13,425,297,556,584,325,412,184,335,532,87,382,536,201,296,570,544,146,551,226,88,194,271,482,3,164,150,338,341,383,345,285,162,492,451,35,172,219,138,154,21,347,360,314,568,126,597,595,82,261,582,98,535,501,159,340,47,365,231,545,454,255,367,56,189,305,108,92,304,272,431,68,176,581,585,316,449,183,197,567,125,442,549,209,472,473,422,48,460,554,242,249,29,127,410,156,531,103,229,465,299,254,147,416,575,375,109,1,28,471,598,310,55,574,118,283,529,391,24,233,353,205,196,427,58,230,268,195,263,202,537,419,214,251,404,384,260,330,225,232,359,31,406,337,366,328,7,436,220,387,444,95,178,61,401,358,522,380,379,459,418,599,50,19,89,165,145,10,211,23,75,210,132,206,573,228,42,484,51,106,538,173,78,395,351,461,294,240,323,186,62,369,512,377,405,100,317,69,278,287,470,592,190,275,112,166,76,312,290,84,96,357,476,227,46,455,270,342,120,119,36,480,72,279,426,569,115,107,26,468,250,390,39,79,356,298,274,331,83,434,577,203,403,368,433,9,38,295,378,496,456,402,466,374,66,289,207,336,264,158,499,364,301,474,262,502,177,105,284,469,321,481,508,435,151,540,553,437,539,185,542,413,130,564,562,429,215,389,267,307,533,90,40,385]","arrowleft","0","0","180","600","[""0065_N0600_K0180_CLIQUE"",""0096_N0600_K0180_NOCLIQUE""]",""
"","audio-keyboard-response","58","214291","0.0-52.3-0.3-1.3","","","","","","","","","","","","","","","","","","null","audio_feedback/shuffles/shuffle01.mp3","null","","","0","0","180","600","[""0065_N0600_K0180_CLIQUE"",""0096_N0600_K0180_NOCLIQUE""]",""
"","canvas-keyboard-response","59","214487","0.0-52.4-0.4-0.4","","","","","","","","","","","","","","","","","","146","","arrowleft","[230,245,553,542,414,264,60,192,308,438,309,522,573,200,96,401,471,515,127,217,544,275,23,259,429,134,360,252,158,31,324,570,546,461,547,153,280,562,50,159,220,84,201,260,86,80,14,598,392,362,271,64,248,90,306,205,202,211,254,276,147,87,73,337,528,122,281,310,380,256,582,476,79,592,565,472,246,304,61,221,333,133,336,278,130,38,326,556,189,481,155,139,381,179,83,37,580,1,298,366,369,584,568,11,597,479,314,91,34,538,415,464,132,213,421,533,327,305,357,253,176,171,270,214,340,16,442,316,22,507,543,422,48,290,15,169,404,569,477,9,65,377,116,514,8,74,536,138,41,599,408,105,596,62,49,243,2,109,30,567,577,548,534,88,370,76,288,363,231,420,111,368,103,403,249,197,339,402,198,287,550,32,222,509,269,435,24,491,374,250,591,446,144,121,307,424,118,102,199,560,595,232,382,106,242,449,75,574,588,6,206,255,294,437,332,175,441,398,554,59,265,540,405,146,210,518,510,478,52,267,321,148,557,459,29,532,579,223,342,394,115,407,559,241,457,497,495,165,520,417,39,113,69,71,92,467,425,521,367,371,108,341,164,13,486,378,572,566,355,529,123,492,500,551,320,219,262,42,325,124,3,185,432,300,523,331,454,485,177,51,578,114,593,480,555,194,128,434,268,19,541,143,581,576,47,85,453,468,70,583,364,372,112,498,413,251,444,98,25,93,57,212,493,494,508,26,297,589,33,5,43,263,184,426,353,391,428,379,135,140,526,63,516,97,535,207,348,469,77,58,455,161,295,162,350,238,488,54,423,412,351,558,12,160,537,20,513,587,430,571,7,196,358,506,225,266,10,81,28,330,53,187,345,293,215,247,237,470,17,525,376,218,439,462,142,299,313,36,531,505,284,233,125,0,154,590,119,296,334,504,352,168,174,386,216,66,460,273,448,141,95,173,315,519,151,27,396,117,234,549,229,323,503,487,447,137,45,338,101,373,384,349,335,82,501,561,344,329,436,388,512,393,190,235,389,502,170,228,236,385,291,257,365,356,346,78,431,163,167,258,458,55,410,107,182,104,585,322,145,172,283,209,244,409,375,286,89,204,575,524,483,399,466,490,390,499,21,224,387,274,68,445,433,539,156,545,292,517,126,94,193,136,484,311,361,178,46,72,183,99,354,456,440,149,35,186,166,318,482,277,239,564,302,383,530,56,475,416,317,343,586,44,129,279,285,563,181,347,450,489,463,427,443,395,282,312,152,195,473,303,261,180,411,465,328,100,511,359,191,272,208,452,227,319,4,188,240,150,397,203,406,451,289,67,474,110,40,226,552,419,301,527,594,496,157,18,120,400,418,131]","arrowleft","0","0","180","600","[""0065_N0600_K0180_CLIQUE"",""0096_N0600_K0180_NOCLIQUE""]","true"
"","audio-keyboard-response","60","215508","0.0-52.4-0.4-1.4","","","","","","","","","","","","","","","","","","null","audio_feedback/right/coin01.mp3","null","","","0","0","180","600","[""0065_N0600_K0180_CLIQUE"",""0096_N0600_K0180_NOCLIQUE""]",""
"","canvas-keyboard-response","61","216122","0.0-53.0-0.0-0.0","","","","","","","","","","","","","","","","","","574",""," ","[285,389,358,557,33,504,332,558,577,142,183,55,29,97,595,124,396,599,136,7,462,457,132,226,262,264,361,222,387,62,34,205,67,98,584,302,197,267,263,186,215,383,318,381,537,420,480,15,574,352,210,83,391,452,110,269,68,453,329,425,258,165,130,275,468,78,578,281,508,144,20,415,10,426,533,434,196,580,585,339,265,474,27,212,330,359,251,127,292,446,35,499,489,360,118,392,363,374,435,125,367,313,576,338,300,172,397,156,58,519,185,548,417,345,473,544,305,575,531,278,42,227,66,478,108,398,56,30,84,334,201,26,327,249,159,377,337,539,106,161,245,162,346,276,90,168,2,306,176,373,543,445,463,158,169,70,192,560,236,336,559,310,427,393,133,507,321,173,588,406,139,103,465,105,530,471,28,177,516,464,295,44,82,366,36,511,326,488,164,512,308,213,502,160,248,513,416,297,193,250,234,284,206,439,469,72,229,547,231,138,582,189,4,282,433,405,411,256,451,288,283,493,289,31,400,492,485,86,129,41,148,286,542,252,114,556,470,317,490,380,243,175,9,303,40,541,461,487,581,220,188,240,194,134,369,526,569,52,116,182,247,117,466,112,429,119,92,223,444,167,459,259,475,570,233,386,362,80,546,590,239,385,399,200,290,54,43,413,22,382,217,395,190,573,421,147,181,107,375,441,273,221,157,246,371,528,195,572,520,45,38,567,566,364,244,509,527,518,25,170,423,372,552,422,184,141,203,341,47,403,354,419,287,279,432,562,32,388,438,202,410,93,450,254,529,208,24,550,436,180,481,100,89,126,350,522,456,102,591,402,340,414,143,298,335,431,525,8,12,455,137,597,534,328,166,564,368,238,424,11,216,553,365,235,325,294,523,545,349,498,449,48,191,146,384,299,353,348,428,253,506,257,75,357,378,123,309,14,230,458,320,408,225,486,563,571,113,324,101,153,260,149,95,23,121,51,344,472,53,270,255,18,6,150,535,291,412,271,331,314,135,409,122,5,356,376,551,69,79,13,447,60,587,120,209,579,77,448,224,312,467,1,510,171,594,65,19,155,49,440,0,218,272,198,351,333,274,152,476,85,598,521,301,592,311,593,460,91,280,46,154,561,497,207,204,407,430,319,583,37,293,500,437,277,316,496,242,589,73,211,554,71,538,296,266,347,63,443,3,549,261,268,479,454,109,532,568,21,404,536,199,81,565,111,241,514,418,586,495,99,517,64,390,482,540,214,39,505,501,57,50,179,343,401,178,342,483,174,232,140,74,94,304,163,503,494,228,128,355,151,524,88,187,307,131,96,484,237,17,315,115,59,16,61,104,477,596,394,379,555,323,442,322,87,76,515,491,145,370,219]","arrowleft","0","1","180","600","[""0024_N0600_K0180_CLIQUE"",""0018_N0600_K0180_NOCLIQUE""]",""
"","audio-keyboard-response","62","217192","0.0-53.0-0.0-1.0","","","","","","","","","","","","","","","","","","null","audio_feedback/shuffles/shuffle01.mp3","null","","","0","1","180","600","[""0024_N0600_K0180_CLIQUE"",""0018_N0600_K0180_NOCLIQUE""]",""
"","canvas-keyboard-response","63","217466","0.0-53.1-0.1-0.1","","","","","","","","","","","","","","","","","","226",""," ","[469,314,151,443,76,154,444,64,599,25,355,115,273,468,53,331,512,312,327,178,160,567,234,36,219,43,23,525,112,21,119,170,252,447,153,382,362,364,451,73,351,82,286,535,41,272,467,126,565,452,486,509,478,214,579,305,182,85,138,269,436,20,267,561,107,243,471,121,582,91,129,373,2,541,537,176,354,410,158,442,401,435,429,39,217,580,361,409,105,400,12,498,263,274,233,367,494,152,516,210,181,276,11,255,424,501,408,473,398,445,472,386,588,187,325,54,523,439,365,495,554,123,303,79,55,592,257,462,239,253,220,300,359,430,330,505,230,320,297,500,101,403,578,28,99,425,262,157,38,458,463,450,4,308,576,585,57,385,60,292,52,350,481,174,167,504,77,538,543,135,577,202,519,488,309,540,186,156,552,175,352,531,86,285,413,106,260,88,440,117,118,301,590,555,317,307,141,485,150,242,482,155,205,560,232,389,227,221,415,163,294,432,89,199,339,268,131,441,493,140,460,98,387,266,518,281,40,568,511,394,547,461,193,34,396,326,591,414,456,379,513,225,211,423,329,584,553,545,581,521,24,593,353,240,29,283,487,556,201,347,514,93,595,371,358,376,90,459,56,533,37,306,337,448,245,212,470,72,59,427,249,103,16,244,293,51,68,169,333,7,336,247,238,369,124,235,570,248,496,349,70,108,197,180,492,226,164,449,110,418,22,345,321,497,96,477,366,95,236,44,17,544,357,206,179,80,388,183,177,454,313,344,296,278,67,476,237,342,546,194,111,109,324,215,190,133,334,31,372,407,480,116,102,114,165,19,125,66,8,127,261,291,136,446,94,146,229,280,586,192,287,571,589,204,573,527,113,50,128,391,58,134,587,542,392,100,188,395,529,270,279,284,422,384,363,530,302,304,69,258,383,598,520,510,289,417,536,13,3,228,256,502,404,277,198,356,548,47,48,341,377,526,75,340,200,464,15,558,457,562,161,259,479,338,92,583,378,575,539,65,420,184,18,250,438,380,299,549,596,453,506,508,209,316,524,162,45,172,5,475,416,1,328,375,370,290,222,137,393,139,490,402,528,97,360,213,381,405,265,348,264,46,559,145,143,332,87,171,437,572,594,315,83,104,10,491,26,489,275,61,223,346,517,597,147,149,474,35,148,322,218,63,159,503,251,566,208,132,33,271,550,343,224,166,62,49,71,319,81,120,74,203,0,42,311,288,30,14,27,318,569,515,411,419,434,557,564,499,534,390,207,310,6,412,144,455,574,368,428,323,522,426,189,246,465,130,9,507,78,433,295,335,32,142,431,173,254,397,241,532,185,298,195,483,122,282,551,406,421,191,84,231,563,216,168,374,484,466,196,399]","arrowleft","0","1","180","600","[""0024_N0600_K0180_CLIQUE"",""0018_N0600_K0180_NOCLIQUE""]",""
"","audio-keyboard-response","64","218536","0.0-53.1-0.1-1.1","","","","","","","","","","","","","","","","","","null","audio_feedback/shuffles/shuffle01.mp3","null","","","0","1","180","600","[""0024_N0600_K0180_CLIQUE"",""0018_N0600_K0180_NOCLIQUE""]",""
"","canvas-keyboard-response","65","218577","0.0-53.2-0.2-0.2","","","","","","","","","","","","","","","","","","1","","arrowleft","[148,434,429,531,57,144,377,483,210,138,51,37,314,238,512,176,198,574,473,563,572,277,216,49,373,79,521,224,229,189,173,547,421,90,44,1,403,433,475,591,412,537,260,465,496,318,146,581,385,384,76,444,513,266,394,334,325,40,491,220,135,559,196,21,503,501,84,111,211,599,359,340,506,95,323,541,558,140,508,127,75,16,363,36,567,157,117,74,254,186,303,449,452,114,566,50,278,283,12,249,414,232,177,582,110,402,256,595,103,9,34,448,180,242,461,404,91,102,206,23,29,489,584,264,202,450,589,73,26,486,85,551,382,522,113,561,415,328,112,399,11,163,149,230,511,395,528,341,576,451,577,588,439,18,240,141,539,379,312,405,83,132,554,311,349,107,15,207,549,583,270,352,308,485,348,199,4,161,221,432,376,181,178,374,540,250,231,142,454,370,596,369,93,306,292,401,35,480,406,108,55,153,419,204,417,208,172,150,523,435,436,443,526,145,88,326,187,197,274,275,570,498,437,315,143,331,14,54,428,550,106,464,493,300,120,507,10,64,466,119,371,133,330,42,287,516,160,497,214,587,562,410,213,445,514,545,248,105,533,353,575,56,191,154,398,159,367,162,3,387,2,92,171,218,534,418,158,383,510,468,345,116,552,179,446,557,535,182,546,174,409,259,482,200,420,426,281,244,469,530,556,265,32,246,0,488,471,156,442,447,365,123,13,500,258,453,237,39,47,233,20,304,313,413,253,358,463,125,45,580,279,24,284,61,586,217,268,147,165,60,542,472,291,294,505,571,524,194,38,299,357,94,502,126,361,243,388,48,152,578,31,104,183,226,59,565,115,458,62,462,223,427,235,381,342,424,543,241,319,124,86,271,192,375,397,478,19,195,257,136,295,269,247,422,28,568,77,219,354,527,184,170,33,346,168,81,487,96,30,203,337,66,408,423,499,129,317,391,167,166,594,560,396,555,333,280,289,532,322,290,316,564,336,459,82,477,368,517,548,245,139,67,288,372,479,553,70,72,58,457,89,5,470,355,71,536,474,416,175,190,598,298,239,400,101,579,122,286,201,585,321,121,267,99,130,520,87,518,364,225,338,302,504,228,347,509,128,390,188,261,53,255,272,109,544,389,332,519,343,494,344,573,222,227,193,360,68,22,438,252,276,134,185,490,169,307,590,515,97,80,597,212,164,425,215,440,492,305,329,309,592,460,100,350,441,320,296,69,378,393,41,63,78,484,43,251,351,380,8,327,151,262,297,98,362,263,430,495,366,65,356,17,431,301,481,392,118,476,46,27,131,467,310,293,282,593,569,273,407,324,25,236,455,529,52,7,137,538,285,386,6,205,335,339,155,456,525,234,411,209]","arrowleft","0","1","180","600","[""0024_N0600_K0180_CLIQUE"",""0018_N0600_K0180_NOCLIQUE""]","true"
"","audio-keyboard-response","66","219604","0.0-53.2-0.2-1.2","","","","","","","","","","","","","","","","","","null","audio_feedback/right/coin01.mp3","null","","","0","1","180","600","[""0024_N0600_K0180_CLIQUE"",""0018_N0600_K0180_NOCLIQUE""]",""
"","canvas-keyboard-response","67","219752","0.0-54.0-0.0-0.0","","","","","","","","","","","","","","","","","","105",""," ","[258,321,96,357,234,551,455,332,508,367,396,409,392,184,486,190,587,242,574,38,313,181,171,33,207,391,474,444,273,380,98,414,206,373,202,306,140,489,69,383,41,165,506,259,15,497,35,212,511,263,134,563,253,102,139,279,79,211,53,56,524,133,20,187,329,435,393,235,567,496,340,215,469,560,576,577,401,21,281,44,167,456,201,249,371,136,30,385,8,589,352,318,227,341,472,19,199,68,445,331,450,185,429,595,218,156,436,6,78,535,141,194,176,145,487,222,354,580,458,276,364,479,103,124,58,73,300,27,228,381,166,168,349,335,238,283,74,347,379,558,594,246,468,104,150,254,312,284,67,582,342,573,135,315,501,152,509,293,301,356,521,404,504,534,90,94,389,91,174,45,57,132,237,448,334,220,454,398,395,493,415,3,105,244,320,553,159,390,127,570,483,122,322,286,229,18,231,129,308,397,579,48,488,196,93,470,154,569,130,532,2,394,236,256,302,24,285,247,544,441,188,280,370,309,529,270,62,446,557,76,466,339,42,369,490,591,36,507,92,494,447,359,548,61,31,376,262,596,82,337,459,108,540,438,28,12,63,449,365,161,248,304,463,336,351,298,272,80,106,17,317,500,593,267,173,252,461,485,432,526,516,412,421,442,204,109,54,542,477,81,162,210,142,26,350,66,467,125,541,153,163,282,420,111,538,209,492,183,564,303,217,89,418,431,233,476,22,261,277,378,119,531,113,77,50,384,193,599,598,366,505,86,110,138,43,536,525,1,257,374,484,386,37,345,588,423,388,453,287,464,195,297,355,177,568,70,514,148,310,426,338,402,481,552,64,121,561,71,4,51,408,11,214,170,232,239,9,581,157,192,14,241,443,292,572,219,324,440,413,87,88,543,126,203,137,539,405,584,65,230,278,52,151,515,375,427,325,323,437,555,32,518,475,400,503,223,23,146,291,128,482,84,311,326,348,425,592,101,172,179,255,260,571,590,5,545,550,0,40,99,274,407,361,495,269,243,410,362,314,411,16,319,358,290,478,566,191,428,430,523,115,147,520,433,197,530,208,265,546,547,377,169,251,143,100,417,471,328,95,399,422,268,295,499,597,112,512,72,75,583,116,537,59,47,164,559,452,29,473,114,562,83,457,271,434,205,245,419,97,49,180,528,522,368,517,382,175,149,55,387,424,123,363,10,460,264,360,144,299,85,451,221,556,198,585,7,549,224,240,189,225,403,330,107,333,578,200,519,294,533,586,327,178,186,158,491,275,416,527,502,575,250,316,216,480,498,120,406,565,307,554,344,353,289,13,462,346,131,343,155,160,60,266,296,118,513,25,39,372,305,46,213,288,182,117,226,510,465,34,439]","arrowleft","0","2","160","600","[""0060_N0600_K0160_CLIQUE"",""0087_N0600_K0160_NOCLIQUE""]",""
"","audio-keyboard-response","68","220840","0.0-54.0-0.0-1.0","","","","","","","","","","","","","","","","","","null","audio_feedback/shuffles/shuffle01.mp3","null","","","0","2","160","600","[""0060_N0600_K0160_CLIQUE"",""0087_N0600_K0160_NOCLIQUE""]",""
"","canvas-keyboard-response","69","221524","0.0-54.1-0.1-0.1","","","","","","","","","","","","","","","","","","640",""," ","[346,282,593,532,401,250,125,178,497,146,259,501,426,159,197,272,526,276,64,296,151,11,326,117,120,432,382,66,580,523,145,538,266,274,566,448,302,506,163,390,366,560,286,505,57,410,243,461,280,265,29,225,398,236,79,318,268,439,254,485,99,184,452,352,203,221,581,528,129,161,173,63,540,585,165,279,586,471,349,131,402,180,133,1,98,348,561,373,132,284,383,102,324,386,420,451,434,310,395,332,435,101,315,539,270,210,257,313,275,211,135,572,226,322,473,472,417,298,553,88,291,292,201,468,416,164,418,375,549,150,214,450,16,334,50,491,149,90,394,476,219,339,20,30,567,232,591,317,307,139,358,126,480,482,235,229,330,425,7,470,306,205,196,242,550,333,534,118,583,554,397,514,114,547,555,494,598,336,378,278,107,218,127,23,194,363,474,244,377,33,403,174,481,213,327,568,134,431,67,504,308,116,22,208,393,212,281,28,571,41,345,141,104,271,35,335,156,301,246,112,251,158,529,195,175,128,321,238,206,467,405,303,76,75,215,26,261,537,231,176,354,0,187,294,599,182,311,148,596,415,400,70,121,469,576,449,14,105,341,237,487,582,287,25,83,429,240,360,267,541,594,252,124,438,85,256,328,590,355,36,183,475,374,353,80,344,584,12,490,9,399,543,391,427,530,297,577,269,160,77,385,444,422,300,69,262,477,408,273,113,462,177,162,171,170,527,404,558,142,351,285,289,249,233,32,510,592,123,46,155,111,154,314,575,458,204,56,424,516,367,372,457,68,192,152,87,207,387,157,8,320,463,21,295,179,260,512,202,58,48,436,342,423,220,106,216,230,3,74,578,542,245,524,264,430,53,43,168,24,546,499,412,190,40,493,144,138,263,188,312,445,94,4,508,447,396,588,31,55,91,198,93,172,371,15,258,392,199,49,167,440,548,255,119,86,299,290,350,464,293,552,460,305,191,433,511,502,589,200,364,419,513,411,369,277,37,185,13,597,166,227,54,557,370,483,535,544,340,381,10,82,569,248,103,559,563,587,18,545,130,564,108,486,453,489,388,384,309,565,59,51,143,253,140,42,78,331,153,459,34,338,517,81,47,241,186,359,455,376,495,519,137,409,84,44,573,39,515,323,181,356,65,503,518,488,209,62,217,498,89,368,72,222,574,442,437,533,380,52,316,522,509,362,283,5,110,406,421,484,234,507,389,595,365,288,456,304,325,115,496,521,357,551,347,570,97,441,92,500,61,329,579,414,223,525,492,407,19,478,531,446,60,136,147,465,228,247,95,319,17,189,38,466,122,96,343,73,193,109,2,100,479,6,562,428,169,379,520,443,239,71,224,45,413,454,337,27,361,556,536]","arrowleft","0","2","160","600","[""0060_N0600_K0160_CLIQUE"",""0087_N0600_K0160_NOCLIQUE""]",""
"","audio-keyboard-response","70","222611","0.0-54.1-0.1-1.1","","","","","","","","","","","","","","","","","","null","audio_feedback/shuffles/shuffle01.mp3","null","","","0","2","160","600","[""0060_N0600_K0160_CLIQUE"",""0087_N0600_K0160_NOCLIQUE""]",""
"","canvas-keyboard-response","71","223150","0.0-54.2-0.2-0.2","","","","","","","","","","","","","","","","","","496","","arrowleft","[57,250,99,83,171,342,235,191,516,511,107,445,307,367,4,291,148,315,143,507,344,76,486,65,432,454,249,199,481,158,395,28,108,144,131,168,469,404,595,114,46,92,167,122,337,2,149,10,42,535,420,129,30,585,567,447,224,313,521,374,135,482,277,435,201,572,159,94,240,137,98,276,51,274,386,251,47,512,262,205,402,444,569,323,408,529,304,9,394,338,596,174,272,21,302,392,14,279,155,5,385,477,336,68,252,56,316,468,290,299,289,532,363,400,66,50,300,322,95,91,458,542,317,563,349,449,93,101,358,255,514,583,196,157,513,533,413,140,506,136,462,33,133,461,89,350,544,471,200,267,247,455,1,286,49,25,234,377,285,225,71,515,239,334,260,236,210,18,242,70,348,411,297,390,269,182,407,359,425,34,576,456,550,591,410,366,31,380,346,387,258,598,437,190,112,166,343,475,493,116,356,226,498,556,246,85,571,495,128,67,23,561,273,40,218,442,537,484,382,170,80,524,551,575,573,443,132,282,424,208,310,103,263,473,141,538,489,421,326,434,427,227,396,327,231,295,35,69,52,321,329,178,565,84,223,175,520,328,372,45,102,588,391,86,284,330,74,73,202,320,177,253,305,61,431,375,499,29,540,397,590,586,553,173,134,355,381,139,298,554,32,436,311,370,523,422,530,188,487,163,256,549,36,541,331,562,169,19,466,151,219,127,212,193,360,222,113,463,147,162,558,369,352,238,580,548,415,245,241,564,161,146,111,119,594,39,361,319,154,186,428,480,185,213,439,266,470,293,79,229,16,528,72,217,574,38,296,478,220,237,82,118,547,339,270,214,508,64,560,7,403,465,587,581,87,165,44,77,215,233,192,451,440,399,353,546,559,97,54,75,309,206,271,389,491,379,409,280,244,221,81,543,589,494,464,78,281,153,181,160,325,292,100,183,104,335,59,48,450,579,488,527,448,301,216,20,417,433,268,37,388,180,426,283,371,60,257,324,126,412,496,340,376,176,209,198,308,398,479,492,125,17,362,555,341,452,505,459,53,545,438,172,63,306,593,577,55,345,207,501,490,41,294,599,502,519,536,27,287,164,264,314,351,405,485,453,518,357,472,429,259,378,534,189,187,96,384,58,373,142,90,441,552,105,416,446,228,406,354,232,117,312,121,525,557,318,150,197,8,22,531,110,365,88,248,332,476,145,130,509,419,288,265,3,368,123,152,504,303,230,204,13,483,460,423,522,184,584,12,26,500,138,109,364,11,566,568,124,510,474,418,62,503,15,195,261,430,156,383,275,517,497,401,115,539,393,179,457,333,347,211,570,578,203,24,43,414,194,106,0,6,120,526,592,278,467,243,597,582,254]","arrowleft","0","2","160","600","[""0060_N0600_K0160_CLIQUE"",""0087_N0600_K0160_NOCLIQUE""]","true"
"","audio-keyboard-response","72","224168","0.0-54.2-0.2-1.2","","","","","","","","","","","","","","","","","","null","audio_feedback/right/coin01.mp3","null","","","0","2","160","600","[""0060_N0600_K0160_CLIQUE"",""0087_N0600_K0160_NOCLIQUE""]",""
"","canvas-keyboard-response","73","224636","0.0-55.0-0.0-0.0","","","","","","","","","","","","","","","","","","427",""," ","[300,425,129,352,89,335,158,421,477,305,133,33,528,314,179,583,61,286,28,306,131,225,6,66,375,558,555,161,542,181,101,235,441,371,156,176,318,438,566,404,313,356,281,490,189,100,232,261,333,151,224,527,97,594,522,63,312,163,269,227,123,243,544,501,520,241,216,105,76,157,180,480,126,519,77,489,576,175,577,398,563,518,4,409,231,84,456,445,134,556,463,355,302,184,250,12,578,137,531,543,315,535,334,263,385,95,124,11,256,412,340,10,268,251,135,580,162,575,2,304,279,285,43,128,505,453,110,218,511,591,301,171,597,357,394,190,377,207,149,410,18,139,494,475,121,562,248,326,369,36,523,29,399,52,482,154,406,478,70,548,590,23,14,507,144,253,197,233,204,199,42,430,54,595,503,488,464,427,586,78,203,223,210,288,283,164,532,476,328,13,275,172,351,226,254,296,350,277,458,112,549,222,118,397,220,148,111,255,91,22,198,145,320,349,344,380,290,418,341,40,370,280,50,317,508,32,599,186,446,259,343,62,249,147,514,332,185,284,34,461,81,386,20,230,82,167,311,491,293,166,87,183,282,215,363,540,244,99,414,592,449,173,37,138,208,142,56,496,103,481,94,209,367,366,396,469,417,537,392,119,570,483,319,170,337,374,407,381,265,402,45,27,307,373,274,309,504,420,195,236,68,569,9,521,364,217,498,140,513,593,512,31,252,15,354,299,411,141,473,327,143,568,451,440,561,436,130,160,85,193,53,177,205,213,389,565,3,214,90,71,467,132,316,408,260,146,401,289,109,524,526,242,588,487,506,416,361,202,114,113,58,1,257,460,539,574,546,19,393,67,169,509,598,395,359,292,125,212,115,324,545,104,585,372,484,424,499,400,384,239,291,383,571,331,353,589,96,447,457,48,122,276,106,41,552,479,267,557,471,572,247,191,272,470,492,538,69,553,26,486,346,560,308,321,153,25,347,102,468,120,345,533,21,536,582,72,88,266,554,35,444,365,474,303,433,298,24,419,294,413,49,405,336,423,30,192,73,322,452,551,515,174,194,472,502,465,310,83,295,117,51,426,229,495,422,297,86,382,240,573,485,360,206,584,432,211,74,65,325,442,517,403,516,64,534,57,150,168,39,258,152,437,200,339,428,178,579,16,429,564,368,547,415,387,182,55,264,136,388,59,237,93,358,329,510,287,44,107,443,450,246,378,596,219,362,431,116,221,98,466,581,330,127,455,376,439,323,497,390,493,338,459,559,530,435,0,75,80,17,155,245,196,47,342,238,46,201,159,165,541,587,454,8,529,434,270,273,187,262,379,228,60,462,5,92,525,108,391,448,7,567,271,188,278,550,348,500,38,234,79]","arrowleft","0","3","160","600","[""0053_N0600_K0160_CLIQUE"",""0007_N0600_K0160_NOCLIQUE""]",""
"","audio-keyboard-response","74","225725","0.0-55.0-0.0-1.0","","","","","","","","","","","","","","","","","","null","audio_feedback/shuffles/shuffle01.mp3","null","","","0","3","160","600","[""0053_N0600_K0160_CLIQUE"",""0007_N0600_K0160_NOCLIQUE""]",""
"","canvas-keyboard-response","75","226227","0.0-55.1-0.1-0.1","","","","","","","","","","","","","","","","","","454",""," ","[552,60,262,538,329,379,554,405,327,458,330,161,549,109,556,295,42,195,226,434,153,62,423,422,324,388,281,594,165,478,242,280,155,72,51,92,183,271,322,348,168,210,412,456,139,446,347,333,551,479,332,532,94,128,206,500,303,151,146,164,20,297,315,535,560,224,426,408,214,241,531,389,351,590,302,162,75,113,61,243,122,141,252,369,355,134,179,277,493,540,218,30,57,204,420,26,66,91,402,440,5,177,112,507,397,328,589,110,200,573,413,564,404,378,67,52,503,114,175,273,432,35,536,571,339,482,48,1,473,508,238,492,147,357,237,353,234,211,140,31,516,505,205,133,142,431,451,197,45,253,326,283,228,305,323,285,104,2,360,400,352,233,411,342,44,213,547,222,286,119,115,3,171,15,396,194,514,574,584,477,131,74,566,522,306,569,310,470,461,466,282,381,436,232,438,559,59,414,95,406,73,143,120,398,524,34,203,476,279,298,9,450,7,117,498,145,101,144,350,488,0,582,27,384,354,12,509,555,47,376,221,455,220,18,96,152,173,202,513,178,543,469,338,169,180,192,386,186,439,418,4,208,424,231,359,429,130,77,349,148,321,523,167,257,191,385,364,519,135,174,570,572,548,90,265,55,591,275,568,37,468,154,459,189,300,407,497,515,138,410,496,102,462,392,331,227,278,212,276,380,264,425,358,546,460,394,365,356,382,517,292,320,159,592,219,527,299,25,150,501,557,132,409,480,421,576,33,54,367,530,158,248,85,528,149,596,595,340,520,239,454,529,441,495,561,199,41,312,10,63,247,287,486,157,268,93,288,207,599,111,107,577,11,565,335,428,36,160,506,484,99,116,103,521,391,366,70,567,269,387,597,553,474,539,313,316,184,437,255,307,182,579,121,6,69,193,291,442,452,457,80,97,245,40,196,87,28,334,578,598,259,118,217,377,24,250,127,172,390,430,244,444,490,403,8,108,445,289,216,464,251,225,29,449,541,588,78,318,453,372,494,346,558,471,575,201,50,215,81,46,341,294,368,106,223,53,270,485,586,433,587,263,58,314,393,254,256,415,401,170,126,563,336,156,593,76,137,491,274,419,447,317,383,125,100,84,443,502,64,284,39,49,89,79,22,249,124,550,86,583,65,363,98,344,240,266,483,504,82,489,311,487,435,23,88,585,13,581,258,38,362,337,463,374,526,267,43,343,16,511,534,580,181,21,417,14,260,176,499,19,129,319,533,345,395,537,32,209,416,290,562,17,261,371,187,544,370,427,71,510,525,301,296,185,163,375,545,309,518,481,198,399,325,230,190,83,304,188,229,373,166,105,56,448,246,235,542,272,236,467,293,308,123,136,361,465,68,512,475,472]","arrowleft","0","3","160","600","[""0053_N0600_K0160_CLIQUE"",""0007_N0600_K0160_NOCLIQUE""]",""
"","audio-keyboard-response","76","227304","0.0-55.1-0.1-1.1","","","","","","","","","","","","","","","","","","null","audio_feedback/shuffles/shuffle01.mp3","null","","","0","3","160","600","[""0053_N0600_K0160_CLIQUE"",""0007_N0600_K0160_NOCLIQUE""]",""
"","canvas-keyboard-response","77","227842","0.0-55.2-0.2-0.2","","","","","","","","","","","","","","","","","","496","","arrowleft","[198,177,531,178,516,570,71,477,363,397,295,205,174,163,382,180,448,259,82,210,213,234,185,392,45,150,443,584,458,11,170,386,446,255,423,225,331,235,146,414,34,563,246,412,195,46,352,330,568,405,281,262,296,366,379,533,451,332,111,44,58,551,53,427,578,429,432,501,107,311,154,238,49,539,14,263,325,56,236,347,459,512,420,211,136,50,61,377,389,502,173,520,317,88,514,293,2,19,224,341,28,590,66,326,196,318,473,268,576,119,261,99,172,144,521,365,391,388,120,126,87,137,124,199,315,445,573,447,422,324,165,398,460,402,577,581,513,73,232,475,291,308,41,100,558,408,348,356,114,303,438,215,151,30,437,591,125,273,253,470,471,102,441,592,116,181,257,456,500,193,25,112,565,290,393,159,358,464,466,507,546,223,476,106,307,525,292,411,462,497,153,4,376,467,270,450,110,60,7,3,191,97,160,479,55,109,128,93,542,15,221,218,593,200,237,353,486,267,37,138,147,323,541,575,483,139,76,580,572,31,141,118,206,305,286,354,425,132,166,503,529,256,67,208,219,401,381,63,522,242,69,297,187,276,271,33,530,478,588,247,167,52,457,362,266,540,595,94,79,42,430,384,494,96,598,338,250,556,548,169,306,554,453,493,566,277,299,394,390,10,216,275,1,334,417,105,272,496,38,279,12,78,148,346,158,333,409,26,547,424,454,289,337,217,284,510,32,98,260,361,86,560,329,301,77,442,64,252,536,254,202,312,192,480,431,300,43,535,288,574,278,474,561,371,89,490,145,351,488,287,24,101,152,130,265,186,248,36,455,469,121,355,518,243,485,156,164,527,532,39,426,587,416,35,48,269,207,342,222,47,175,599,596,57,534,328,385,407,314,436,91,406,403,586,129,345,579,113,415,562,190,168,428,92,419,204,233,21,553,309,582,228,372,594,194,545,400,461,135,302,517,179,526,322,258,495,5,176,142,131,239,0,506,589,90,117,481,62,350,519,249,214,444,16,127,149,188,336,298,489,569,487,463,283,555,171,538,321,482,59,133,220,23,585,564,201,65,85,104,515,157,22,80,140,439,465,197,583,544,294,134,498,95,468,280,528,161,244,339,17,122,499,245,226,343,491,433,70,523,549,374,492,484,418,183,434,399,413,435,383,316,357,251,452,319,349,335,27,543,559,440,404,524,6,395,40,508,597,504,550,313,380,320,9,81,373,230,368,359,241,29,421,108,511,567,212,264,387,378,115,364,327,571,103,75,552,203,20,340,344,8,231,367,396,285,84,51,83,189,72,505,229,472,449,162,18,375,13,123,155,274,410,143,304,184,557,509,537,370,68,74,182,360,369,54,227,282,240,209,310]","arrowleft","0","3","160","600","[""0053_N0600_K0160_CLIQUE"",""0007_N0600_K0160_NOCLIQUE""]","true"
"","audio-keyboard-response","78","228861","0.0-55.2-0.2-1.2","","","","","","","","","","","","","","","","","","null","audio_feedback/right/coin01.mp3","null","","","0","3","160","600","[""0053_N0600_K0160_CLIQUE"",""0007_N0600_K0160_NOCLIQUE""]",""
"","canvas-keyboard-response","79","231294","0.0-56.0-0.0-0.0","","","","","","","","","","","","","","","","","","2381",""," ","[326,49,388,219,50,458,131,504,301,366,31,590,481,93,599,509,437,185,368,362,217,479,545,523,444,30,166,551,352,73,1,182,486,374,511,546,520,456,337,84,42,299,519,433,561,565,331,484,150,296,223,379,588,375,373,35,253,571,503,452,425,87,228,560,466,33,248,116,514,552,270,508,359,496,163,530,583,63,243,554,21,59,7,376,562,286,595,436,44,310,327,161,506,145,152,169,0,132,46,153,66,244,564,218,547,563,177,241,275,412,83,274,19,351,305,101,365,421,41,172,28,207,220,268,98,528,156,117,205,462,332,512,518,67,491,124,438,265,167,423,534,17,422,485,147,321,249,259,424,148,119,339,58,38,476,584,389,88,494,463,586,9,115,402,121,450,287,120,135,300,501,570,80,505,175,357,122,543,482,106,3,52,69,176,118,328,395,151,497,354,238,211,97,525,490,200,347,79,82,549,333,556,76,343,111,303,140,14,399,308,576,292,229,284,349,469,428,536,113,472,100,255,86,215,195,574,582,558,18,105,475,225,192,557,592,173,499,350,199,430,414,189,143,355,391,567,459,390,531,550,198,568,278,95,507,580,381,316,435,281,405,183,23,535,210,465,493,146,304,587,439,306,250,489,407,324,566,269,342,403,204,394,92,502,258,276,367,340,240,540,181,40,162,133,37,191,594,291,209,307,16,309,103,541,273,283,579,2,449,91,112,555,578,417,26,11,382,446,404,413,329,378,208,233,470,61,159,589,495,453,529,89,392,184,539,325,10,127,193,440,377,194,320,271,251,160,186,498,74,593,401,338,70,214,500,216,442,51,411,236,461,245,386,445,6,573,264,408,230,457,289,43,130,468,171,369,521,222,471,416,179,314,81,418,358,516,447,548,64,293,109,32,78,361,239,237,427,315,15,323,312,75,591,415,272,203,53,29,348,542,341,581,313,202,370,288,431,319,344,47,559,235,149,544,597,188,4,487,62,65,311,254,155,125,85,261,247,420,448,372,356,429,54,45,110,154,170,260,488,226,285,492,400,279,537,206,575,104,213,295,24,515,277,569,212,180,114,142,553,513,123,138,12,522,538,234,451,242,517,406,221,158,99,396,5,157,409,363,68,129,96,318,419,317,256,77,232,510,524,187,336,460,464,474,353,90,434,144,201,478,178,55,380,224,526,455,330,397,174,393,577,335,385,532,262,533,398,467,298,371,282,168,266,246,297,137,27,227,102,384,364,165,126,290,263,473,257,443,441,107,141,164,410,71,22,572,252,596,94,13,231,387,57,454,527,128,34,197,322,360,280,302,334,477,39,134,483,136,196,190,20,585,36,48,25,480,60,108,432,267,294,345,426,139,598,56,383,8,346,72]","arrowleft","0","4","140","600","[""0065_N0600_K0140_CLIQUE"",""0013_N0600_K0140_NOCLIQUE""]",""
"","audio-keyboard-response","80","232381","0.0-56.0-0.0-1.0","","","","","","","","","","","","","","","","","","null","audio_feedback/shuffles/shuffle01.mp3","null","","","0","4","140","600","[""0065_N0600_K0140_CLIQUE"",""0013_N0600_K0140_NOCLIQUE""]",""
"","canvas-keyboard-response","81","232719","0.0-56.1-0.1-0.1","","","","","","","","","","","","","","","","","","290",""," ","[496,137,82,85,592,268,130,371,458,529,283,466,319,563,570,207,460,315,49,476,241,349,310,314,40,279,217,213,104,486,83,72,564,427,495,174,108,491,62,568,191,518,52,252,7,381,103,345,30,50,505,450,36,203,10,597,342,127,8,385,374,311,194,339,155,58,424,305,24,379,453,469,502,115,182,23,159,97,553,297,124,559,538,232,535,197,87,521,111,51,47,255,29,528,67,188,121,139,366,220,202,398,309,284,449,567,552,69,418,329,506,163,221,324,472,373,96,5,561,199,289,509,566,430,578,434,190,64,554,63,142,275,222,120,312,144,156,594,307,401,66,519,22,170,233,212,152,105,383,464,522,477,537,291,328,122,444,239,158,388,290,117,4,378,299,228,403,593,102,180,166,436,428,446,465,261,454,423,431,293,88,395,162,92,426,387,367,589,43,281,286,497,39,55,181,576,508,547,113,520,0,46,146,282,131,475,534,114,56,437,588,119,455,35,160,77,149,445,34,123,451,399,598,337,294,230,582,247,32,344,101,470,416,278,59,186,512,42,510,333,524,175,145,525,276,358,483,542,269,485,330,573,243,48,211,489,365,369,270,57,433,332,456,13,192,9,316,89,204,271,176,75,38,492,406,168,26,432,393,484,587,459,31,231,421,440,363,569,473,500,93,193,414,150,325,409,557,129,60,132,266,68,546,507,422,562,45,167,523,246,544,392,317,429,513,70,411,487,405,471,313,198,413,390,240,238,183,543,462,14,218,196,571,303,148,452,581,584,229,25,549,224,206,511,61,285,200,590,171,302,517,161,260,256,533,408,555,360,503,80,17,116,37,331,443,262,219,280,20,143,359,257,136,53,12,494,375,74,372,296,407,201,536,94,16,237,140,173,384,498,531,357,540,208,350,397,323,410,169,579,501,187,263,179,412,490,288,250,419,185,147,386,327,1,153,334,134,435,558,526,118,461,376,251,154,79,548,550,482,361,439,267,575,2,504,76,396,368,254,295,264,253,438,586,15,6,415,402,541,90,394,532,86,481,178,364,195,348,242,404,306,596,580,258,209,245,95,308,583,377,215,27,214,346,157,172,321,417,19,227,300,287,189,226,244,493,425,81,574,106,591,234,447,322,539,551,141,448,73,235,110,3,595,577,478,292,389,109,556,249,100,515,391,318,273,468,499,355,225,84,442,370,107,277,320,98,33,530,304,205,351,274,441,480,78,223,44,326,11,301,21,177,248,420,128,516,216,527,353,341,560,336,352,164,340,599,99,112,165,347,457,71,474,335,126,265,572,545,362,125,135,479,463,585,18,210,298,259,338,184,400,41,467,382,380,138,565,133,272,28,65,488,356,354,343,236,54,91,151,514]","arrowleft","0","4","140","600","[""0065_N0600_K0140_CLIQUE"",""0013_N0600_K0140_NOCLIQUE""]",""
"","audio-keyboard-response","82","233789","0.0-56.1-0.1-1.1","","","","","","","","","","","","","","","","","","null","audio_feedback/shuffles/shuffle01.mp3","null","","","0","4","140","600","[""0065_N0600_K0140_CLIQUE"",""0013_N0600_K0140_NOCLIQUE""]",""
"","canvas-keyboard-response","83","234165","0.0-56.2-0.2-0.2","","","","","","","","","","","","","","","","","","323",""," ","[124,333,269,260,64,382,491,254,171,484,47,184,110,511,119,504,487,1,575,360,377,262,402,288,350,464,452,523,480,179,60,41,186,72,236,5,234,349,102,587,557,285,3,566,447,281,257,51,493,475,508,256,556,569,251,162,435,294,554,106,563,468,233,201,25,97,87,524,430,444,520,573,83,159,471,88,174,352,432,502,150,469,532,436,283,196,20,172,215,369,392,455,120,419,273,10,371,121,197,529,305,424,423,373,340,147,109,312,15,69,225,272,329,413,112,535,54,409,165,486,519,134,503,127,387,438,434,415,284,219,416,516,145,52,505,156,0,8,38,321,483,61,495,143,259,474,133,214,213,461,364,164,324,138,111,317,590,209,78,326,512,421,456,354,344,481,542,479,17,22,465,217,189,550,385,539,268,286,142,341,155,398,295,591,552,303,338,161,216,599,74,358,496,316,370,589,92,169,564,149,439,551,534,433,418,388,450,489,2,68,90,287,584,263,332,199,65,192,146,396,309,207,581,485,75,353,460,261,437,36,136,9,153,117,249,280,579,536,315,202,466,335,533,44,545,515,390,443,593,568,190,130,442,362,82,391,597,188,323,546,43,300,588,244,440,406,63,544,525,48,319,160,537,37,101,346,448,227,237,86,470,518,414,363,366,252,279,339,226,205,531,528,183,477,543,125,185,376,313,365,399,116,14,592,351,290,62,405,322,181,139,451,417,175,594,292,356,224,32,378,562,441,462,308,547,56,538,104,128,222,243,527,198,220,429,53,327,49,264,428,320,46,578,241,178,401,247,304,91,45,238,514,478,114,73,277,585,517,246,42,173,540,282,411,565,242,266,431,506,29,530,571,40,223,195,522,490,445,325,425,302,154,299,152,276,98,407,389,337,239,58,34,267,250,113,232,76,541,311,380,289,274,39,21,453,115,94,330,394,208,328,420,395,488,79,307,19,84,374,129,163,306,118,151,132,296,467,265,229,170,446,248,221,96,28,422,93,30,463,501,126,548,497,122,449,211,18,158,310,386,148,509,507,596,381,500,473,361,595,368,228,107,457,204,494,50,167,100,57,384,70,482,103,230,137,359,7,59,408,144,203,278,89,177,375,580,194,293,521,235,549,13,77,99,275,472,574,410,499,105,567,403,560,206,271,355,570,476,187,180,191,168,400,27,141,258,318,157,577,55,498,131,526,255,314,458,426,85,270,31,245,586,80,331,166,301,297,123,404,372,513,140,383,582,572,212,11,193,200,492,334,95,33,555,108,12,510,23,35,182,357,367,583,459,4,379,16,347,26,291,576,561,559,427,298,231,397,240,336,71,67,66,81,253,210,6,553,24,348,412,558,454,135,393,342,343,598,218,176,345]","arrowleft","0","4","140","600","[""0065_N0600_K0140_CLIQUE"",""0013_N0600_K0140_NOCLIQUE""]",""
"","audio-keyboard-response","84","235240","0.0-56.2-0.2-1.2","","","","","","","","","","","","","","","","","","null","audio_feedback/shuffles/shuffle01.mp3","null","","","0","4","140","600","[""0065_N0600_K0140_CLIQUE"",""0013_N0600_K0140_NOCLIQUE""]",""
"","canvas-keyboard-response","85","235990","0.0-56.3-0.3-0.3","","","","","","","","","","","","","","","","","","708",""," ","[74,9,5,421,38,36,315,62,334,308,105,252,520,149,294,577,462,514,504,384,287,104,587,578,566,460,347,259,415,114,129,468,448,480,279,564,126,234,454,47,400,332,532,343,545,241,284,184,57,260,73,203,431,503,498,526,405,401,346,248,430,306,211,410,282,560,204,174,245,307,561,213,13,155,599,359,88,440,387,97,292,428,285,296,511,323,596,196,527,161,481,326,200,156,144,273,393,151,417,388,201,397,199,598,379,288,103,209,115,350,135,271,152,274,119,268,12,93,247,130,348,467,427,483,355,179,286,133,86,178,301,255,586,489,53,540,563,290,270,102,412,517,420,182,167,165,336,31,124,492,11,99,264,319,40,500,163,275,441,568,242,593,6,193,148,83,140,331,374,362,237,436,432,17,281,589,137,435,594,423,506,461,575,398,534,457,109,556,549,538,291,159,342,304,554,254,407,20,507,0,80,94,508,396,223,143,229,330,166,185,559,510,501,357,19,232,90,25,71,278,153,471,584,453,117,376,210,399,438,484,375,51,110,164,583,158,14,585,337,371,439,311,474,244,558,181,456,257,391,580,542,570,7,190,230,528,75,485,571,120,8,65,490,37,277,478,446,425,125,250,411,408,79,433,353,160,351,227,183,195,465,567,141,128,50,552,418,299,262,531,548,89,238,333,466,380,251,491,591,533,177,1,569,582,113,452,139,358,222,339,515,565,450,519,525,429,272,313,208,267,475,424,112,3,134,100,35,522,369,338,187,240,536,215,205,132,121,66,437,224,402,168,368,317,127,218,373,329,198,595,320,61,138,551,24,496,258,52,293,43,555,537,590,30,581,487,543,219,96,588,39,562,472,442,385,529,325,146,33,295,54,502,69,539,197,122,302,85,147,231,45,365,162,76,335,4,150,316,516,497,48,381,243,63,98,364,145,494,473,72,256,372,300,212,390,597,142,434,409,414,239,356,363,512,84,111,544,59,2,318,29,194,233,15,406,246,495,572,235,64,91,444,378,445,56,314,382,92,95,217,309,157,579,344,68,26,360,547,530,592,523,476,352,16,553,220,32,310,175,263,513,228,192,312,451,426,55,266,176,345,280,236,253,70,22,413,458,361,546,10,116,455,60,23,226,289,305,41,463,27,207,386,328,180,46,349,172,49,173,389,34,225,392,383,354,322,403,367,486,78,482,214,377,154,206,459,58,550,469,535,449,108,28,107,106,87,18,189,42,186,77,479,202,477,249,276,283,509,340,303,518,101,327,67,404,261,136,169,447,557,216,191,394,21,395,493,321,118,131,470,269,265,366,298,341,123,170,324,416,499,188,505,171,521,464,573,297,443,576,370,81,82,524,44,422,541,419,221,488,574]","arrowleft","0","4","140","600","[""0065_N0600_K0140_CLIQUE"",""0013_N0600_K0140_NOCLIQUE""]",""
"","audio-keyboard-response","86","237075","0.0-56.3-0.3-1.3","","","","","","","","","","","","","","","","","","null","audio_feedback/shuffles/shuffle01.mp3","null","","","0","4","140","600","[""0065_N0600_K0140_CLIQUE"",""0013_N0600_K0140_NOCLIQUE""]",""
"","canvas-keyboard-response","87","237704","0.0-56.4-0.4-0.4","","","","","","","","","","","","","","","","","","579",""," ","[508,121,599,425,490,182,584,146,54,232,567,197,574,279,172,311,236,257,335,164,307,403,446,22,194,463,370,588,405,201,299,112,464,527,455,271,365,560,143,185,329,93,10,523,103,442,457,563,531,11,283,133,265,343,326,125,40,372,240,256,44,246,591,542,14,465,414,266,118,251,196,116,445,130,162,349,315,551,595,596,558,168,482,571,472,82,255,395,120,526,114,496,432,543,12,548,258,480,438,89,100,539,572,230,92,150,278,303,500,72,151,396,62,180,38,9,501,306,109,517,226,516,573,63,29,35,155,260,358,423,290,16,462,378,110,328,33,587,190,341,294,163,94,518,225,23,124,28,371,408,122,410,312,359,512,579,248,399,161,117,580,57,296,134,220,241,267,578,576,300,106,554,36,86,18,339,586,320,8,494,363,377,167,379,332,287,210,510,556,68,6,492,91,41,529,95,176,489,450,140,413,270,90,593,502,177,309,401,397,460,56,323,344,390,407,440,105,275,559,81,433,561,355,511,237,136,392,534,242,58,208,96,60,123,589,175,77,157,169,421,238,295,202,268,79,211,285,20,475,325,53,317,509,402,400,545,274,30,187,281,598,439,26,386,46,128,375,348,129,541,374,434,127,422,43,0,519,75,530,19,597,198,5,351,259,99,224,340,233,483,478,535,191,406,154,394,221,427,569,98,513,200,7,73,27,570,80,338,369,388,497,452,536,544,528,149,524,354,67,231,350,582,384,347,451,298,453,583,126,592,42,111,247,13,131,144,471,51,437,416,364,137,360,204,448,184,566,135,215,318,538,87,585,525,207,216,292,565,282,553,78,412,495,102,108,458,546,555,387,415,297,227,313,235,213,145,522,253,249,61,366,389,398,308,219,461,474,228,45,590,272,101,179,429,243,83,487,443,55,21,382,547,2,327,418,234,261,540,304,181,115,491,88,466,276,76,193,346,132,158,141,357,514,361,138,223,153,269,310,373,381,322,454,159,484,293,505,183,314,97,568,165,577,435,334,262,212,25,288,506,214,441,342,199,17,488,594,356,205,254,186,156,32,74,192,104,485,521,178,222,411,473,581,376,430,66,4,263,424,477,503,362,367,321,469,420,557,426,336,331,391,64,337,499,520,352,3,70,65,383,324,1,289,515,15,504,380,152,301,385,264,353,316,419,393,507,428,459,493,218,409,280,549,417,404,173,239,291,302,564,160,49,470,84,174,245,476,532,575,148,85,498,244,71,533,113,52,436,206,229,481,284,59,188,217,431,139,37,273,486,550,170,203,447,147,444,467,119,107,479,537,277,456,166,50,250,330,34,47,286,345,449,31,142,333,468,552,368,171,305,189,209,562,252,48,319,24,195,69,39]","arrowleft","0","4","140","600","[""0065_N0600_K0140_CLIQUE"",""0013_N0600_K0140_NOCLIQUE""]",""
"","audio-keyboard-response","88","238783","0.0-56.4-0.4-1.4","","","","","","","","","","","","","","","","","","null","audio_feedback/shuffles/shuffle01.mp3","null","","","0","4","140","600","[""0065_N0600_K0140_CLIQUE"",""0013_N0600_K0140_NOCLIQUE""]",""
"","canvas-keyboard-response","89","238900","0.0-56.5-0.5-0.5","","","","","","","","","","","","","","","","","","78","","arrowleft","[113,339,44,366,438,292,118,251,420,523,333,171,253,503,139,583,509,463,467,121,482,240,353,255,209,191,329,41,266,57,114,383,485,90,406,84,569,59,227,131,273,557,343,135,66,593,247,21,595,248,434,381,424,149,174,365,167,368,160,71,200,565,510,83,232,533,184,300,573,185,456,39,361,458,437,320,594,399,151,8,214,226,543,46,554,33,550,74,132,96,252,304,541,395,64,515,217,328,556,570,140,351,166,421,414,278,24,490,228,370,439,511,448,479,539,60,521,122,120,38,561,560,323,26,596,34,52,89,575,504,145,213,138,211,310,349,318,532,502,54,587,299,86,475,492,48,455,426,153,237,142,481,51,97,396,501,465,360,574,18,287,178,197,431,260,584,527,136,403,394,28,201,173,378,242,193,450,326,330,68,335,563,400,293,549,88,236,182,477,495,506,462,410,452,484,1,303,442,87,19,440,43,256,272,373,367,198,364,418,295,397,290,389,398,137,379,50,445,390,264,233,230,63,13,205,289,220,80,106,404,12,76,522,497,386,296,341,280,325,175,346,585,65,147,348,224,27,37,285,423,69,508,362,597,103,267,470,7,433,98,447,500,474,11,81,544,117,542,417,62,58,327,571,195,525,376,263,95,319,402,154,443,316,3,589,22,530,283,170,430,155,352,577,124,241,551,355,494,112,279,358,567,535,380,555,306,146,486,531,194,150,176,464,222,100,369,91,548,307,308,578,206,231,309,125,568,85,219,192,311,432,586,546,246,297,235,143,56,281,82,476,590,419,336,321,210,78,190,498,162,374,70,517,179,40,385,473,2,4,356,461,250,340,215,435,102,375,104,507,540,225,409,582,94,133,317,411,599,5,538,405,14,161,130,16,284,254,377,537,441,115,271,9,152,322,388,204,259,0,108,518,534,345,499,72,591,564,172,42,427,107,274,516,156,116,592,123,45,128,53,67,371,493,422,566,291,268,202,183,480,177,337,275,334,579,238,55,169,119,111,363,30,199,415,342,249,31,189,269,262,466,164,331,519,408,338,180,218,460,35,453,234,75,127,301,468,36,526,144,288,478,581,315,558,157,449,29,536,553,559,302,223,552,32,344,576,286,79,158,73,10,429,580,457,547,562,428,20,294,528,239,483,545,181,186,261,47,49,512,487,203,354,243,298,471,126,392,357,324,17,454,412,588,384,188,141,282,6,92,314,163,25,416,99,207,168,391,196,212,425,276,382,105,93,148,489,496,221,393,229,277,245,444,401,413,407,23,208,513,488,216,359,134,265,305,491,505,244,350,312,129,270,101,436,61,109,472,572,514,165,469,332,159,15,257,372,258,387,520,313,110,459,524,451,347,187,446,77,529,598]","arrowleft","0","4","140","600","[""0065_N0600_K0140_CLIQUE"",""0013_N0600_K0140_NOCLIQUE""]","true"
"","audio-keyboard-response","90","239912","0.0-56.5-0.5-1.5","","","","","","","","","","","","","","","","","","null","audio_feedback/right/coin01.mp3","null","","","0","4","140","600","[""0065_N0600_K0140_CLIQUE"",""0013_N0600_K0140_NOCLIQUE""]",""
"","canvas-keyboard-response","91","240423","0.0-57.0-0.0-0.0","","","","","","","","","","","","","","","","","","469",""," ","[424,431,184,151,395,311,400,202,592,12,412,484,538,232,244,142,33,496,109,515,271,307,485,391,350,544,325,574,351,472,269,493,181,454,338,366,196,449,176,141,27,300,96,401,543,112,22,293,323,582,444,10,113,519,161,446,90,73,393,156,459,508,372,579,405,386,253,294,224,313,406,23,57,264,558,281,399,578,242,470,207,389,309,228,150,177,332,326,381,93,276,191,377,525,134,274,165,225,331,40,375,595,78,394,195,513,420,416,536,58,104,303,175,368,382,383,168,571,92,542,502,75,190,455,215,241,50,473,415,477,287,549,539,545,263,317,69,541,561,182,208,428,140,70,139,329,363,180,379,468,246,546,336,413,425,122,453,61,102,396,436,235,554,272,226,194,530,257,458,328,116,490,133,270,105,427,319,346,220,24,46,261,333,594,66,362,219,588,212,526,448,354,527,476,193,417,47,520,434,100,147,289,185,155,514,374,157,573,234,197,312,297,266,37,567,186,559,171,296,192,463,457,517,68,127,590,467,64,373,469,482,87,593,7,28,316,251,209,19,411,162,163,282,299,369,555,304,211,532,34,154,149,334,124,152,548,533,210,146,302,433,42,125,278,479,481,569,465,41,292,509,172,471,20,86,564,308,143,488,198,38,464,596,277,239,63,206,275,432,547,85,575,17,388,380,489,522,166,341,483,26,343,290,450,462,95,284,35,16,330,540,587,233,504,474,442,21,397,563,4,570,14,170,67,214,81,529,273,528,114,217,478,52,110,315,318,324,585,60,126,48,535,385,265,148,451,531,0,521,267,384,231,25,408,118,402,255,2,30,56,584,132,387,221,589,216,288,256,295,286,138,130,597,505,119,77,500,456,258,421,572,418,486,237,11,204,591,422,586,249,115,213,285,565,475,537,159,430,262,240,320,97,236,495,137,107,441,94,230,492,409,43,222,404,144,339,443,65,557,6,49,577,378,460,426,62,1,403,39,524,88,31,128,523,99,423,344,491,390,238,435,108,551,131,145,80,480,223,466,169,439,136,120,337,556,8,205,199,498,348,447,560,298,89,583,160,367,452,158,499,51,494,13,345,305,370,507,568,497,201,36,580,178,510,534,487,189,117,183,72,550,280,32,438,252,76,123,599,45,512,3,173,5,310,376,429,327,440,229,79,44,511,84,361,9,437,461,279,506,74,419,503,398,15,103,82,248,164,283,501,18,91,349,98,268,54,174,129,598,291,259,254,245,29,360,342,106,552,153,365,347,200,358,243,247,581,322,518,203,356,306,218,553,352,121,135,187,59,566,371,167,321,188,111,392,353,364,340,101,250,314,407,55,71,83,562,359,301,260,445,410,414,355,357,576,227,516,53,179,335]","arrowright","0","5","140","600","[""0088_N0600_K0140_NOCLIQUE"",""0031_N0600_K0140_CLIQUE""]",""
"","audio-keyboard-response","92","241512","0.0-57.0-0.0-1.0","","","","","","","","","","","","","","","","","","null","audio_feedback/shuffles/shuffle01.mp3","null","","","0","5","140","600","[""0088_N0600_K0140_NOCLIQUE"",""0031_N0600_K0140_CLIQUE""]",""
"","canvas-keyboard-response","93","241798","0.0-57.1-0.1-0.1","","","","","","","","","","","","","","","","","","235",""," ","[488,372,558,570,495,19,46,224,492,368,223,261,482,506,79,136,159,525,380,95,541,501,314,411,499,151,512,271,397,112,252,295,565,524,230,398,436,581,572,331,117,594,53,273,2,137,132,218,80,418,105,57,177,249,74,7,545,229,366,354,409,153,448,538,211,78,124,343,370,527,358,344,92,504,69,378,377,466,556,567,239,225,18,207,563,421,188,43,139,116,355,3,263,133,468,42,39,222,5,286,25,128,237,408,576,227,182,272,562,426,255,453,316,202,29,371,580,82,281,191,521,487,430,577,505,288,40,256,450,47,559,435,414,217,55,243,514,586,101,125,85,44,385,475,234,497,532,489,277,367,561,522,253,424,457,158,323,294,313,145,75,330,396,143,146,588,312,553,64,382,176,529,111,598,24,493,59,404,210,77,490,464,328,500,304,337,508,149,195,347,90,4,22,247,585,548,264,554,437,107,351,36,88,268,531,454,161,477,302,94,449,444,276,442,231,459,248,573,439,325,34,219,511,365,56,390,113,240,340,375,534,345,307,119,130,236,474,332,471,595,232,579,289,244,582,254,178,557,23,417,58,498,320,168,108,241,422,115,549,535,335,114,274,369,157,163,391,21,542,322,16,278,447,87,363,305,259,346,528,141,26,172,97,180,174,510,142,384,550,386,134,165,282,478,564,138,98,154,428,73,360,591,63,203,443,410,388,169,486,50,84,260,583,45,415,41,265,190,175,434,301,122,496,275,83,306,348,400,303,423,201,123,171,393,515,539,192,339,93,481,513,416,357,100,433,451,401,213,96,547,361,38,387,238,575,324,148,419,287,431,362,461,537,342,14,293,185,551,61,571,27,311,338,353,480,31,456,102,12,49,257,160,28,1,310,251,279,327,164,150,590,341,291,17,13,235,109,8,267,68,135,246,118,215,65,121,52,86,270,269,494,189,103,460,204,11,446,37,297,592,462,91,584,6,197,131,30,72,156,438,181,196,578,519,106,333,89,67,216,104,476,568,543,290,518,183,76,484,51,144,187,309,66,228,379,509,392,356,199,403,359,533,214,455,389,589,406,48,0,162,491,552,20,186,209,155,166,502,597,208,284,566,349,99,32,296,120,205,62,221,452,71,285,574,376,292,298,432,540,412,329,280,10,334,440,126,599,242,70,262,441,429,407,129,35,173,315,266,193,200,555,250,503,299,300,110,184,318,483,520,170,465,167,258,147,523,405,463,321,399,473,194,33,308,394,593,198,569,413,15,517,127,427,212,526,445,206,319,560,9,152,245,546,485,350,381,420,81,383,402,467,140,326,179,544,507,469,283,374,530,425,60,516,233,373,336,596,458,220,395,317,54,352,472,364,587,226,470,479,536]","arrowright","0","5","140","600","[""0088_N0600_K0140_NOCLIQUE"",""0031_N0600_K0140_CLIQUE""]",""
"","audio-keyboard-response","94","242878","0.0-57.1-0.1-1.1","","","","","","","","","","","","","","","","","","null","audio_feedback/shuffles/shuffle01.mp3","null","","","0","5","140","600","[""0088_N0600_K0140_NOCLIQUE"",""0031_N0600_K0140_CLIQUE""]",""
"","canvas-keyboard-response","95","242995","0.0-57.2-0.2-0.2","","","","","","","","","","","","","","","","","","74",""," ","[94,40,115,514,184,543,337,381,6,301,105,452,505,127,80,174,97,548,485,470,426,592,39,252,388,437,244,41,313,60,440,218,578,347,496,1,432,266,228,44,195,419,253,520,200,68,478,28,153,402,385,305,567,339,412,375,157,248,366,231,4,52,284,574,100,214,33,187,401,114,251,277,468,232,73,493,8,581,74,87,24,10,71,171,456,538,545,129,281,263,285,190,286,573,510,442,566,202,145,59,166,492,30,525,537,436,367,373,34,134,221,428,521,591,93,334,583,360,78,260,459,416,475,107,491,179,11,316,212,310,487,240,246,161,53,564,445,131,354,178,128,298,398,162,479,579,455,57,108,72,323,135,119,99,118,233,180,88,137,472,540,139,346,22,383,421,225,405,371,319,81,32,126,165,353,386,554,264,387,490,408,249,533,48,458,21,331,75,66,7,210,122,106,497,158,31,504,509,92,14,541,546,536,463,439,594,418,116,296,245,307,338,499,570,435,417,466,359,336,530,250,390,227,181,84,306,413,311,136,322,170,438,19,312,35,299,102,159,62,155,300,186,556,96,553,280,188,302,2,265,203,392,77,599,242,524,422,112,206,104,27,377,37,349,469,576,363,348,372,351,45,198,191,429,173,450,167,91,130,587,448,345,365,460,64,471,462,559,563,259,90,89,552,522,271,304,297,50,256,192,318,427,29,140,185,542,332,358,415,374,397,220,495,36,481,356,467,586,12,512,54,217,276,433,528,399,46,368,287,270,529,95,431,597,557,531,350,25,571,51,211,222,216,257,569,213,13,141,278,55,410,124,380,376,320,291,539,235,420,177,194,317,230,572,480,482,15,434,275,272,446,454,518,273,70,596,56,160,590,516,507,357,101,409,361,424,489,414,364,580,168,69,144,502,451,193,370,239,86,82,551,5,175,243,461,393,83,588,152,352,241,404,169,182,498,16,335,425,282,355,20,527,547,204,149,379,42,18,568,43,508,517,513,142,163,224,330,441,555,577,205,148,503,262,234,226,125,303,290,292,219,562,117,465,400,484,403,67,223,294,23,324,575,258,589,333,38,237,378,395,325,396,3,340,172,196,369,189,132,582,121,201,593,561,329,164,523,269,208,519,109,113,309,453,584,506,511,444,382,327,238,464,411,293,143,295,550,110,344,534,474,494,146,120,236,103,315,532,289,49,288,283,500,488,0,342,423,447,486,111,197,558,76,254,85,65,61,341,473,535,138,526,406,255,560,585,150,47,156,151,279,443,595,58,389,17,384,63,326,9,565,154,407,328,308,199,207,267,549,183,501,247,98,229,123,391,26,268,457,321,215,343,483,176,362,261,598,515,133,274,209,147,394,449,314,430,544,79,477,476]","arrowright","0","5","140","600","[""0088_N0600_K0140_NOCLIQUE"",""0031_N0600_K0140_CLIQUE""]",""
"","audio-keyboard-response","96","244072","0.0-57.2-0.2-1.2","","","","","","","","","","","","","","","","","","null","audio_feedback/shuffles/shuffle01.mp3","null","","","0","5","140","600","[""0088_N0600_K0140_NOCLIQUE"",""0031_N0600_K0140_CLIQUE""]",""
"","canvas-keyboard-response","97","244377","0.0-57.3-0.3-0.3","","","","","","","","","","","","","","","","","","264",""," ","[52,182,274,111,249,316,266,417,467,263,262,494,429,431,521,46,408,599,562,22,362,146,551,142,37,45,468,225,453,350,298,159,507,484,269,162,109,598,291,400,106,463,138,570,511,300,130,212,250,177,365,394,384,43,113,368,283,42,402,503,25,75,209,148,201,246,470,92,190,373,114,259,486,416,409,493,96,55,133,568,372,471,124,343,214,379,223,502,338,232,287,251,231,357,69,218,520,186,67,104,410,307,40,200,115,228,49,324,56,370,361,99,419,526,4,341,389,390,501,17,591,276,452,93,498,215,301,537,363,103,95,480,193,168,371,528,355,154,541,153,5,491,175,197,9,509,238,377,293,268,557,472,180,443,147,63,156,352,383,404,87,255,282,174,328,319,346,318,340,143,349,529,38,553,518,81,374,538,108,76,364,515,490,60,539,552,344,436,85,158,252,90,418,23,2,126,333,30,582,21,398,176,226,351,445,254,339,407,580,535,10,149,325,270,531,505,127,277,397,189,589,481,36,26,19,534,495,185,593,24,272,499,160,310,451,303,458,395,62,27,345,261,285,508,100,82,110,155,548,559,360,134,207,482,533,323,258,117,594,29,248,125,165,424,242,577,483,492,20,441,330,208,447,7,335,403,132,449,256,519,292,500,314,413,118,239,210,527,157,137,253,97,72,221,457,28,84,584,206,145,375,1,178,173,50,179,558,574,440,564,194,405,348,569,596,476,332,479,119,195,354,241,299,560,70,427,98,496,459,592,428,420,280,542,466,161,438,366,80,450,297,54,237,321,66,198,454,446,47,401,473,475,128,8,199,288,53,171,281,376,444,257,465,71,425,236,516,381,89,32,141,166,422,140,312,112,65,18,572,284,442,211,561,326,423,393,196,311,213,247,271,487,399,524,289,432,3,386,203,41,477,88,172,597,192,64,378,220,523,571,347,105,581,306,504,595,91,391,573,184,48,222,31,578,525,317,387,102,163,488,121,295,264,590,167,35,79,353,588,169,536,59,205,44,439,415,474,278,77,202,421,469,151,587,224,6,448,120,129,456,575,101,322,16,434,116,566,337,426,296,327,15,11,136,216,304,305,586,61,58,14,13,107,230,51,86,39,462,204,290,334,514,512,320,308,309,286,336,543,135,382,12,83,554,294,181,547,489,460,380,412,455,139,245,556,217,183,464,315,411,567,585,0,329,414,240,331,170,433,506,73,273,144,549,219,576,544,123,435,517,260,550,233,540,359,34,227,164,532,358,302,555,461,94,342,392,497,57,430,234,131,563,545,367,243,191,530,522,188,68,369,437,565,33,279,229,396,235,275,513,150,388,385,122,187,510,579,546,313,583,406,74,267,244,478,485,356,78,265,152]","arrowright","0","5","140","600","[""0088_N0600_K0140_NOCLIQUE"",""0031_N0600_K0140_CLIQUE""]",""
"","audio-keyboard-response","98","245459","0.0-57.3-0.3-1.3","","","","","","","","","","","","","","","","","","null","audio_feedback/shuffles/shuffle01.mp3","null","","","0","5","140","600","[""0088_N0600_K0140_NOCLIQUE"",""0031_N0600_K0140_CLIQUE""]",""
"","canvas-keyboard-response","99","245994","0.0-57.4-0.4-0.4","","","","","","","","","","","","","","","","","","494","","arrowright","[213,19,265,101,444,99,549,356,376,492,415,4,125,538,169,235,392,461,442,400,314,51,337,512,275,60,153,420,497,83,344,149,488,347,484,271,459,130,432,449,254,281,185,96,136,548,323,160,277,472,242,387,92,339,276,569,5,438,12,177,124,248,80,479,427,378,436,222,416,522,510,573,256,552,297,42,519,304,298,537,489,208,69,269,203,249,516,288,430,71,173,230,206,178,508,118,531,272,335,38,365,293,331,408,121,363,299,407,480,473,70,168,11,30,241,452,23,586,123,394,450,462,329,428,228,257,261,44,426,63,97,294,396,46,303,307,283,470,140,200,309,79,75,258,16,137,319,399,583,209,468,175,312,384,193,183,95,218,163,94,189,116,1,477,560,433,161,353,107,201,176,119,82,476,219,192,500,184,340,593,266,59,350,100,55,395,483,87,148,86,207,359,437,114,316,503,227,31,180,561,72,527,280,2,455,108,93,112,135,466,198,529,143,53,49,244,229,463,247,447,64,26,122,597,6,243,417,486,553,8,264,301,167,311,579,506,32,494,544,490,88,364,295,336,478,150,423,543,85,251,412,315,268,518,502,296,61,237,48,195,154,115,471,589,221,103,253,559,308,422,524,558,210,182,321,133,250,166,421,454,443,199,572,284,598,204,554,45,65,515,375,152,591,355,475,81,147,325,215,562,225,517,15,581,397,158,564,128,542,126,333,525,326,555,505,493,234,89,434,338,320,188,406,577,77,232,343,409,485,341,498,429,390,568,504,78,50,456,439,28,404,354,267,371,368,134,67,187,351,224,348,43,10,217,286,246,17,401,535,196,460,324,513,310,146,305,313,238,9,327,21,98,451,482,132,145,578,3,370,245,300,274,278,7,514,159,540,526,491,546,453,499,317,360,352,68,212,260,571,144,469,386,574,441,563,33,155,467,388,530,62,179,172,551,239,156,287,47,532,389,139,575,151,391,496,556,191,402,328,403,25,104,431,164,424,22,231,0,534,533,377,342,349,566,346,541,66,255,322,194,582,273,374,24,170,13,174,205,418,474,393,379,76,464,102,263,357,539,52,445,521,565,202,190,84,570,545,495,292,369,111,373,509,410,511,74,58,440,592,39,171,446,113,216,584,528,547,35,106,54,465,590,580,186,507,411,57,197,240,380,383,279,285,233,29,289,382,73,20,90,501,138,419,487,36,414,595,105,557,587,56,91,129,481,18,157,270,302,290,567,131,262,127,223,165,413,425,599,306,596,362,458,162,41,385,594,40,34,259,117,381,220,372,398,141,585,588,110,282,361,318,291,332,435,405,236,109,345,330,211,448,214,457,120,14,367,550,520,523,142,358,181,536,226,252,576,366,334,37,27]","arrowright","0","5","140","600","[""0088_N0600_K0140_NOCLIQUE"",""0031_N0600_K0140_CLIQUE""]","true"
"","audio-keyboard-response","100","247017","0.0-57.4-0.4-1.4","","","","","","","","","","","","","","","","","","null","audio_feedback/right/coin01.mp3","null","","","0","5","140","600","[""0088_N0600_K0140_NOCLIQUE"",""0031_N0600_K0140_CLIQUE""]",""
"","canvas-keyboard-response","101","247327","0.0-58.0-0.0-0.0","","","","","","","","","","","","","","","","","","269",""," ","[570,132,87,443,458,401,177,568,48,503,567,364,66,419,46,326,213,566,452,159,540,536,5,230,304,333,504,388,456,411,314,202,104,196,214,394,403,315,119,151,565,138,11,60,250,577,358,523,12,416,592,425,497,367,426,224,360,538,234,513,363,491,203,218,311,444,85,190,578,510,389,490,146,115,498,386,524,178,295,126,469,103,588,533,226,169,402,590,86,72,102,562,552,145,184,541,431,269,288,78,438,164,544,501,280,276,227,38,585,44,79,417,70,515,123,92,325,466,320,245,589,49,193,136,122,537,175,160,270,399,581,128,56,331,528,586,352,457,557,353,112,486,420,54,262,154,170,243,365,15,52,362,294,547,424,55,534,489,550,499,167,423,361,148,279,41,473,120,268,24,371,316,535,390,261,3,278,406,543,29,465,82,341,47,518,527,385,42,108,163,559,176,334,158,321,209,415,59,355,101,522,168,338,40,470,344,405,298,1,139,223,576,191,282,2,445,521,414,342,392,228,436,155,28,551,88,412,256,471,96,410,449,208,369,599,359,454,147,287,474,496,21,546,8,305,275,477,260,572,113,194,526,350,30,80,199,467,4,571,329,239,328,83,442,532,573,441,413,447,517,459,247,187,400,14,75,300,114,265,20,418,372,337,37,179,65,161,90,89,263,530,308,483,180,107,507,246,221,255,407,13,374,488,284,330,7,99,301,500,356,94,296,398,143,22,249,27,502,340,32,254,50,212,347,553,575,201,368,484,225,53,105,455,116,251,475,354,273,220,109,549,140,529,217,289,409,215,150,593,542,302,172,23,240,511,373,327,381,31,520,141,422,210,322,463,493,480,476,63,514,152,519,232,68,84,378,290,58,440,506,97,62,61,100,451,91,318,285,460,309,137,181,505,395,188,171,587,182,198,183,33,135,310,271,248,231,16,43,186,76,206,375,229,351,448,297,583,205,216,397,580,274,382,563,118,428,293,348,439,156,561,387,272,548,450,219,556,6,446,366,127,195,396,584,313,437,166,391,485,332,303,516,531,207,319,57,596,539,174,242,93,512,429,598,117,264,277,336,149,18,432,77,106,35,377,461,380,579,376,594,384,569,346,204,173,393,508,244,121,292,25,237,9,257,286,349,267,564,36,162,233,253,71,462,379,189,421,495,110,111,0,81,45,235,142,357,481,494,238,26,130,323,479,129,299,131,492,281,434,153,133,582,558,453,339,39,283,317,433,197,324,165,64,472,335,51,67,487,34,597,554,306,200,19,307,157,574,144,17,125,555,185,345,464,74,427,252,259,408,241,312,73,482,134,222,383,266,258,236,211,595,192,468,435,343,478,95,370,98,124,404,591,545,525,430,509,560,291,69,10]","arrowright","0","6","130","600","[""0054_N0600_K0130_NOCLIQUE"",""0088_N0600_K0130_CLIQUE""]",""
"","audio-keyboard-response","102","248403","0.0-58.0-0.0-1.0","","","","","","","","","","","","","","","","","","null","audio_feedback/shuffles/shuffle01.mp3","null","","","0","6","130","600","[""0054_N0600_K0130_NOCLIQUE"",""0088_N0600_K0130_CLIQUE""]",""
"","canvas-keyboard-response","103","248470","0.0-58.1-0.1-0.1","","","","","","","","","","","","","","","","","","26",""," ","[273,293,452,424,507,566,251,141,425,290,422,259,268,364,552,132,453,69,36,445,516,131,352,342,78,174,73,403,110,458,209,277,135,485,574,318,418,265,419,496,285,102,160,62,532,306,167,417,20,38,127,238,395,169,94,518,461,90,353,245,173,545,97,242,84,291,223,95,590,569,523,207,65,538,398,513,457,393,580,509,404,168,269,374,237,549,196,52,111,148,571,520,39,443,75,397,455,584,202,28,329,498,572,133,213,534,96,179,12,324,500,477,337,35,491,553,74,176,372,107,540,140,369,345,21,423,249,562,473,438,363,515,444,478,208,595,117,172,267,416,320,563,599,278,389,139,67,383,514,185,222,281,294,264,253,362,560,198,386,87,315,114,319,356,575,112,570,271,385,240,476,521,180,219,50,230,449,115,535,312,299,186,44,76,257,447,274,18,361,8,432,89,51,542,497,533,191,210,525,234,541,214,462,199,152,359,56,399,529,459,161,19,490,450,300,121,366,484,232,4,144,427,307,429,103,321,246,412,460,194,382,583,430,597,451,440,106,203,109,287,275,33,123,420,72,387,55,370,136,543,325,215,494,258,10,554,524,153,138,53,124,544,390,296,436,577,531,9,54,212,564,489,487,594,537,317,263,29,47,211,286,61,149,499,442,197,463,301,354,346,456,371,511,576,546,155,91,368,392,394,49,302,338,439,157,156,468,188,150,41,512,88,6,527,408,119,261,339,495,396,558,391,376,471,311,279,151,586,221,379,99,40,336,66,384,250,143,557,129,239,288,233,142,502,323,479,435,175,254,295,381,587,469,328,101,559,183,506,204,588,17,510,333,262,380,349,276,252,229,434,206,474,192,7,100,428,42,454,181,98,16,335,406,536,125,589,367,284,266,388,526,410,164,303,350,217,561,472,200,358,373,113,343,555,162,402,504,581,59,377,216,501,145,596,182,30,159,400,235,480,2,431,3,357,22,409,508,228,448,309,334,5,130,298,283,165,64,415,437,227,551,565,332,289,80,86,163,85,63,270,154,598,550,93,25,23,122,530,327,582,108,226,579,128,57,585,441,256,247,126,201,0,528,308,31,578,414,316,330,166,243,465,355,272,244,481,426,378,178,184,593,322,305,43,231,171,105,134,236,482,591,147,347,248,539,344,68,79,282,548,467,60,260,46,475,505,92,280,224,407,313,116,292,189,411,241,567,193,519,170,421,45,297,522,466,58,488,304,14,517,77,464,13,158,470,15,1,331,446,137,32,190,34,225,493,27,310,405,120,205,220,26,177,118,37,81,375,483,556,348,401,492,104,486,547,71,83,82,11,70,314,24,360,146,187,48,195,413,592,340,433,255,573,218,365,351,326,341,568,503]","arrowright","0","6","130","600","[""0054_N0600_K0130_NOCLIQUE"",""0088_N0600_K0130_CLIQUE""]",""
"","audio-keyboard-response","104","249554","0.0-58.1-0.1-1.1","","","","","","","","","","","","","","","","","","null","audio_feedback/shuffles/shuffle01.mp3","null","","","0","6","130","600","[""0054_N0600_K0130_NOCLIQUE"",""0088_N0600_K0130_CLIQUE""]",""
"","canvas-keyboard-response","105","250043","0.0-58.2-0.2-0.2","","","","","","","","","","","","","","","","","","444",""," ","[252,162,457,538,16,258,598,147,62,121,502,431,559,40,56,445,101,450,29,293,517,280,480,556,213,8,332,166,26,271,152,506,83,10,302,440,453,7,134,146,317,49,491,498,243,459,463,469,545,348,407,186,278,430,15,221,334,373,540,401,71,400,524,479,234,160,338,18,268,116,455,281,11,320,350,126,237,209,429,388,47,210,398,384,219,208,571,41,298,251,275,255,374,433,578,277,393,191,82,474,543,442,181,241,513,490,289,207,295,548,261,321,395,349,192,21,159,168,106,218,336,409,246,123,50,290,124,378,93,483,592,113,167,185,531,476,434,169,253,304,512,43,352,230,95,286,279,451,64,322,184,27,163,446,371,341,138,303,98,236,89,306,369,402,561,399,324,257,239,201,183,356,172,542,546,331,245,305,240,205,225,323,405,182,481,426,66,595,259,301,472,175,464,363,441,518,173,368,569,367,387,475,31,549,342,231,557,244,382,157,473,594,128,2,379,283,558,439,264,585,212,515,567,57,484,340,574,416,370,17,70,148,109,55,263,36,396,532,272,347,415,122,161,568,233,452,533,573,448,150,144,570,81,229,125,119,461,456,527,577,199,276,92,25,90,547,385,46,4,358,435,366,501,586,285,344,256,267,315,248,424,375,143,328,587,58,410,478,37,514,88,544,284,507,579,309,325,32,204,528,311,140,178,202,414,59,65,418,117,232,471,499,105,99,494,100,355,14,580,235,111,120,381,242,96,145,365,364,224,444,420,190,288,75,104,69,468,1,351,270,552,584,588,52,107,360,541,310,45,593,505,112,394,250,269,220,380,462,525,227,164,489,294,139,389,34,127,91,44,330,300,299,496,51,438,297,466,449,193,179,597,223,493,84,3,314,228,454,422,419,130,238,411,156,54,372,132,142,151,391,12,596,529,508,30,72,432,316,326,327,590,443,133,427,318,362,565,504,195,536,589,197,412,390,576,520,200,76,176,425,485,203,516,437,108,535,333,319,77,85,460,470,206,33,572,188,383,222,575,511,551,583,421,413,22,165,149,226,260,73,254,217,339,102,353,170,392,386,135,97,337,266,486,465,376,562,110,436,343,137,68,13,523,581,282,48,86,115,477,292,249,42,359,563,488,211,35,154,78,265,198,447,354,555,174,24,141,403,247,397,9,497,345,537,187,114,196,550,458,335,313,274,171,560,357,346,131,155,94,591,519,406,566,307,417,539,63,103,74,129,467,61,6,194,215,564,404,553,487,428,492,526,273,530,28,262,67,329,216,503,38,87,53,534,177,312,118,423,291,180,522,308,153,500,20,19,482,361,79,582,521,23,214,377,509,554,599,60,287,158,0,408,510,136,495,5,39,80,296,189]","arrowright","0","6","130","600","[""0054_N0600_K0130_NOCLIQUE"",""0088_N0600_K0130_CLIQUE""]",""
"","audio-keyboard-response","106","251133","0.0-58.2-0.2-1.2","","","","","","","","","","","","","","","","","","null","audio_feedback/shuffles/shuffle01.mp3","null","","","0","6","130","600","[""0054_N0600_K0130_NOCLIQUE"",""0088_N0600_K0130_CLIQUE""]",""
"","canvas-keyboard-response","107","251177","0.0-58.3-0.3-0.3","","","","","","","","","","","","","","","","","","1","","arrowright","[187,474,5,128,595,327,162,477,68,546,129,67,516,277,489,132,109,371,273,360,296,145,75,202,73,15,96,565,98,102,544,215,17,161,495,158,507,466,423,108,305,205,463,293,53,300,512,455,528,141,12,168,342,522,159,435,127,211,291,122,231,592,90,234,196,167,513,155,71,334,558,362,99,407,276,117,441,226,548,429,574,517,427,509,143,112,222,278,242,136,596,294,403,195,584,443,392,61,373,139,22,541,533,368,375,130,409,394,432,6,282,64,346,138,307,43,89,503,217,86,133,460,103,378,284,483,598,486,274,534,51,27,536,350,46,266,3,85,299,166,100,83,485,523,361,453,446,505,497,459,437,220,458,475,198,2,50,150,467,386,579,105,148,55,335,203,430,173,77,315,119,115,151,364,554,275,54,323,587,385,298,418,0,526,290,265,111,322,421,499,557,580,94,357,239,337,567,24,388,40,444,59,268,376,49,336,500,260,35,258,243,253,84,317,329,137,582,8,221,33,383,344,218,63,147,72,175,44,179,494,398,146,303,402,301,88,70,496,144,306,270,142,552,58,304,7,571,331,406,521,400,126,556,181,286,21,420,311,97,589,42,465,182,180,214,257,28,225,328,349,321,240,1,219,261,47,575,104,32,332,156,192,95,23,358,464,11,113,118,472,174,525,354,469,171,271,14,224,241,309,539,177,547,116,91,481,34,417,508,189,165,37,135,30,356,440,493,62,164,519,518,527,230,545,206,340,530,170,345,363,191,583,250,593,550,551,561,537,338,280,396,498,313,154,510,120,404,473,197,92,514,390,65,413,568,229,36,482,491,570,488,57,438,333,249,93,492,578,381,251,436,9,314,255,194,176,572,13,401,553,448,573,233,140,355,414,365,236,542,237,39,462,295,216,152,457,160,397,424,415,484,26,451,193,382,134,178,585,411,479,370,87,285,563,490,341,369,186,540,470,121,283,419,204,157,478,319,201,471,310,524,245,339,48,374,425,391,210,153,577,184,267,377,16,559,353,107,359,347,532,449,248,281,366,431,393,456,504,351,272,207,45,531,367,19,308,287,41,312,18,188,78,262,380,566,395,372,399,79,476,502,434,297,254,82,25,209,511,480,487,543,56,247,81,110,320,20,412,562,259,445,590,208,591,60,199,535,183,74,31,238,384,190,38,29,428,454,426,379,169,292,452,422,106,114,256,80,538,246,405,529,52,352,235,212,263,515,387,576,172,447,4,316,581,325,244,66,123,461,124,279,318,343,549,564,69,125,10,468,131,594,185,501,506,416,520,101,264,228,232,599,324,288,348,213,76,200,442,588,569,163,450,389,289,560,586,223,408,269,439,149,555,326,410,302,227,433,252,330,597]","arrowright","0","6","130","600","[""0054_N0600_K0130_NOCLIQUE"",""0088_N0600_K0130_CLIQUE""]","true"
"","audio-keyboard-response","108","252200","0.0-58.3-0.3-1.3","","","","","","","","","","","","","","","","","","null","audio_feedback/right/coin01.mp3","null","","","0","6","130","600","[""0054_N0600_K0130_NOCLIQUE"",""0088_N0600_K0130_CLIQUE""]",""
"","canvas-keyboard-response","109","252253","0.0-59.0-0.0-0.0","","","","","","","","","","","","","","","","","","1",""," ","[545,446,541,599,516,301,77,78,460,83,310,419,183,192,256,71,223,370,59,529,588,333,50,305,10,291,42,340,36,148,567,255,38,362,570,402,447,445,368,94,61,15,449,103,558,335,225,102,546,145,575,116,28,431,129,427,424,23,195,346,74,399,422,280,90,100,80,154,114,64,559,210,413,581,275,107,480,274,533,379,285,160,63,167,169,178,293,556,258,244,235,506,385,371,395,552,390,203,471,281,417,596,57,454,490,534,211,115,321,398,416,55,532,375,208,369,240,405,166,186,586,525,536,323,65,408,193,576,561,473,215,579,515,353,156,48,205,112,131,58,257,366,489,171,381,54,53,531,526,550,324,551,29,500,563,7,498,14,218,332,355,336,481,85,327,543,75,507,508,425,440,43,182,142,266,482,267,456,159,299,60,374,308,296,32,278,34,104,444,326,571,365,504,6,464,438,435,573,216,594,386,247,252,364,136,93,316,306,565,165,407,436,146,175,242,262,459,406,224,388,111,68,393,492,590,30,127,92,157,540,337,294,0,22,51,517,292,509,246,117,190,488,109,11,429,587,143,303,527,283,441,450,229,542,342,24,16,151,217,105,491,219,298,259,549,430,384,514,227,163,133,233,31,41,170,282,271,288,432,119,19,537,569,564,231,396,199,272,574,453,331,330,404,135,270,311,472,177,562,452,448,46,518,578,284,226,213,126,254,290,312,189,468,461,8,179,276,263,176,329,12,474,361,322,198,138,250,221,108,358,273,350,18,188,442,37,501,45,265,496,70,553,345,185,66,380,497,130,420,184,307,82,320,397,457,411,47,191,220,118,319,376,502,144,4,356,503,197,389,343,87,207,123,62,378,566,568,106,318,538,264,377,230,580,214,598,95,577,451,40,209,415,486,511,297,494,153,277,89,173,25,56,520,382,91,245,120,521,347,412,39,339,349,152,344,458,544,465,373,98,485,475,1,462,341,237,479,421,222,554,467,228,528,351,394,463,79,409,125,164,76,487,539,410,253,202,495,97,168,155,172,309,268,124,33,72,439,206,560,583,585,180,357,372,512,315,27,9,387,348,548,400,73,597,493,241,187,557,69,194,334,20,484,595,313,383,248,286,261,391,88,572,141,5,304,314,26,338,132,21,49,161,128,113,86,530,3,535,162,354,470,150,414,67,499,589,2,279,84,360,522,367,401,269,232,99,158,52,555,204,328,251,505,96,110,524,181,392,476,352,363,477,236,591,201,519,121,523,122,469,584,593,547,434,513,149,174,437,359,418,137,289,243,295,403,134,423,196,478,101,239,234,582,510,483,212,317,35,426,466,139,592,433,140,81,287,13,147,17,428,238,455,200,325,302,249,443,260,44,300]","arrowleft","0","7","130","600","[""0035_N0600_K0130_CLIQUE"",""0006_N0600_K0130_NOCLIQUE""]",""
"","audio-keyboard-response","110","253331","0.0-59.0-0.0-1.0","","","","","","","","","","","","","","","","","","null","audio_feedback/shuffles/shuffle01.mp3","null","","","0","7","130","600","[""0035_N0600_K0130_CLIQUE"",""0006_N0600_K0130_NOCLIQUE""]",""
