"value","trial_type","trial_index","time_elapsed","internal_node_id","width","height","webaudio","browser","browser_version","mobile","os","fullscreen","vsync_rate","webcam","microphone","success","timeout","failed_images","failed_audio","failed_video","view_history","rt","stimulus","response","nodes_order","correct_response","block_index","presentation_index","clique_size","graph_size","graphs_names","correct"
"","call-function","0","1","0.0-0.0","","","","","","","","","","","","","","","","","","","","","","","","","","","",""
"","browser-check","1","1004","0.0-1.0","1440","778","true","chrome","132.0.0","false","Mac OS","true","60.07","true","true","","","","","","","","","","","","","","","","",""
"","preload","2","1128","0.0-2.0","","","","","","","","","","","","true","false","[]","[]","[]","","","","","","","","","","","",""
"","pavlovia","3","1454","0.0-3.0","","","","","","","","","","","","","","","","","","","","","","","","","","","",""
"","instructions","4","9219","0.0-4.0","","","","","","","","","","","","","","","","","[{""page_index"":0,""viewing_time"":5088},{""page_index"":1,""viewing_time"":2673}]","7761","","","","","","","","","",""
"","html-keyboard-response","5","12699","0.0-5.0-0.0","","","","","","","","","","","","","","","","","","3478","By accepting to participate in this study, you confirm:
                <p style='text-align:left'>
                    - That I have carefully read the explanations regarding this study and the entire experimental procedure;<br>
                    - That I have been informed about the aims and objectives of this research;<br>
                    - That I am aware of the inconveniences, if any, caused by the experiment;<br>
                    - That I have received satisfactory assurances regarding the confidentiality of the information obtained from the examination of my own person; <br>
                    - That I am aware that I can withdraw at any stage of the study.
                <p>
                <span style=""color: #808080"">
                    Press [Y] to <strong>accept</strong>.
                </span> <br>
                <span style=""color: #808080"">
                    Press [N] to <strong>refuse</strong>.
                </span>","y","","","","","","","",""
"","survey-html-form","6","28368","0.0-6.0","","","","","","","","","","","","","","","","","","15667","","{""gender"":""not-specified"",""age"":""23""}","","","","","","","",""
"","preload","7","28617","0.0-7.0","","","","","","","","","","","","true","false","[]","[]","[]","","","","","","","","","","","",""
"","instructions","8","45730","0.0-8.0","","","","","","","","","","","","","","","","","[{""page_index"":0,""viewing_time"":2042},{""page_index"":1,""viewing_time"":1035},{""page_index"":2,""viewing_time"":545},{""page_index"":3,""viewing_time"":598},{""page_index"":4,""viewing_time"":332},{""page_index"":5,""viewing_time"":439},{""page_index"":6,""viewing_time"":416},{""page_index"":7,""viewing_time"":349},{""page_index"":8,""viewing_time"":299},{""page_index"":9,""viewing_time"":367},{""page_index"":10,""viewing_time"":293},{""page_index"":11,""viewing_time"":197},{""page_index"":12,""viewing_time"":203},{""page_index"":13,""viewing_time"":185},{""page_index"":14,""viewing_time"":213},{""page_index"":15,""viewing_time"":197},{""page_index"":16,""viewing_time"":197},{""page_index"":17,""viewing_time"":202},{""page_index"":18,""viewing_time"":205},{""page_index"":19,""viewing_time"":231},{""page_index"":20,""viewing_time"":215},{""page_index"":21,""viewing_time"":213},{""page_index"":22,""viewing_time"":232},{""page_index"":23,""viewing_time"":250},{""page_index"":24,""viewing_time"":264},{""page_index"":25,""viewing_time"":237},{""page_index"":26,""viewing_time"":265},{""page_index"":27,""viewing_time"":268},{""page_index"":28,""viewing_time"":272},{""page_index"":29,""viewing_time"":269},{""page_index"":30,""viewing_time"":289},{""page_index"":31,""viewing_time"":319},{""page_index"":32,""viewing_time"":259},{""page_index"":33,""viewing_time"":252},{""page_index"":34,""viewing_time"":272},{""page_index"":35,""viewing_time"":1295},{""page_index"":36,""viewing_time"":247},{""page_index"":37,""viewing_time"":204},{""page_index"":38,""viewing_time"":175},{""page_index"":39,""viewing_time"":222},{""page_index"":40,""viewing_time"":237},{""page_index"":41,""viewing_time"":215},{""page_index"":42,""viewing_time"":206},{""page_index"":43,""viewing_time"":220},{""page_index"":44,""viewing_time"":178},{""page_index"":45,""viewing_time"":200},{""page_index"":46,""viewing_time"":206},{""page_index"":47,""viewing_time"":221},{""page_index"":48,""viewing_time"":211},{""page_index"":49,""viewing_time"":217},{""page_index"":50,""viewing_time"":198},{""page_index"":51,""viewing_time"":244}]","17113","","","","","","","","","",""
"","instructions","9","48270","0.0-9.0","","","","","","","","","","","","","","","","","[{""page_index"":0,""viewing_time"":2539}]","2539","","","","","","","","","",""
"","preload","10","48637","0.0-10.0","","","","","","","","","","","","true","false","[]","[]","[]","","","","","","","","","","","",""
"","image-keyboard-response","11","50752","0.0-11.0","","","","","","","","","","","","","","","","","","2114","tutorial/p_reduce/task_familiarization_images/part 1/01_N160_K90_cliqueRight_question1.PNG"," ","","","","","","","",""
"","image-keyboard-response","12","50921","0.0-12.0","","","","","","","","","","","","","","","","","","168","tutorial/p_reduce/task_familiarization_images/part 1/02_N160_K90_cliqueRight_question2.PNG"," ","","","","","","","",""
"","image-keyboard-response","13","52261","0.0-13.0","","","","","","","","","","","","","","","","","","1338","tutorial/p_reduce/task_familiarization_images/part 1/03_N160_K90_cliqueRight_question3.PNG","arrowright","","","","","","","",""
"","image-keyboard-response","14","52977","0.0-14.0","","","","","","","","","","","","","","","","","","714","tutorial/p_reduce/task_familiarization_images/part 1/04_N160_K90_cliqueRight_solution.PNG"," ","","","","","","","",""
"","image-keyboard-response","15","53139","0.0-15.0","","","","","","","","","","","","","","","","","","161","tutorial/p_reduce/task_familiarization_images/part 1/05_N160_K65_cliqueRight_question1.PNG"," ","","","","","","","",""
"","image-keyboard-response","16","53257","0.0-16.0","","","","","","","","","","","","","","","","","","116","tutorial/p_reduce/task_familiarization_images/part 1/06_N160_K65_cliqueRight_question2.PNG"," ","","","","","","","",""
"","image-keyboard-response","17","54105","0.0-17.0","","","","","","","","","","","","","","","","","","846","tutorial/p_reduce/task_familiarization_images/part 1/07_N160_K65_cliqueRight_question3.PNG","arrowleft","","","","","","","",""
"","image-keyboard-response","18","54443","0.0-18.0","","","","","","","","","","","","","","","","","","336","tutorial/p_reduce/task_familiarization_images/part 1/08_N160_K65_cliqueRight_solution.PNG"," ","","","","","","","",""
"","image-keyboard-response","19","54576","0.0-19.0","","","","","","","","","","","","","","","","","","131","tutorial/p_reduce/task_familiarization_images/part 1/09_N160_K50_cliqueLeft_question1.PNG"," ","","","","","","","",""
"","image-keyboard-response","20","54736","0.0-20.0","","","","","","","","","","","","","","","","","","159","tutorial/p_reduce/task_familiarization_images/part 1/10_N160_K50_cliqueLeft_question2.PNG"," ","","","","","","","",""
"","image-keyboard-response","21","55934","0.0-21.0","","","","","","","","","","","","","","","","","","1197","tutorial/p_reduce/task_familiarization_images/part 1/11_N160_K50_cliqueLeft_question3.PNG","arrowright","","","","","","","",""
"","image-keyboard-response","22","56509","0.0-22.0","","","","","","","","","","","","","","","","","","573","tutorial/p_reduce/task_familiarization_images/part 1/12_N160_K50_cliqueLeft_solution.PNG"," ","","","","","","","",""
"","image-keyboard-response","23","56670","0.0-23.0","","","","","","","","","","","","","","","","","","160","tutorial/p_reduce/task_familiarization_images/part 1/13_N160_K80_cliqueLeft_question1.PNG"," ","","","","","","","",""
"","image-keyboard-response","24","56794","0.0-24.0","","","","","","","","","","","","","","","","","","123","tutorial/p_reduce/task_familiarization_images/part 1/14_N160_K80_cliqueLeft_question2.PNG"," ","","","","","","","",""
"","image-keyboard-response","25","57609","0.0-25.0","","","","","","","","","","","","","","","","","","814","tutorial/p_reduce/task_familiarization_images/part 1/15_N160_K80_cliqueLeft_question3.PNG","arrowleft","","","","","","","",""
"","image-keyboard-response","26","57961","0.0-26.0","","","","","","","","","","","","","","","","","","350","tutorial/p_reduce/task_familiarization_images/part 1/16_N160_K80_cliqueLeft_solution.PNG"," ","","","","","","","",""
"","image-keyboard-response","27","58113","0.0-27.0","","","","","","","","","","","","","","","","","","150","tutorial/p_reduce/task_familiarization_images/part 1/17_N160_K40_cliqueRight_question1.PNG"," ","","","","","","","",""
"","image-keyboard-response","28","58267","0.0-28.0","","","","","","","","","","","","","","","","","","153","tutorial/p_reduce/task_familiarization_images/part 1/18_N160_K40_cliqueRight_question2.PNG"," ","","","","","","","",""
"","image-keyboard-response","29","59387","0.0-29.0","","","","","","","","","","","","","","","","","","1118","tutorial/p_reduce/task_familiarization_images/part 1/19_N160_K40_cliqueRight_question3.PNG","arrowright","","","","","","","",""
"","image-keyboard-response","30","59789","0.0-30.0","","","","","","","","","","","","","","","","","","401","tutorial/p_reduce/task_familiarization_images/part 1/20_N160_K40_cliqueRight_solution.PNG"," ","","","","","","","",""
"","image-keyboard-response","31","60305","0.0-31.0","","","","","","","","","","","","","","","","","","514","tutorial/p_reduce/task_familiarization_images/part 1/21_N160_K70_cliqueLeft_question1.PNG"," ","","","","","","","",""
"","image-keyboard-response","32","60463","0.0-32.0","","","","","","","","","","","","","","","","","","156","tutorial/p_reduce/task_familiarization_images/part 1/22_N160_K70_cliqueLeft_question2.PNG"," ","","","","","","","",""
"","image-keyboard-response","33","61249","0.0-33.0","","","","","","","","","","","","","","","","","","785","tutorial/p_reduce/task_familiarization_images/part 1/23_N160_K70_cliqueLeft_question3.PNG","arrowleft","","","","","","","",""
"","image-keyboard-response","34","61680","0.0-34.0","","","","","","","","","","","","","","","","","","430","tutorial/p_reduce/task_familiarization_images/part 1/24_N160_K70_cliqueLeft_solution.PNG"," ","","","","","","","",""
"","preload","35","61988","0.0-35.0","","","","","","","","","","","","true","false","[]","[]","[]","","","","","","","","","","","",""
"","image-keyboard-response","36","62436","0.0-36.0","","","","","","","","","","","","","","","","","","446","tutorial/p_reduce/task_familiarization_images/part 2/01_N160_K80_cliqueLeft_withFeedback_1.PNG"," ","","","","","","","",""
"","image-keyboard-response","37","62578","0.0-37.0","","","","","","","","","","","","","","","","","","138","tutorial/p_reduce/task_familiarization_images/part 2/02_N160_K80_cliqueLeft_withFeedback_2.PNG"," ","","","","","","","",""
"","image-keyboard-response","38","63658","0.0-38.0","","","","","","","","","","","","","","","","","","1078","tutorial/p_reduce/task_familiarization_images/part 2/03_N160_K80_cliqueLeft_withFeedback_3.PNG","arrowleft","","","","","","","",""
"","image-keyboard-response","39","64006","0.0-39.0","","","","","","","","","","","","","","","","","","346","tutorial/p_reduce/task_familiarization_images/part 2/04_N160_K80_cliqueLeft_withFeedback_correct.PNG"," ","","","","","","","",""
"","image-keyboard-response","40","64169","0.0-40.0","","","","","","","","","","","","","","","","","","162","tutorial/p_reduce/task_familiarization_images/part 2/05_N160_K55_cliqueRight_withFeedback_1.PNG"," ","","","","","","","",""
"","image-keyboard-response","41","64338","0.0-41.0","","","","","","","","","","","","","","","","","","167","tutorial/p_reduce/task_familiarization_images/part 2/06_N160_K55_cliqueRight_withFeedback_2.PNG"," ","","","","","","","",""
"","image-keyboard-response","42","65300","0.0-42.0","","","","","","","","","","","","","","","","","","957","tutorial/p_reduce/task_familiarization_images/part 2/07_N160_K55_cliqueRight_withFeedback_3.PNG","arrowleft","","","","","","","",""
"","image-keyboard-response","43","65606","0.0-43.0","","","","","","","","","","","","","","","","","","304","tutorial/p_reduce/task_familiarization_images/part 2/08_N160_K55_cliqueRight_withFeedback_wrong.PNG"," ","","","","","","","",""
"","image-keyboard-response","44","65783","0.0-44.0","","","","","","","","","","","","","","","","","","176","tutorial/p_reduce/task_familiarization_images/part 2/09_N160_K70_cliqueLeft_withFeedback_1.PNG"," ","","","","","","","",""
"","image-keyboard-response","45","65943","0.0-45.0","","","","","","","","","","","","","","","","","","158","tutorial/p_reduce/task_familiarization_images/part 2/10_N160_K70_cliqueLeft_withFeedback_2.PNG"," ","","","","","","","",""
"","image-keyboard-response","46","66760","0.0-46.0","","","","","","","","","","","","","","","","","","812","tutorial/p_reduce/task_familiarization_images/part 2/11_N160_K70_cliqueLeft_withFeedback_3.PNG","arrowleft","","","","","","","",""
"","image-keyboard-response","47","67083","0.0-47.0","","","","","","","","","","","","","","","","","","322","tutorial/p_reduce/task_familiarization_images/part 2/12_N160_K70_cliqueLeft_withFeedback_correct.PNG"," ","","","","","","","",""
"","preload","48","67259","0.0-48.0","","","","","","","","","","","","true","false","[]","[]","[]","","","","","","","","","","","",""
"","instructions","49","68973","0.0-49.0","","","","","","","","","","","","","","","","","[{""page_index"":0,""viewing_time"":1714}]","1714","","","","","","","","","",""
"","fullscreen","50","71969","0.0-51.0","","","","","","","","","","","","true","","","","","","","","","","","","","","","",""
"","canvas-keyboard-response","51","141854","0.0-52.0-0.0-0.0","","","","","","","","","","","","","","","","","","69762",""," ","[833,500,995,526,674,10,277,546,527,4,878,826,349,912,232,753,630,667,45,208,146,796,809,677,885,638,994,924,440,332,616,758,952,302,903,957,658,770,715,934,331,307,319,883,944,422,114,821,591,106,702,117,348,337,680,705,289,514,523,870,347,589,624,367,202,13,823,920,334,19,617,394,57,577,561,445,456,335,859,571,487,967,248,621,163,718,915,125,780,722,66,654,927,824,486,385,436,808,215,987,26,55,882,27,177,884,423,785,427,485,401,866,466,979,498,657,143,951,837,619,309,5,585,736,600,556,412,709,945,532,517,124,713,40,557,244,198,322,387,794,234,410,321,767,352,310,184,760,120,777,476,159,645,176,341,980,665,904,29,939,759,179,836,3,676,433,128,268,233,22,564,991,673,82,893,583,956,706,963,992,263,612,481,451,229,323,974,313,150,444,425,343,291,196,285,847,147,531,365,819,60,632,502,346,282,869,54,204,259,864,33,857,488,607,270,964,404,186,209,541,510,76,286,140,380,694,156,77,936,281,386,648,538,288,298,220,668,762,900,647,651,789,492,938,174,93,528,100,173,769,116,430,675,519,587,890,345,126,968,478,778,419,631,2,376,734,104,377,123,892,911,985,207,272,872,929,312,786,566,119,129,627,765,50,907,91,467,256,503,14,18,661,408,579,213,684,148,899,249,835,102,687,294,371,297,1,65,96,958,109,203,525,776,157,914,873,382,814,212,520,719,237,839,671,910,135,49,439,442,670,221,971,942,843,811,350,356,361,206,477,21,524,539,391,845,930,351,822,682,47,320,400,586,178,984,733,210,933,80,596,611,865,409,137,853,862,494,462,975,683,969,834,48,727,464,44,134,172,127,305,669,16,252,580,468,36,306,78,110,641,170,874,723,603,9,11,812,470,703,84,490,916,844,142,225,461,435,593,411,867,191,402,183,113,846,628,315,278,501,418,504,52,639,363,269,738,729,169,606,25,296,623,948,162,572,70,950,793,81,886,38,311,333,384,880,748,986,414,905,622,652,827,965,479,940,787,831,471,420,548,407,111,516,642,988,372,17,590,405,917,455,560,582,540,235,895,805,508,86,219,214,889,996,496,353,792,838,300,788,228,375,89,85,537,266,744,151,415,292,689,960,153,132,53,625,999,664,217,581,112,803,643,817,72,897,316,201,389,742,242,64,431,660,861,922,768,518,896,828,499,205,856,253,851,513,274,366,699,898,609,737,167,369,472,79,595,43,182,398,388,41,247,615,570,943,23,663,152,434,429,982,223,891,165,88,739,850,941,955,592,993,721,921,317,925,8,255,871,926,795,355,756,262,290,364,841,801,231,224,909,666,181,261,923,799,258,218,858,549,359,424,613,98,601,894,69,774,378,784,95,692,251,818,908,413,688,584,574,710,328,653,562,790,493,74,598,336,304,565,536,750,192,56,257,273,185,465,605,437,990,158,428,275,810,716,267,63,775,569,820,977,842,236,344,264,947,301,314,972,746,67,193,73,15,139,978,637,195,480,554,779,610,714,530,741,397,932,180,155,168,416,732,764,752,460,686,459,806,161,832,75,559,563,160,115,529,243,887,491,679,989,329,578,802,28,983,830,399,634,693,276,396,187,200,506,743,730,31,509,825,403,245,966,981,608,507,489,62,681,495,646,144,145,136,602,357,71,644,745,855,108,330,659,656,453,534,544,997,374,227,879,728,99,138,240,829,816,588,103,751,443,946,141,154,918,726,635,130,241,618,373,35,458,512,511,30,543,747,279,551,690,650,475,393,230,772,287,392,171,558,781,463,876,90,636,417,754,121,954,354,707,515,782,199,791,697,59,34,87,131,379,390,901,188,547,368,362,381,438,284,701,959,194,860,164,773,426,308,597,813,763,0,533,58,61,133,877,293,555,568,327,757,849,633,238,740,804,771,421,731,448,447,604,450,961,695,614,432,928,101,749,720,260,863,46,567,254,550,626,340,318,852,20,12,280,246,797,283,42,800,935,998,299,457,68,360,672,166,640,370,798,708,725,766,655,505,711,575,265,473,685,326,717,576,735,542,755,483,704,216,239,953,449,94,881,383,807,949,629,474,678,649,919,724,976,712,339,888,484,295,271,573,358,691,937,902,454,970,7,973,105,338,840,599,875,325,6,303,189,211,452,324,441,815,175,594,497,522,342,406,250,395,469,149,37,906,226,913,545,931,553,190,197,32,446,620,761,92,521,222,83,700,962,854,122,662,107,24,51,97,783,552,868,482,698,118,535,39,848,696]","arrowright","0","0","300","1000","[""0069_N1000_K0300_NOCLIQUE"",""0040_N1000_K0300_CLIQUE""]",""
"","audio-keyboard-response","52","142970","0.0-52.0-0.0-1.0","","","","","","","","","","","","","","","","","","null","audio_feedback/shuffles/shuffle01.mp3","null","","","0","0","300","1000","[""0069_N1000_K0300_NOCLIQUE"",""0040_N1000_K0300_CLIQUE""]",""
"","canvas-keyboard-response","53","143942","0.0-52.1-0.1-0.1","","","","","","","","","","","","","","","","","","855","","arrowright","[757,445,414,962,885,152,59,313,303,167,628,767,87,184,166,799,995,333,603,342,98,566,10,493,919,656,490,395,682,483,417,747,677,581,602,356,990,960,74,307,552,286,394,215,992,237,508,579,781,509,669,910,896,334,231,182,649,874,269,958,481,139,162,225,607,550,170,968,651,695,835,570,884,388,343,249,127,782,279,684,110,358,88,660,879,571,956,806,11,455,537,97,415,666,598,99,390,796,685,51,402,700,703,942,323,172,420,266,311,964,218,738,915,71,115,463,366,961,816,506,715,40,103,133,857,418,335,314,113,833,351,735,811,425,966,36,64,442,295,635,236,865,648,584,262,691,209,886,698,843,792,711,760,475,769,837,714,594,953,68,580,697,326,164,801,920,435,52,592,771,916,529,867,232,199,688,930,6,452,273,145,134,849,54,179,614,185,686,331,90,977,284,855,428,197,511,954,22,551,730,408,264,308,151,436,404,194,116,742,668,422,219,755,986,106,416,853,1,540,385,319,317,344,800,305,137,949,559,706,994,227,438,948,721,661,448,24,658,675,411,60,496,336,897,708,472,136,683,491,174,667,119,396,979,925,906,108,332,557,878,596,260,601,593,555,42,665,802,12,221,610,293,898,768,143,577,615,111,820,512,193,891,638,693,256,252,357,53,190,378,927,578,632,841,544,245,320,761,821,255,160,212,329,16,131,73,479,803,109,191,100,177,176,466,188,450,937,461,718,936,101,440,132,913,870,996,437,114,625,998,70,306,670,240,449,828,620,383,354,521,599,640,672,282,588,639,975,590,328,330,797,196,810,361,856,917,901,128,168,556,17,624,939,147,447,322,462,33,446,157,23,421,178,338,520,568,19,107,67,736,737,247,634,55,609,940,655,281,485,380,117,720,241,403,877,130,627,776,959,362,724,348,764,355,426,180,845,37,28,812,259,412,443,126,217,858,429,894,583,582,716,15,27,234,946,807,216,999,25,743,238,893,756,659,287,121,558,633,44,104,353,872,690,220,823,382,125,501,587,779,302,457,430,549,991,790,86,657,186,171,39,271,389,567,124,400,631,576,617,65,725,944,924,316,393,476,254,321,569,934,288,367,719,842,276,859,346,678,729,198,619,876,741,647,752,270,740,46,963,734,988,819,500,453,112,882,970,8,717,239,230,525,398,345,814,973,825,118,310,689,929,69,275,804,654,611,228,173,297,492,981,608,637,636,838,928,978,202,79,612,705,459,451,349,150,370,993,626,146,817,709,405,932,702,900,50,369,233,798,826,873,676,560,787,406,280,5,21,291,0,480,763,623,38,586,643,83,486,646,195,156,340,478,773,181,562,200,758,469,298,726,505,606,153,207,967,327,484,687,952,80,309,972,503,2,723,13,515,663,662,652,909,813,895,423,502,759,889,3,935,301,35,278,299,18,750,775,732,248,458,82,982,808,141,641,524,43,165,772,290,861,226,945,223,561,135,832,504,834,957,277,795,265,392,142,923,285,692,791,749,76,244,514,704,206,862,318,585,337,205,745,547,933,360,242,513,681,613,350,89,516,535,122,95,213,274,914,674,92,519,381,644,377,154,272,85,473,815,788,694,754,29,618,899,850,673,748,371,947,844,664,363,831,375,296,733,864,494,548,58,777,434,951,903,460,789,793,907,510,980,482,352,574,976,251,630,710,433,987,616,822,974,526,600,210,26,57,465,642,379,880,728,488,56,4,148,268,542,904,984,983,523,49,474,77,965,468,489,604,149,368,315,564,61,20,391,871,102,300,527,545,645,629,94,48,96,533,62,84,325,347,439,471,839,854,866,201,546,731,66,543,784,294,161,467,989,699,830,138,713,289,921,818,372,7,30,364,572,384,250,424,129,783,536,283,971,532,597,539,931,739,81,938,169,573,246,441,892,75,840,621,794,204,727,890,541,653,852,376,805,431,407,454,123,373,34,214,563,650,605,522,969,63,163,863,696,941,922,955,712,780,868,829,528,848,875,943,905,224,908,883,397,762,208,534,499,32,778,746,444,554,926,120,470,292,507,304,78,41,887,498,253,753,235,589,9,183,175,47,229,530,158,722,267,827,824,312,258,902,359,985,477,341,785,401,339,575,386,456,91,261,766,222,860,203,836,155,707,869,622,918,187,140,765,517,487,518,680,93,324,538,671,211,432,409,427,565,744,374,846,531,72,31,263,950,851,911,399,751,847,419,595,770,105,997,774,912,144,14,495,189,410,679,387,497,413,45,881,464,786,888,159,553,701,365,591,192,243,257,809]","arrowright","0","0","300","1000","[""0069_N1000_K0300_NOCLIQUE"",""0040_N1000_K0300_CLIQUE""]","true"
"","audio-keyboard-response","54","144967","0.0-52.1-0.1-1.1","","","","","","","","","","","","","","","","","","null","audio_feedback/right/coin01.mp3","null","","","0","0","300","1000","[""0069_N1000_K0300_NOCLIQUE"",""0040_N1000_K0300_CLIQUE""]",""
"","canvas-keyboard-response","55","152352","0.0-53.0-0.0-0.0","","","","","","","","","","","","","","","","","","7273","","arrowright","[920,80,830,502,334,609,882,505,737,678,117,790,143,528,126,360,168,393,451,687,652,649,66,193,962,479,615,501,879,565,321,915,271,741,125,306,712,350,977,648,70,322,58,103,916,329,409,223,84,538,295,104,969,190,787,110,672,932,596,822,717,281,986,85,520,351,876,13,368,19,221,808,901,236,486,859,955,215,53,784,226,383,457,328,37,230,862,713,960,630,307,620,872,802,32,218,996,253,807,472,49,555,605,777,387,869,887,415,509,931,772,280,638,776,257,963,120,176,15,789,853,430,965,150,7,216,263,208,918,926,450,785,487,675,62,771,229,542,786,241,50,636,692,999,892,155,760,87,788,659,820,623,686,185,500,967,111,30,100,499,899,585,981,941,157,496,512,539,395,530,707,928,897,930,123,697,968,6,318,459,181,202,217,949,711,366,685,402,800,359,374,240,893,166,388,14,461,336,335,838,854,385,434,751,346,722,746,188,290,163,274,428,613,497,456,269,590,602,641,674,780,921,175,832,835,606,106,643,288,178,813,304,424,695,637,735,11,783,469,833,950,903,314,114,888,684,356,317,136,515,169,923,36,670,653,631,331,187,2,83,10,470,285,225,875,298,954,363,849,976,626,76,397,5,582,801,693,543,599,914,324,510,420,296,956,908,884,398,594,460,669,69,18,492,527,475,191,964,421,829,868,364,158,31,189,809,768,392,604,109,302,552,112,378,51,563,52,65,880,242,917,635,396,96,614,82,503,214,763,429,273,21,259,907,54,196,824,610,194,756,488,959,340,640,476,814,343,709,101,77,412,744,107,138,279,394,339,384,205,481,349,570,782,705,266,376,337,94,203,541,192,243,416,377,294,489,228,518,546,558,591,836,758,292,358,352,627,338,38,222,979,660,889,379,454,513,550,134,704,865,870,407,554,406,769,779,299,817,982,313,661,445,732,933,27,767,989,846,88,255,258,592,679,239,465,703,581,71,619,724,20,547,898,113,588,913,119,658,994,118,886,133,224,95,195,608,462,473,289,531,124,938,4,681,970,183,437,250,688,300,345,382,682,828,283,262,825,115,764,586,153,797,333,757,170,580,453,423,840,498,730,778,372,504,391,883,557,738,435,127,533,463,983,514,984,458,839,699,971,990,316,209,524,246,566,251,521,573,598,116,523,958,467,668,651,81,142,375,41,621,812,159,419,995,355,639,447,698,689,564,362,765,490,122,140,278,628,997,213,390,806,821,803,22,522,715,484,535,275,952,373,480,961,452,417,864,277,404,154,341,900,754,323,260,1,40,301,57,401,794,249,468,148,75,311,98,381,548,438,137,910,748,579,721,881,618,761,128,544,912,587,743,826,694,929,831,330,25,953,644,827,574,200,286,61,850,676,992,664,442,834,942,315,464,108,354,537,534,93,471,147,978,753,132,647,511,708,177,149,171,91,642,67,56,264,508,811,268,556,357,791,440,966,291,332,718,740,691,485,845,891,326,24,714,408,399,584,493,227,702,162,561,26,842,663,894,906,495,207,727,305,413,646,400,64,549,284,418,389,924,517,74,973,655,325,980,775,690,616,575,97,667,90,161,536,477,710,272,943,144,23,312,494,902,238,265,927,455,553,310,895,320,29,617,516,206,287,600,762,160,975,17,567,947,156,583,799,198,728,603,370,201,683,60,256,736,12,129,858,152,276,936,805,361,589,474,220,577,211,167,99,855,904,267,988,212,367,9,59,625,529,204,303,73,532,139,405,726,851,92,410,671,633,597,734,151,491,34,172,856,752,576,860,237,578,946,519,632,701,673,818,607,47,86,739,770,145,890,245,63,16,987,774,174,863,182,796,843,105,572,386,186,545,766,568,815,852,439,750,866,252,199,448,957,551,507,733,911,991,795,841,282,677,478,595,650,723,46,309,414,0,89,261,657,68,432,525,233,654,622,270,742,559,219,745,634,848,871,347,781,483,526,873,985,411,857,231,810,759,28,297,43,235,449,45,993,861,729,819,937,293,974,33,210,874,773,443,909,35,141,79,102,344,425,837,39,562,719,847,327,844,944,601,935,248,131,905,403,365,48,121,706,232,948,662,165,656,78,611,749,569,680,482,951,816,571,885,922,798,998,55,197,348,254,925,422,42,8,180,939,793,720,319,72,506,441,179,696,624,629,353,972,436,244,867,173,560,593,446,369,877,146,342,380,666,665,940,725,3,130,444,433,731,426,823,878,919,247,164,427,896,804,431,792,934,540,700,234,466,945,308,371,747,755,716,184,612,645,44,135]","arrowleft","0","1","300","1000","[""0022_N1000_K0300_CLIQUE"",""0082_N1000_K0300_NOCLIQUE""]","false"
"","audio-keyboard-response","56","153372","0.0-53.0-0.0-1.0","","","","","","","","","","","","","","","","","","null","audio_feedback/wrong/error01.mp3","null","","","0","1","300","1000","[""0022_N1000_K0300_CLIQUE"",""0082_N1000_K0300_NOCLIQUE""]",""
"","canvas-keyboard-response","57","154138","0.0-54.0-0.0-0.0","","","","","","","","","","","","","","","","","","663","","arrowright","[753,613,823,870,138,595,417,919,87,198,455,517,762,869,847,848,354,90,917,754,734,763,567,124,362,450,675,412,45,305,499,3,733,664,125,607,355,197,236,120,538,600,694,895,469,88,619,215,940,348,240,399,59,914,717,256,237,207,327,977,568,356,319,804,206,447,969,519,148,290,963,394,629,676,274,890,156,17,551,988,641,554,701,708,176,828,782,996,818,107,663,309,863,738,113,816,27,838,491,564,739,23,638,179,184,742,599,222,494,582,778,317,656,588,967,573,576,572,89,423,758,481,946,100,746,651,961,50,366,618,628,908,923,287,221,605,294,609,453,400,357,951,144,14,293,6,696,672,610,406,658,899,254,841,178,379,508,480,150,452,275,114,210,310,9,527,209,56,905,697,687,10,203,227,504,464,930,645,630,252,999,427,118,510,141,333,422,800,167,92,770,217,590,584,251,329,490,449,438,731,411,821,160,813,775,594,185,807,615,36,873,925,109,336,4,631,724,2,955,437,612,363,533,243,99,5,485,948,132,942,922,898,743,181,832,837,707,405,308,625,424,407,270,937,461,341,328,291,957,434,565,428,660,82,686,673,785,69,175,122,654,979,992,457,134,644,854,611,245,931,991,826,553,897,989,338,112,147,244,273,433,383,521,776,691,666,578,103,396,888,545,38,811,25,781,801,255,47,375,993,377,747,161,585,63,385,234,587,421,430,278,915,862,761,489,756,601,983,353,386,750,467,829,797,288,929,907,241,367,280,441,786,803,311,944,472,627,792,500,909,712,652,479,535,978,990,623,370,373,970,416,436,788,853,872,875,885,900,404,495,143,833,583,42,668,110,101,840,91,321,267,135,918,78,153,522,96,190,7,225,894,513,76,887,842,314,68,655,637,817,624,608,603,339,649,398,263,228,343,953,932,592,211,34,703,835,52,938,60,685,111,58,43,140,149,860,692,474,299,563,325,843,659,678,799,218,941,901,269,648,982,12,98,505,620,376,289,458,54,65,602,163,845,710,369,861,115,79,524,633,53,475,260,349,493,332,530,579,145,85,466,496,857,846,981,755,297,388,127,459,95,121,330,463,718,558,920,365,468,302,268,26,8,751,769,66,390,512,164,709,350,192,518,84,556,37,757,248,304,526,130,372,824,706,670,689,515,208,166,771,525,70,910,33,795,520,702,220,849,772,543,371,142,86,477,128,257,728,532,506,547,414,560,911,24,258,667,593,300,238,440,884,272,959,699,444,232,640,681,306,158,720,94,730,49,604,662,732,626,865,968,340,64,448,793,540,904,347,858,432,796,312,768,683,766,431,741,834,429,936,971,301,451,102,295,972,536,418,719,200,219,324,46,891,133,226,187,622,949,276,216,342,335,446,698,956,368,322,867,498,871,745,916,549,883,716,482,779,409,250,193,714,569,794,401,851,639,994,559,529,425,657,825,636,246,943,597,247,574,387,985,28,642,18,802,736,682,523,72,259,0,358,439,39,700,51,139,650,205,20,426,126,621,183,552,492,516,864,460,723,15,136,866,93,934,29,773,174,679,889,591,928,123,486,927,413,544,661,105,507,351,836,509,83,812,201,787,283,265,119,462,307,693,744,199,752,55,575,852,104,780,839,282,503,511,131,67,646,419,531,713,674,266,420,882,906,790,711,296,77,643,395,632,261,262,921,277,242,165,1,878,334,831,777,393,196,374,984,958,964,106,653,539,950,810,22,976,298,281,57,722,214,669,21,827,671,759,647,614,264,680,48,16,764,665,820,146,704,896,286,721,748,947,635,186,952,331,749,152,974,684,170,844,598,484,729,902,986,690,589,182,476,470,483,157,323,542,188,471,40,767,819,514,998,108,537,876,73,577,760,435,345,886,391,808,271,229,359,337,195,546,35,397,933,980,798,194,392,465,877,487,408,360,155,117,737,617,995,735,954,381,677,137,924,173,502,402,169,557,850,784,279,913,202,473,11,945,550,555,75,235,61,973,926,966,320,116,879,478,726,13,284,315,541,960,231,384,361,501,586,445,454,316,456,725,580,830,180,814,285,212,74,364,191,740,31,62,715,566,154,695,581,765,253,856,378,213,233,97,389,874,534,822,204,903,881,634,497,548,606,859,239,41,528,880,344,171,596,223,303,616,570,382,19,32,912,791,159,975,292,688,443,893,168,809,892,249,727,488,815,318,44,774,868,30,172,380,177,162,81,561,987,346,939,962,935,224,230,151,129,326,80,789,571,997,855,415,442,805,806,965,71,410,705,352,562,783,313,403,189]","arrowright","0","2","267","1000","[""0059_N1000_K0267_NOCLIQUE"",""0019_N1000_K0267_CLIQUE""]","true"
"","audio-keyboard-response","58","155161","0.0-54.0-0.0-1.0","","","","","","","","","","","","","","","","","","null","audio_feedback/right/coin01.mp3","null","","","0","2","267","1000","[""0059_N1000_K0267_NOCLIQUE"",""0019_N1000_K0267_CLIQUE""]",""
"","canvas-keyboard-response","59","155852","0.0-55.0-0.0-0.0","","","","","","","","","","","","","","","","","","580","","arrowleft","[869,89,961,945,456,274,922,198,632,113,716,590,607,235,290,431,355,263,565,15,341,154,333,952,58,246,432,505,320,439,638,880,840,667,373,478,115,930,514,533,66,808,570,515,78,950,571,445,617,548,239,77,882,659,331,996,907,128,359,7,684,621,686,356,251,159,588,41,619,150,678,446,538,135,723,348,286,917,752,474,525,639,33,117,420,183,911,806,705,56,661,989,3,396,615,859,856,63,972,510,47,138,472,994,614,463,124,575,18,476,967,670,255,224,729,631,455,352,695,564,271,418,501,787,620,521,644,537,443,200,76,196,264,969,983,772,370,378,243,454,900,830,272,866,397,185,825,793,959,529,694,346,630,530,195,712,742,719,146,494,563,8,470,269,925,506,692,699,824,139,351,707,312,30,658,579,376,363,823,400,197,753,147,112,484,971,465,745,293,816,141,794,365,414,427,417,170,541,201,622,893,51,757,738,939,957,741,31,435,936,254,889,216,253,518,764,60,207,592,265,134,878,404,394,50,975,751,301,192,233,768,45,334,795,655,430,43,870,833,991,59,958,291,496,646,817,242,502,372,803,567,569,91,416,405,64,685,287,572,13,970,189,628,80,554,992,710,814,875,802,460,234,444,29,722,960,499,100,839,778,964,477,926,941,800,543,6,277,516,704,758,180,897,158,321,600,349,584,810,920,332,788,963,450,642,528,696,898,766,82,731,65,325,428,609,623,739,103,542,611,809,457,797,223,486,473,524,213,879,702,490,828,519,791,750,693,813,842,42,597,835,883,288,984,598,903,815,248,549,697,550,566,892,362,721,194,212,314,980,901,558,669,221,801,231,157,153,492,728,53,779,663,448,11,673,188,260,2,48,168,916,733,32,602,732,374,876,305,884,703,119,129,857,130,674,999,982,520,26,844,379,755,637,145,429,306,727,789,161,953,410,275,769,568,862,137,804,978,211,384,582,68,261,481,677,730,498,214,709,493,469,375,165,441,774,726,664,822,132,202,340,735,973,215,919,993,442,855,651,227,873,770,122,555,69,74,447,322,929,411,62,653,70,627,71,93,407,962,206,834,99,998,965,905,648,399,865,172,503,24,191,689,46,829,120,681,819,754,489,247,700,295,57,509,424,645,765,595,144,776,662,423,625,155,187,4,413,954,297,79,581,433,679,560,468,181,385,281,559,483,21,583,805,311,368,367,796,918,308,500,110,75,426,14,307,849,164,171,5,908,902,44,775,313,315,934,912,49,336,924,904,350,928,285,847,268,480,544,762,488,73,863,402,720,88,517,283,149,943,72,408,665,27,337,28,933,891,495,152,593,682,422,940,820,360,401,914,927,698,761,605,310,318,848,55,84,299,23,552,35,522,610,508,361,377,838,199,225,339,278,81,387,976,782,861,203,173,715,606,148,392,133,562,393,921,20,9,345,573,162,650,279,641,364,987,938,403,652,966,599,744,841,656,895,284,852,106,121,535,466,944,990,955,711,672,330,671,932,382,946,369,114,167,725,749,867,273,169,714,282,257,748,36,811,589,280,487,526,532,412,546,210,449,885,259,85,118,298,276,0,250,327,381,462,101,87,688,910,249,760,12,539,270,39,107,586,767,556,654,888,190,95,613,587,612,604,798,633,890,485,140,16,266,736,94,846,701,217,608,218,734,858,706,390,906,335,657,209,968,344,491,421,395,67,127,292,256,371,771,97,511,594,812,596,763,948,868,262,222,601,836,724,464,574,19,354,467,740,459,156,578,151,713,10,826,507,850,220,513,821,25,37,471,561,937,864,899,300,666,409,136,461,851,245,718,208,342,479,105,347,540,319,909,545,389,717,956,205,182,123,323,737,391,324,979,874,551,22,108,131,585,947,580,267,38,238,230,163,649,743,186,436,942,635,482,845,799,175,228,640,204,626,343,636,244,708,807,419,34,843,951,90,832,328,258,756,997,931,624,437,860,576,317,785,747,629,853,236,458,643,634,647,54,523,676,534,96,827,784,660,294,126,675,780,415,915,434,179,241,142,104,52,338,383,92,691,193,1,61,353,894,949,783,366,977,877,512,792,296,985,668,896,974,232,184,451,309,386,603,453,988,304,618,854,995,790,425,177,358,981,837,303,683,887,316,178,125,557,166,219,591,98,143,176,111,536,83,116,935,406,229,475,690,452,329,786,871,160,527,102,86,388,781,398,240,680,923,326,759,818,302,773,616,886,109,40,497,872,831,252,986,289,577,504,237,17,746,174,547,553,440,357,913,380,687,531,438,881,777,226]","arrowleft","0","3","267","1000","[""0078_N1000_K0267_CLIQUE"",""0097_N1000_K0267_NOCLIQUE""]","true"
"","audio-keyboard-response","60","156856","0.0-55.0-0.0-1.0","","","","","","","","","","","","","","","","","","null","audio_feedback/right/coin01.mp3","null","","","0","3","267","1000","[""0078_N1000_K0267_CLIQUE"",""0097_N1000_K0267_NOCLIQUE""]",""
"","canvas-keyboard-response","61","157563","0.0-56.0-0.0-0.0","","","","","","","","","","","","","","","","","","597","","arrowleft","[844,335,370,815,464,420,173,431,388,635,549,461,305,480,585,17,468,652,209,158,641,699,997,409,217,441,220,446,554,108,368,899,452,153,864,410,589,877,831,576,806,994,729,943,78,999,470,90,951,907,880,360,517,136,82,275,751,432,462,168,730,416,941,548,926,141,829,293,320,875,407,472,970,568,670,341,957,372,882,137,303,856,155,509,189,106,612,211,511,396,273,343,566,711,421,551,762,88,134,564,475,418,346,947,0,805,270,249,47,702,995,33,359,353,50,304,664,820,767,781,383,811,334,55,375,541,483,46,739,692,750,648,863,291,668,890,799,694,682,698,403,615,913,395,985,574,895,503,598,150,996,412,328,298,599,745,171,214,455,333,701,736,772,642,331,83,324,527,783,278,897,73,114,502,426,825,413,909,653,575,124,42,282,678,654,960,869,186,902,614,611,613,110,117,414,440,425,32,133,119,977,299,87,983,689,636,971,975,357,465,603,915,749,787,326,703,579,883,488,777,778,234,206,731,22,148,310,802,345,741,671,547,939,474,871,809,436,965,610,938,236,456,796,286,942,569,230,149,843,847,297,323,280,101,454,516,812,706,311,508,248,801,798,931,955,873,626,56,998,60,769,656,513,824,972,684,583,584,102,524,338,349,804,367,487,63,358,401,710,267,690,287,968,255,819,93,687,827,885,655,9,544,672,38,986,904,26,542,525,433,65,113,988,665,31,677,253,210,790,336,322,916,41,103,884,99,562,330,184,59,535,144,244,735,160,294,86,424,835,467,37,28,111,382,116,789,438,313,408,724,908,591,351,190,862,484,257,853,115,164,519,466,504,120,176,469,523,125,743,226,608,607,384,54,170,634,593,840,146,543,48,4,219,16,259,722,629,619,792,768,937,479,932,878,578,808,389,442,822,471,950,49,27,704,91,962,178,126,538,268,292,531,901,497,532,329,85,814,622,10,2,473,393,813,392,347,258,172,760,185,708,448,279,242,669,732,649,785,657,742,826,733,486,361,30,481,365,57,344,127,98,97,922,317,879,557,337,376,161,860,332,40,494,688,417,581,225,859,590,6,779,616,587,914,213,143,422,151,505,536,990,645,764,265,266,301,521,216,857,402,369,490,129,180,13,928,174,381,312,423,493,204,429,123,858,621,192,691,62,252,894,89,199,936,35,232,212,77,920,76,7,288,577,867,11,444,415,271,147,307,981,45,385,881,366,240,555,946,105,64,118,912,898,223,539,647,533,15,5,718,205,489,20,327,821,458,755,501,200,756,135,617,419,496,510,605,674,979,68,245,355,169,650,854,927,276,289,507,100,851,720,25,399,637,676,974,697,651,243,142,208,618,378,107,604,231,235,193,683,550,195,94,485,891,924,606,499,354,906,679,567,753,620,713,451,695,362,861,254,888,780,491,889,515,495,348,72,437,8,140,443,406,830,221,643,175,771,340,586,570,233,845,967,673,325,285,758,121,201,512,296,534,439,284,44,838,973,79,165,795,177,21,352,194,181,387,918,752,163,782,167,364,264,667,940,229,680,274,67,182,561,715,725,112,763,522,976,892,709,23,744,765,592,663,810,602,188,594,132,803,681,183,227,786,356,300,774,834,686,528,727,588,435,685,582,363,546,224,989,3,791,560,302,321,993,390,958,966,696,953,239,716,734,754,705,526,156,430,900,552,39,187,14,215,450,719,12,723,269,565,319,646,839,237,832,923,600,58,449,506,624,318,911,445,717,868,563,159,139,19,84,571,277,954,807,463,81,852,816,29,263,315,876,638,949,36,893,80,738,627,748,666,540,896,848,945,982,925,737,707,373,572,179,961,250,886,272,290,43,817,556,963,775,833,394,658,757,128,639,262,580,514,700,984,52,520,371,919,398,529,929,34,628,630,903,759,644,846,797,66,391,218,660,836,935,53,251,281,342,874,952,203,726,434,306,400,625,553,131,74,828,246,51,500,761,823,75,841,477,959,714,478,784,339,196,849,457,964,788,207,247,427,776,411,721,122,837,934,397,595,865,154,350,866,295,693,793,71,92,492,261,609,842,379,162,476,870,61,104,386,314,559,18,238,222,482,640,631,675,978,404,138,377,202,198,380,662,872,96,518,980,316,855,405,623,632,987,197,95,152,70,800,930,428,537,308,145,766,130,374,887,992,309,633,283,545,794,991,69,24,601,459,944,596,558,850,573,1,747,661,157,228,948,597,191,740,905,956,712,746,256,917,933,773,460,447,260,910,530,109,969,728,818,921,241,770,166,659,453,498]","arrowleft","0","4","233","1000","[""0026_N1000_K0233_CLIQUE"",""0056_N1000_K0233_NOCLIQUE""]","true"
"","audio-keyboard-response","62","158574","0.0-56.0-0.0-1.0","","","","","","","","","","","","","","","","","","null","audio_feedback/right/coin01.mp3","null","","","0","4","233","1000","[""0026_N1000_K0233_CLIQUE"",""0056_N1000_K0233_NOCLIQUE""]",""
"","canvas-keyboard-response","63","159228","0.0-57.0-0.0-0.0","","","","","","","","","","","","","","","","","","542","","arrowright","[94,60,351,294,133,892,949,617,688,538,807,565,252,848,796,305,434,950,35,409,254,518,967,678,335,298,760,711,195,132,280,756,784,110,625,349,623,635,895,397,498,585,13,451,514,744,763,584,494,270,655,402,854,991,226,810,445,36,82,709,918,247,775,773,381,146,296,242,191,315,780,182,526,203,996,33,939,982,589,616,85,316,926,690,47,978,382,426,289,365,441,823,450,224,327,301,914,59,663,684,459,638,124,516,176,372,233,394,291,390,648,111,870,3,829,783,855,30,228,867,328,14,838,652,237,267,569,857,472,275,894,650,572,985,330,695,66,444,528,654,15,910,546,62,680,790,264,347,508,675,731,416,710,908,764,751,795,134,24,399,356,916,554,12,961,482,791,326,170,457,505,879,311,590,243,279,435,941,69,631,40,521,214,787,566,314,602,357,333,594,76,549,58,689,109,849,144,761,677,522,902,904,312,533,536,186,719,931,10,467,893,220,300,685,278,873,131,162,430,767,87,189,206,924,599,257,658,389,125,923,933,586,794,898,239,155,955,932,973,317,532,818,151,11,965,256,113,884,747,420,468,977,37,253,493,844,114,384,792,782,165,509,548,507,72,67,68,530,479,912,732,573,135,340,537,166,928,6,115,868,644,827,797,806,568,503,501,202,231,486,244,259,915,74,325,896,504,603,370,282,378,285,544,699,624,299,478,194,897,302,499,998,811,869,107,921,120,232,464,911,983,777,212,205,662,128,706,531,64,386,307,103,183,992,936,938,582,547,19,841,947,23,122,431,272,517,403,581,428,716,408,234,900,740,393,762,739,258,187,352,292,320,815,56,824,401,53,95,813,368,181,956,659,204,348,556,433,438,502,899,227,88,456,492,192,545,697,201,887,262,161,563,470,164,423,465,687,46,437,80,832,846,309,404,469,419,639,77,130,57,138,909,241,425,743,406,322,951,876,798,211,112,512,515,994,343,890,786,816,842,766,363,748,649,645,184,376,987,118,674,321,341,158,629,293,369,907,27,541,839,331,718,487,820,653,150,396,140,974,696,248,671,946,362,175,634,86,245,788,25,561,852,871,830,681,539,432,471,453,643,588,929,752,174,726,757,32,417,484,905,943,605,882,455,485,948,683,96,495,593,354,745,781,906,814,460,466,968,269,54,664,750,318,866,727,497,817,864,543,379,108,223,429,142,861,598,167,332,922,116,843,880,414,506,988,251,789,443,481,705,833,304,972,728,511,198,483,851,200,860,152,913,944,197,143,84,676,903,667,319,462,106,597,802,355,819,392,119,622,863,963,263,361,592,180,885,835,235,559,491,148,856,769,702,171,329,101,440,283,990,407,579,405,620,374,45,640,215,768,266,344,919,737,123,153,660,601,249,449,633,229,831,149,840,735,874,628,878,574,230,525,800,834,668,954,98,240,535,670,295,722,360,364,196,550,79,458,422,276,29,71,749,641,377,657,608,117,942,93,881,826,281,1,626,500,222,665,613,930,580,350,708,917,513,439,682,160,359,177,477,44,218,821,346,934,385,765,463,551,288,39,661,552,770,75,424,446,960,78,169,647,65,383,970,342,715,9,812,154,720,576,286,367,145,889,219,209,265,980,179,277,216,836,70,523,693,380,966,604,91,575,290,55,621,679,163,21,872,666,758,225,627,669,387,2,5,971,940,953,42,90,984,637,995,63,618,339,18,701,17,686,986,395,366,755,651,178,255,0,388,102,609,488,207,20,238,4,571,185,883,759,646,886,490,427,16,105,442,157,52,51,607,83,771,34,73,729,920,724,375,43,520,614,461,717,615,48,567,969,529,8,553,38,600,147,208,694,714,672,126,793,510,210,596,524,199,121,555,997,310,989,313,859,822,136,336,213,324,801,284,421,959,274,772,81,734,583,611,475,610,49,418,454,632,952,268,542,700,250,303,100,97,31,774,221,371,173,785,447,656,888,436,26,630,587,591,358,804,612,50,127,837,957,862,236,448,733,753,825,473,975,925,808,901,129,22,738,297,962,703,7,564,413,981,713,476,858,577,891,172,308,730,412,261,805,636,736,799,287,271,865,776,452,779,139,692,803,691,847,141,489,993,778,273,159,979,707,168,400,188,527,704,578,190,809,415,337,306,642,877,945,391,712,570,746,976,595,619,480,338,89,334,958,754,562,721,156,41,725,353,723,875,845,540,260,999,474,937,519,137,853,104,323,557,411,92,935,398,698,246,850,28,673,496,193,217,560,741,742,828,61,345,606,534,99,410,558,964,927,373]","arrowright","0","5","233","1000","[""0077_N1000_K0233_NOCLIQUE"",""0096_N1000_K0233_CLIQUE""]","true"
"","audio-keyboard-response","64","160246","0.0-57.0-0.0-1.0","","","","","","","","","","","","","","","","","","null","audio_feedback/right/coin01.mp3","null","","","0","5","233","1000","[""0077_N1000_K0233_NOCLIQUE"",""0096_N1000_K0233_CLIQUE""]",""
"","canvas-keyboard-response","65","161181","0.0-58.0-0.0-0.0","","","","","","","","","","","","","","","","","","823","","arrowright","[611,961,848,2,753,399,254,511,39,139,988,785,609,698,445,980,846,193,772,343,807,347,507,942,804,743,338,251,571,425,556,310,708,587,524,919,906,981,410,676,498,335,486,451,814,640,230,233,833,317,782,403,832,228,487,462,553,463,482,952,42,744,199,491,636,634,461,248,514,87,222,551,298,697,355,105,269,257,368,840,380,167,694,685,552,33,858,547,823,570,17,725,367,346,147,794,958,739,107,891,564,453,778,941,323,954,56,0,537,99,430,821,905,632,995,805,384,109,202,925,146,48,510,855,504,14,968,295,26,670,770,664,145,372,502,623,746,477,617,150,130,929,620,431,822,830,540,901,781,539,471,595,196,936,420,483,488,54,751,186,558,387,935,134,581,943,522,878,340,292,460,311,164,306,174,875,84,370,715,695,149,612,41,771,576,210,916,3,13,485,939,161,467,239,892,67,798,627,637,787,659,40,350,516,308,493,976,394,681,50,332,500,389,37,159,614,404,686,784,904,834,737,442,721,320,573,187,177,791,324,994,1,243,565,6,156,75,992,884,607,438,108,455,661,499,86,115,69,472,550,479,687,567,654,991,98,867,802,318,973,280,378,492,304,92,397,114,386,707,342,688,792,599,631,80,71,970,895,446,261,316,96,258,231,699,903,182,972,376,168,738,433,757,622,750,359,589,914,278,120,986,799,933,666,983,381,618,155,77,259,917,767,192,520,131,774,615,402,566,229,11,945,337,679,132,63,203,922,489,221,889,290,216,966,10,865,356,428,52,110,273,242,172,379,53,201,826,344,563,220,327,572,948,829,252,353,81,289,842,30,533,982,947,113,853,964,810,732,313,651,373,603,582,27,555,444,674,72,813,414,423,915,432,434,700,143,536,526,894,619,328,766,696,733,333,392,692,806,601,888,83,111,568,127,305,234,293,395,494,62,38,314,82,761,817,16,349,789,703,859,112,675,642,116,669,36,880,235,241,418,648,330,162,965,15,727,857,843,639,495,309,726,447,656,971,693,825,938,871,561,415,812,765,121,584,742,282,704,223,977,713,279,457,758,984,250,714,680,256,277,579,969,678,629,405,869,836,594,912,517,711,641,450,598,560,683,375,211,868,345,532,682,163,369,635,188,923,58,473,913,513,204,409,93,956,245,710,608,606,169,178,748,902,176,271,365,128,538,91,140,653,630,476,844,762,456,626,137,931,341,24,616,652,419,264,600,382,749,978,270,219,165,226,921,97,702,864,416,9,65,396,997,490,28,596,866,406,818,701,46,841,89,468,920,887,411,665,851,658,657,329,740,993,918,815,741,519,633,454,716,363,852,928,207,326,197,439,667,400,60,705,501,554,20,339,926,722,621,989,795,934,59,474,959,360,362,299,940,51,274,181,542,47,647,283,886,448,218,896,930,937,253,417,154,583,464,898,549,974,541,435,525,860,764,874,170,585,383,837,224,152,126,575,850,8,19,819,924,809,545,811,557,734,124,779,839,862,518,655,908,831,371,426,475,452,668,777,22,429,325,209,205,808,88,999,412,645,421,497,262,723,643,95,103,481,907,458,307,690,195,769,55,927,45,191,138,64,796,760,185,885,129,593,303,240,759,950,101,559,873,955,838,677,775,136,530,334,578,5,157,366,122,979,179,100,459,68,768,285,505,515,496,591,946,849,227,754,141,117,845,377,388,724,436,879,590,74,960,321,870,300,142,331,660,237,877,34,364,70,424,788,78,484,267,466,183,673,272,354,200,546,480,736,153,755,735,985,465,160,297,296,824,543,689,263,118,528,312,996,569,897,61,85,286,613,780,49,166,276,190,391,255,893,763,390,951,729,650,158,962,503,662,236,73,820,509,624,427,625,144,610,32,803,793,548,260,265,135,597,18,562,856,544,408,361,990,469,225,706,953,214,691,672,756,470,440,94,628,398,184,529,861,876,910,281,43,605,393,998,773,301,246,531,357,302,663,816,523,801,890,783,106,35,899,863,315,401,266,719,911,352,268,322,957,776,731,786,7,854,374,249,671,123,588,171,987,76,949,217,198,527,646,102,422,967,638,872,12,534,900,745,521,385,79,238,173,592,506,644,294,883,358,25,882,284,443,4,577,244,730,437,247,31,728,847,119,336,712,151,90,944,212,148,752,125,580,180,586,206,827,21,604,709,449,104,175,189,208,790,535,828,133,29,574,23,512,407,291,232,413,720,649,348,835,797,881,57,213,963,275,684,351,718,602,717,441,287,508,319,194,975,909,44,747,66,215,478,932,288,800]","arrowright","0","6","217","1000","[""0063_N1000_K0217_NOCLIQUE"",""0049_N1000_K0217_CLIQUE""]","true"
"","audio-keyboard-response","66","162196","0.0-58.0-0.0-1.0","","","","","","","","","","","","","","","","","","null","audio_feedback/right/coin01.mp3","null","","","0","6","217","1000","[""0063_N1000_K0217_NOCLIQUE"",""0049_N1000_K0217_CLIQUE""]",""
"","canvas-keyboard-response","67","162878","0.0-59.0-0.0-0.0","","","","","","","","","","","","","","","","","","573","","arrowleft","[706,392,200,787,467,802,987,718,21,102,234,215,269,109,193,81,954,377,41,205,336,537,503,927,252,3,497,387,581,98,645,341,799,870,525,635,298,410,705,986,278,355,556,405,87,110,487,842,852,418,945,913,58,209,952,877,346,354,180,178,181,382,884,786,88,140,902,407,393,668,754,165,609,985,682,203,983,562,528,908,189,290,901,135,338,948,689,522,391,856,146,196,565,33,38,868,300,817,97,463,770,892,7,74,532,287,433,963,776,163,379,111,186,596,294,801,834,29,973,498,871,375,867,199,325,524,365,929,437,198,415,177,620,507,422,127,758,594,949,623,268,740,630,647,124,168,183,541,887,352,803,350,39,4,174,995,561,656,191,747,295,15,171,419,489,11,138,259,509,512,302,712,873,677,28,150,329,727,128,267,328,761,580,895,359,555,160,600,546,179,241,144,172,289,885,959,491,858,288,147,926,465,536,210,49,472,188,775,768,602,827,293,442,920,734,722,305,265,744,608,176,832,155,880,248,703,968,687,655,14,492,335,960,970,276,16,890,875,793,966,958,859,591,872,466,292,979,104,9,130,584,941,137,430,17,212,496,931,815,279,906,161,696,222,533,118,982,270,595,589,103,167,978,6,981,35,743,753,334,36,679,554,148,539,578,321,395,62,470,782,53,483,363,669,550,766,663,977,13,299,709,531,63,932,260,337,201,691,615,369,291,218,924,80,86,916,886,861,353,545,253,429,569,156,157,824,159,622,518,187,781,643,323,376,559,621,891,214,652,771,115,731,43,275,401,132,68,282,211,46,835,453,818,586,129,20,697,22,409,821,575,71,975,120,760,572,742,765,724,805,202,733,523,25,312,640,73,399,358,707,953,909,974,93,478,506,881,851,520,50,798,427,494,967,262,30,785,96,500,436,617,274,779,229,711,306,425,508,530,224,477,357,204,396,604,878,261,864,170,245,0,965,378,616,685,169,441,865,994,690,919,145,12,702,349,420,411,101,849,961,582,311,992,542,320,921,490,366,484,903,133,388,837,767,488,898,947,549,385,309,638,398,725,730,693,18,763,444,360,938,784,164,769,297,808,26,804,122,143,131,10,698,588,612,636,461,236,928,759,672,23,332,55,816,879,833,665,428,720,327,972,495,796,380,792,764,190,499,699,342,64,106,100,431,534,173,482,625,911,695,883,192,438,141,899,788,239,246,752,678,72,714,980,219,416,576,874,809,19,633,389,641,631,651,310,745,598,454,423,686,976,574,153,256,447,485,249,560,996,940,254,142,139,76,619,866,955,125,95,627,32,936,670,105,910,59,37,502,44,553,558,464,825,557,894,434,272,273,126,471,772,108,61,443,237,606,440,315,75,223,152,51,238,748,675,244,535,607,154,134,511,597,547,449,564,452,455,361,251,213,228,962,460,24,756,445,381,585,432,421,340,473,653,330,439,435,819,671,750,207,370,450,368,313,54,726,2,710,519,797,930,451,813,749,964,216,266,406,905,845,446,99,719,468,971,888,307,969,810,614,721,666,728,568,882,257,331,717,5,795,989,243,367,704,611,67,923,713,642,162,548,826,77,113,286,493,822,741,107,240,235,85,789,997,637,233,551,316,944,629,646,386,836,404,121,402,933,42,151,413,800,737,599,708,658,250,732,417,543,526,322,317,780,48,897,390,521,863,304,208,79,566,571,343,841,232,998,942,356,458,618,412,736,123,814,774,993,715,263,688,755,567,807,657,862,84,918,603,197,373,513,92,184,860,937,573,694,271,347,372,659,527,255,676,501,855,831,570,226,900,777,791,83,552,117,284,590,610,634,448,94,751,456,806,839,680,593,119,8,283,194,912,857,301,738,844,34,91,639,854,723,264,314,112,673,681,762,644,661,662,830,538,185,893,628,613,308,692,217,583,650,773,82,457,828,683,136,56,247,479,475,469,853,504,383,69,66,333,579,660,505,790,846,794,348,896,889,838,374,716,517,78,480,601,592,529,783,424,1,915,397,632,89,339,364,182,476,990,829,984,577,318,394,935,587,700,40,45,281,459,991,746,426,225,90,624,414,811,65,739,674,242,345,371,400,230,344,729,27,664,876,116,654,812,408,848,934,684,904,351,515,510,277,486,907,195,667,626,922,939,956,540,31,544,847,514,114,462,850,60,220,319,840,280,999,362,605,869,227,324,221,957,57,649,303,481,516,914,285,988,943,820,917,823,158,47,951,326,563,701,403,735,206,925,296,384,231,52,474,258,166,843,778,946,149,175,648,70,757,950]","arrowleft","0","7","217","1000","[""0061_N1000_K0217_CLIQUE"",""0093_N1000_K0217_NOCLIQUE""]","true"
"","audio-keyboard-response","68","163891","0.0-59.0-0.0-1.0","","","","","","","","","","","","","","","","","","null","audio_feedback/right/coin01.mp3","null","","","0","7","217","1000","[""0061_N1000_K0217_CLIQUE"",""0093_N1000_K0217_NOCLIQUE""]",""
"","canvas-keyboard-response","69","164587","0.0-60.0-0.0-0.0","","","","","","","","","","","","","","","","","","585","","arrowleft","[362,499,542,656,903,3,697,126,316,810,286,406,365,862,163,993,733,927,516,591,730,22,679,602,850,18,288,822,32,323,128,711,281,448,64,239,998,200,177,263,640,393,764,569,675,480,229,671,334,816,483,763,450,261,248,864,759,950,800,827,123,90,142,804,698,515,559,382,729,37,276,152,812,609,233,529,217,108,808,736,955,434,479,594,391,673,442,148,572,581,401,895,6,21,216,538,443,293,557,79,519,204,574,897,154,291,206,634,659,839,139,374,757,727,336,941,198,130,230,654,23,231,561,202,749,946,193,773,252,652,2,399,949,971,330,125,454,674,520,935,28,786,624,530,81,702,982,475,394,348,724,833,346,48,566,360,831,852,299,464,325,205,881,425,107,957,356,857,823,209,796,977,992,29,722,521,351,260,583,186,69,803,508,12,403,784,765,626,150,735,117,172,885,127,899,760,188,493,466,676,606,797,875,383,555,264,931,381,777,636,289,350,653,829,743,149,846,463,970,699,513,282,682,914,573,975,223,238,296,24,994,106,906,124,80,678,579,990,173,980,517,85,63,825,985,788,273,175,731,313,38,481,68,387,287,232,436,921,70,308,647,514,92,879,589,847,853,511,901,746,932,14,563,17,66,226,983,5,500,598,93,390,558,235,713,926,146,871,979,342,490,171,189,778,87,114,685,967,758,989,684,161,547,295,345,102,369,892,705,138,619,703,95,386,761,540,444,997,836,570,61,378,704,628,201,560,199,58,643,728,213,588,893,349,610,707,43,512,912,503,405,245,630,379,930,494,317,372,536,498,658,910,426,920,147,838,851,160,278,690,925,961,321,693,404,959,185,332,164,131,207,467,47,937,771,567,429,952,863,488,701,637,495,153,67,433,843,73,748,380,57,799,243,435,798,410,873,8,156,845,780,612,314,105,262,236,473,527,49,44,858,354,734,592,250,565,700,880,507,301,373,907,39,740,608,465,613,267,290,891,611,820,942,526,91,94,197,537,620,999,533,841,817,590,158,431,132,409,265,802,944,385,419,753,948,762,964,182,809,669,571,240,859,447,458,355,396,582,283,333,312,889,251,318,242,438,352,298,947,194,883,603,210,568,525,815,452,649,34,599,471,546,548,688,241,168,958,143,35,15,395,768,856,945,176,468,55,256,840,712,89,789,53,486,811,922,184,42,190,972,109,457,155,898,866,169,98,708,478,375,214,631,50,234,535,116,909,118,988,696,742,545,221,801,794,432,492,915,814,641,936,269,26,137,502,51,449,504,277,824,151,320,867,694,338,472,324,335,870,337,220,420,987,725,134,544,506,918,78,890,219,677,887,962,40,660,505,596,353,644,445,687,103,167,991,616,179,680,954,305,485,367,120,136,911,4,978,639,632,509,614,585,122,437,285,133,227,996,268,835,56,861,329,322,741,662,303,208,919,311,904,966,750,667,412,551,31,83,52,7,868,96,539,225,306,59,916,218,981,692,593,769,366,642,54,661,876,183,192,331,752,877,627,13,754,865,767,415,718,462,310,203,377,326,237,474,806,77,469,651,645,166,670,963,145,272,622,212,854,309,550,828,766,389,275,416,428,793,371,580,745,45,347,414,455,747,672,266,25,284,427,27,115,531,304,497,807,510,818,633,791,900,196,328,884,783,10,951,271,476,541,297,1,398,71,695,340,141,121,625,638,623,101,491,595,270,523,315,140,586,564,710,112,905,422,882,100,246,646,456,848,775,11,621,689,20,597,805,923,84,99,408,587,830,228,826,439,16,928,787,496,74,159,917,888,9,524,487,668,739,732,776,532,528,292,744,665,451,629,0,648,319,359,860,418,973,719,110,254,244,368,984,440,129,554,969,716,681,578,461,600,549,86,88,181,33,75,986,162,556,924,872,344,562,657,721,460,751,683,424,300,459,849,104,894,215,601,72,781,576,618,343,938,255,294,430,357,821,974,534,274,913,543,111,709,370,195,772,19,441,144,819,834,376,956,929,46,358,339,249,489,605,995,62,397,738,341,577,76,522,113,119,82,361,714,482,417,715,259,247,691,364,617,407,484,174,855,726,446,575,655,756,30,666,253,869,135,720,686,607,65,413,723,939,604,896,790,180,965,770,41,222,940,191,384,874,392,178,553,886,832,844,97,400,779,837,470,187,755,650,785,774,402,664,584,663,933,165,224,60,211,902,36,976,878,943,953,635,363,615,737,257,423,411,157,908,842,388,258,170,307,552,717,792,968,453,477,795,960,518,706,934,302,280,421,782,813,327,501,279]","arrowleft","0","8","200","1000","[""0048_N1000_K0200_CLIQUE"",""0084_N1000_K0200_NOCLIQUE""]","true"
"","audio-keyboard-response","70","165609","0.0-60.0-0.0-1.0","","","","","","","","","","","","","","","","","","null","audio_feedback/right/coin01.mp3","null","","","0","8","200","1000","[""0048_N1000_K0200_CLIQUE"",""0084_N1000_K0200_NOCLIQUE""]",""
"","canvas-keyboard-response","71","166604","0.0-61.0-0.0-0.0","","","","","","","","","","","","","","","","","","912","","arrowleft","[910,38,665,171,531,435,708,570,446,574,147,510,795,420,985,322,172,604,200,508,287,314,919,379,670,193,26,915,61,42,188,935,929,83,462,709,793,54,555,777,295,565,483,87,261,625,184,539,409,17,109,498,837,425,137,320,227,699,637,846,153,81,769,770,400,294,714,733,94,569,413,606,692,966,831,571,95,392,598,164,3,876,729,676,764,529,838,561,428,879,605,623,909,787,93,145,9,679,955,49,12,546,835,615,761,284,166,939,600,72,422,649,893,303,626,782,913,496,650,642,300,897,35,267,279,813,222,75,13,32,289,643,461,924,739,324,567,213,442,735,471,249,523,495,951,859,80,429,633,50,141,926,48,587,778,240,486,971,547,931,538,943,158,686,515,405,78,601,205,5,207,433,833,79,167,811,170,174,964,673,602,91,467,402,677,940,828,212,848,852,638,250,417,475,753,554,678,840,230,111,45,67,925,309,246,887,235,619,359,190,711,399,228,394,911,704,573,941,321,801,132,564,636,614,850,819,31,368,927,742,995,135,648,784,339,747,126,116,867,382,315,822,242,647,877,519,59,841,345,163,341,672,824,827,307,895,617,680,416,178,757,810,812,661,134,881,657,62,443,815,97,419,535,740,845,585,349,578,934,775,683,346,589,156,195,989,421,484,458,756,90,330,374,4,302,299,316,737,962,232,439,275,243,487,656,481,128,305,286,183,792,719,798,385,282,872,6,632,53,254,967,378,536,675,445,56,968,947,365,823,532,256,862,491,652,151,43,281,993,104,366,352,590,630,808,199,562,490,204,752,577,960,952,33,426,259,140,257,434,705,129,11,958,616,818,216,834,112,138,525,387,950,115,621,423,186,342,766,89,528,953,304,526,595,976,500,357,783,996,854,936,537,280,551,139,455,497,86,635,57,457,376,869,363,415,494,599,177,978,517,907,690,274,39,291,451,277,127,878,160,851,522,772,105,779,258,403,37,875,247,432,252,383,860,118,362,306,723,738,285,414,560,375,40,21,479,465,311,176,662,157,765,244,725,829,731,453,776,942,100,336,47,358,161,923,377,682,460,210,30,582,613,710,69,436,245,655,622,980,906,440,609,117,168,668,488,658,511,114,520,826,634,444,597,121,888,398,335,530,592,758,348,328,788,882,687,689,181,973,899,857,512,883,450,459,908,774,803,894,732,791,946,159,185,18,52,236,144,66,123,427,885,557,270,480,722,331,276,552,146,741,41,736,131,969,948,16,350,354,809,7,319,92,987,540,999,660,830,162,108,60,866,110,404,410,674,669,310,470,196,901,318,944,209,749,516,391,593,192,478,266,746,533,218,796,237,360,308,696,438,957,986,152,1,198,620,253,825,24,745,326,821,990,217,271,58,338,298,499,430,671,558,82,353,768,468,654,612,937,241,773,694,10,651,130,804,603,572,892,644,983,706,847,922,88,918,586,355,211,865,666,832,920,959,408,337,903,386,351,896,917,836,583,759,344,251,482,611,842,639,501,106,489,702,891,902,645,544,701,707,65,187,800,431,618,691,997,724,393,329,19,55,466,278,412,684,288,136,220,15,29,64,541,456,424,395,297,685,388,325,312,631,120,504,219,449,730,22,411,548,566,36,122,221,389,933,148,763,584,437,292,263,534,208,165,474,255,201,507,681,23,485,762,214,698,754,84,718,340,954,396,949,265,858,133,234,506,96,713,664,580,994,890,380,963,545,970,224,347,817,715,916,28,751,594,727,760,900,107,977,260,264,223,568,34,588,25,448,464,262,789,871,653,576,667,293,229,981,700,503,27,697,806,361,904,169,175,332,473,296,975,802,550,805,965,323,863,317,607,721,527,268,797,154,99,984,238,8,921,513,856,880,889,663,269,930,717,514,44,149,703,233,334,441,20,194,556,124,372,928,370,197,180,155,553,750,2,853,988,855,46,51,864,272,367,472,273,226,596,102,283,807,755,712,820,477,406,418,992,608,874,521,101,63,173,518,956,469,333,744,542,373,182,991,397,70,239,142,206,873,771,215,748,76,150,290,356,98,624,814,646,794,113,998,659,381,313,189,695,932,225,231,641,125,371,390,401,781,780,886,982,493,816,579,961,143,743,509,452,203,790,688,505,799,492,914,327,343,627,610,861,628,726,868,68,767,693,898,905,454,119,785,849,884,364,974,720,716,728,103,384,591,870,559,74,979,179,447,524,463,407,301,581,476,73,14,369,839,563,77,734,575,938,629,71,248,0,786,640,191,843,502,945,549,85,912,972,202,844,543]","arrowleft","0","9","200","1000","[""0077_N1000_K0200_CLIQUE"",""0056_N1000_K0200_NOCLIQUE""]","true"
"","audio-keyboard-response","72","167606","0.0-61.0-0.0-1.0","","","","","","","","","","","","","","","","","","null","audio_feedback/right/coin01.mp3","null","","","0","9","200","1000","[""0077_N1000_K0200_CLIQUE"",""0056_N1000_K0200_NOCLIQUE""]",""
"","canvas-keyboard-response","73","168331","0.0-62.0-0.0-0.0","","","","","","","","","","","","","","","","","","614","","arrowleft","[48,333,559,200,645,447,361,941,689,434,284,869,188,386,679,218,773,212,27,299,896,242,755,502,721,230,983,918,635,36,661,893,701,873,65,370,595,771,314,120,304,732,241,644,806,44,930,420,272,992,19,854,657,881,181,213,819,393,682,949,433,417,868,421,257,524,887,260,852,480,243,418,234,829,362,836,86,917,546,672,93,388,604,408,430,60,911,618,823,132,619,683,621,92,472,912,792,676,834,461,451,610,70,922,967,437,815,179,443,88,59,860,225,114,78,560,986,612,953,444,20,634,664,656,505,28,151,467,85,456,520,710,155,12,50,725,38,513,150,583,116,699,552,154,309,216,993,585,880,337,79,394,867,940,833,142,252,104,575,750,814,236,812,974,209,563,655,488,244,278,972,675,423,378,71,82,702,877,878,693,445,592,403,424,857,138,298,326,591,137,984,315,525,35,764,737,432,895,789,0,647,72,741,746,790,45,726,711,772,825,448,97,125,739,886,793,249,395,22,952,589,547,500,327,369,335,269,730,778,157,279,884,286,556,310,813,817,201,300,214,759,734,951,763,758,115,980,376,932,32,140,261,706,239,876,776,914,832,961,570,694,118,999,975,709,684,788,355,542,727,336,2,571,518,128,939,707,84,674,265,401,345,897,173,292,600,617,935,760,163,511,147,574,474,954,318,363,826,276,347,885,643,205,620,910,690,933,74,976,222,311,18,714,973,628,720,850,360,172,47,603,554,931,63,293,580,493,521,178,351,579,651,937,830,101,724,379,325,894,383,605,438,392,581,263,39,52,471,652,391,915,519,473,119,794,847,851,87,512,184,271,528,301,614,503,31,399,64,497,49,11,162,136,957,805,582,99,143,8,705,744,623,569,171,966,733,295,625,979,855,945,712,198,13,387,890,148,938,561,948,16,410,425,402,977,629,787,23,100,608,229,588,696,959,316,159,187,411,204,906,334,170,578,274,703,487,176,872,903,883,540,206,56,29,735,649,145,313,971,112,809,308,671,177,7,413,468,158,593,982,366,892,343,477,849,956,371,275,146,476,820,264,627,489,283,194,231,9,470,24,469,807,665,681,985,409,594,748,384,37,250,121,905,372,98,609,723,902,483,365,704,824,55,573,662,997,584,831,557,169,987,446,978,781,422,117,969,844,240,508,858,267,798,103,749,590,541,900,767,312,639,862,152,783,291,495,994,958,538,33,165,562,436,462,555,839,247,544,708,891,130,526,455,811,950,232,352,396,668,160,786,934,226,175,965,440,800,224,431,768,988,62,550,740,551,654,478,10,507,861,217,632,108,871,666,970,960,482,297,463,501,650,400,464,303,106,457,296,479,685,770,716,558,947,942,245,504,53,189,381,42,673,144,94,306,307,936,742,407,459,89,572,331,864,75,329,989,841,282,753,426,845,492,803,390,25,442,962,289,534,713,237,491,756,185,174,277,828,597,199,168,964,95,843,719,246,729,210,324,76,133,412,494,775,780,21,280,757,659,228,195,955,135,822,348,611,539,837,506,549,380,149,156,631,731,183,943,294,69,838,785,916,691,636,522,718,382,981,375,141,83,859,43,453,377,319,543,285,122,287,126,449,123,517,51,533,587,404,641,330,816,667,795,248,677,782,262,599,529,4,91,253,669,131,41,406,428,110,722,577,429,458,203,545,266,414,904,127,899,34,344,840,398,357,865,46,774,779,358,509,349,901,913,364,256,124,586,328,180,908,26,353,698,738,990,637,332,680,640,717,846,498,715,339,515,754,385,57,273,40,356,320,102,367,888,439,346,111,288,946,924,856,211,435,663,615,368,223,270,113,642,568,305,842,302,342,907,670,686,54,510,317,90,923,536,761,745,452,660,898,678,161,67,5,15,219,777,514,359,747,622,736,193,626,321,490,3,630,692,427,496,998,926,350,238,73,804,548,322,567,921,648,450,909,827,821,801,870,196,58,762,454,607,281,66,202,466,220,523,527,889,633,799,484,616,182,606,415,354,290,697,68,565,153,416,460,134,190,105,139,77,397,638,374,920,818,766,340,268,784,80,129,700,215,465,601,769,728,61,207,341,925,251,532,499,6,441,882,486,14,687,531,373,164,338,537,485,323,797,576,566,221,613,516,765,919,835,475,743,166,81,254,602,107,553,875,96,109,191,866,598,419,30,208,879,996,808,255,167,752,944,928,405,695,233,995,235,186,929,227,535,874,653,991,481,848,197,258,624,658,810,259,564,646,192,968,688,530,796,791,863,751,389,596,17,927,963,853,802,1]","arrowleft","0","10","183","1000","[""0089_N1000_K0183_CLIQUE"",""0043_N1000_K0183_NOCLIQUE""]","true"
"","audio-keyboard-response","74","169348","0.0-62.0-0.0-1.0","","","","","","","","","","","","","","","","","","null","audio_feedback/right/coin01.mp3","null","","","0","10","183","1000","[""0089_N1000_K0183_CLIQUE"",""0043_N1000_K0183_NOCLIQUE""]",""
"","canvas-keyboard-response","75","170076","0.0-63.0-0.0-0.0","","","","","","","","","","","","","","","","","","617","","arrowright","[476,451,397,677,10,302,288,348,474,230,706,884,928,286,437,561,724,424,8,528,50,453,134,696,394,697,132,824,298,384,972,624,773,124,2,68,521,379,620,497,489,790,760,775,792,723,576,117,390,223,815,776,368,338,702,207,699,92,393,431,795,382,980,562,503,63,644,271,432,534,694,879,517,532,239,428,570,539,408,481,933,495,55,718,582,924,974,22,342,856,202,151,673,601,799,541,75,206,747,162,822,867,903,931,919,417,218,296,345,727,614,594,252,891,540,238,752,84,308,24,565,26,367,101,940,216,145,654,643,838,610,946,758,589,777,567,439,131,661,477,860,429,573,353,572,853,835,683,563,161,67,979,848,811,210,669,143,28,623,375,335,43,876,149,906,198,826,618,320,463,500,631,1,343,966,611,571,244,667,907,184,870,414,90,923,355,736,129,627,403,412,622,566,772,952,196,21,936,737,945,309,954,715,670,869,386,845,45,185,996,154,766,986,231,258,415,29,989,450,626,883,421,164,273,484,195,305,141,553,646,599,263,944,796,380,307,438,690,157,56,855,208,538,769,530,637,492,435,370,918,220,709,6,970,810,212,887,569,657,112,645,820,110,997,467,648,323,722,347,965,825,616,478,619,634,356,51,866,741,705,949,205,121,714,245,912,652,962,633,177,519,550,544,529,192,968,359,520,276,105,27,801,445,533,660,793,107,666,186,659,885,592,649,868,64,434,483,232,82,899,114,612,711,564,653,47,456,588,430,613,655,201,755,197,113,447,70,693,593,703,854,371,719,908,809,194,142,608,325,938,875,11,536,237,917,948,416,349,426,490,39,153,222,930,837,896,240,115,585,388,246,580,85,122,339,9,739,729,844,781,708,116,422,53,167,925,591,61,984,260,344,392,313,927,227,160,217,600,318,176,190,804,354,311,242,171,385,37,812,330,130,502,746,229,289,771,604,214,128,406,480,264,559,423,937,638,721,329,457,420,915,816,916,14,247,234,991,602,314,362,72,598,750,253,819,575,120,109,964,301,651,893,982,282,537,73,60,493,87,158,189,782,34,179,352,674,969,785,20,387,304,473,436,465,609,920,150,994,744,458,133,135,292,3,178,956,897,672,955,548,873,479,700,35,440,504,448,327,297,663,717,346,963,524,983,583,821,180,630,911,193,46,449,629,442,759,5,433,840,80,381,152,960,543,847,882,405,159,299,469,331,374,800,81,77,319,939,268,678,391,950,182,731,863,228,54,788,243,33,526,926,910,525,797,551,147,973,281,765,461,808,880,377,499,749,287,204,127,988,48,91,506,784,947,977,843,488,277,846,173,710,712,560,738,961,713,584,547,322,791,829,904,894,913,886,226,761,468,902,512,219,357,668,546,684,953,632,272,16,279,18,615,993,617,901,732,726,17,830,328,587,475,98,730,578,922,685,794,864,742,38,444,401,676,586,757,236,527,259,102,957,859,58,294,163,221,485,148,836,767,650,203,510,452,496,577,892,88,250,733,104,99,998,211,155,455,425,31,780,334,365,515,658,441,486,333,290,806,446,511,265,990,597,595,108,871,803,65,943,372,295,753,720,523,241,662,32,71,52,316,95,789,62,507,798,341,283,865,779,707,513,326,235,813,689,992,542,556,285,579,411,642,269,224,79,664,78,170,802,501,49,862,89,389,4,878,786,443,985,681,97,535,818,558,914,857,262,350,787,181,942,351,647,740,656,248,628,909,581,828,827,369,778,768,30,505,751,861,728,596,146,849,555,671,366,698,641,255,373,754,454,509,734,96,518,929,399,621,574,850,932,125,682,665,487,213,300,491,640,716,358,256,23,293,743,396,398,280,419,823,312,686,123,395,310,188,144,172,951,831,981,898,531,225,165,959,306,376,332,25,361,40,69,66,704,516,249,251,402,514,606,275,833,83,400,360,701,169,522,679,200,7,409,175,839,215,691,59,427,552,554,466,119,976,183,464,494,745,639,763,257,315,166,13,978,378,472,814,191,470,74,138,680,267,774,274,877,975,317,852,881,410,687,460,76,126,404,735,905,545,284,209,987,549,86,324,482,817,44,111,842,764,42,174,418,967,168,999,762,471,498,270,675,254,900,462,895,695,834,36,692,832,603,140,995,889,321,0,783,636,858,291,383,93,748,971,266,337,568,137,94,874,103,508,336,888,57,725,557,118,635,139,19,921,363,303,625,688,934,340,958,413,233,278,12,364,941,106,872,841,459,770,605,807,935,607,890,100,851,15,156,261,805,199,407,756,41,187,590,136]","arrowleft","0","11","183","1000","[""0087_N1000_K0183_CLIQUE"",""0021_N1000_K0183_NOCLIQUE""]","false"
"","audio-keyboard-response","76","171089","0.0-63.0-0.0-1.0","","","","","","","","","","","","","","","","","","null","audio_feedback/wrong/error01.mp3","null","","","0","11","183","1000","[""0087_N1000_K0183_CLIQUE"",""0021_N1000_K0183_NOCLIQUE""]",""
"","canvas-keyboard-response","77","171310","0.0-64.0-0.0-0.0","","","","","","","","","","","","","","","","","","109","","arrowleft","[585,272,437,119,553,968,751,567,205,371,300,513,713,382,579,728,518,265,643,850,904,134,326,488,878,201,771,769,521,306,520,695,458,891,909,409,367,970,760,607,344,88,448,96,317,273,641,678,22,879,825,984,355,897,10,776,767,822,504,512,84,462,311,933,802,660,817,330,132,546,342,677,449,975,533,889,401,803,636,945,388,896,486,89,208,921,845,445,27,622,398,971,336,539,82,290,389,877,69,210,540,133,542,338,633,691,789,138,621,131,412,894,709,593,173,995,145,221,164,238,989,98,873,783,829,717,235,882,403,325,30,118,799,786,456,168,25,294,742,188,788,671,243,181,949,530,867,710,257,148,492,931,583,652,719,953,547,146,472,162,529,544,959,263,527,147,580,359,166,321,295,685,158,966,380,490,103,493,200,816,868,702,466,362,2,333,588,288,560,524,383,787,893,714,614,457,407,558,122,39,543,184,757,286,24,620,531,522,360,163,266,484,860,20,749,940,37,837,573,951,76,662,615,86,117,707,632,474,431,444,340,368,763,127,895,410,773,772,918,517,72,790,52,343,874,68,656,170,561,955,315,670,654,233,376,28,569,483,913,730,841,584,780,819,609,648,378,735,229,36,319,869,820,598,159,381,310,217,477,538,182,960,659,223,377,406,153,958,476,681,278,247,424,854,242,400,370,809,761,612,826,980,597,929,545,764,193,840,994,102,793,982,603,461,105,647,478,846,226,842,34,550,686,708,57,535,56,872,704,596,320,92,996,792,978,642,699,356,161,731,697,327,58,934,391,399,198,369,991,505,464,666,941,112,718,142,965,151,990,167,287,374,225,199,361,901,124,231,218,442,914,70,983,54,61,269,279,811,563,511,856,721,785,976,554,555,661,328,644,260,698,986,722,75,428,992,589,993,435,357,870,365,375,67,283,323,669,782,919,506,408,770,565,305,64,280,152,739,684,853,237,63,250,972,33,663,429,12,197,852,352,385,191,100,798,196,552,202,434,627,240,415,673,903,611,230,44,688,720,416,83,892,515,15,393,113,827,703,455,241,507,653,683,932,150,910,687,46,176,981,657,916,485,394,348,629,169,806,213,177,680,284,137,977,104,384,855,139,886,525,532,675,601,252,481,694,494,447,905,495,349,185,450,961,251,174,665,861,604,804,700,796,114,762,920,372,847,395,784,463,23,692,397,262,232,128,794,298,299,387,268,928,475,489,591,862,234,204,613,743,987,364,765,570,865,207,690,908,729,501,258,74,564,136,726,838,312,479,514,536,430,936,282,551,745,115,859,203,467,289,259,758,939,366,497,651,209,576,186,154,526,79,575,31,672,948,302,491,957,637,900,753,183,528,906,276,608,571,887,106,440,590,964,73,301,91,309,71,465,907,110,979,912,125,631,90,943,635,737,81,396,438,19,566,534,29,32,600,508,857,800,17,777,460,954,9,156,322,557,248,95,824,839,805,851,947,219,334,392,160,523,308,884,815,756,253,883,0,293,658,638,307,66,619,43,94,195,353,944,332,581,270,818,468,836,911,313,775,459,4,902,705,314,178,626,390,927,725,245,741,345,324,898,516,881,87,402,734,141,480,267,341,473,864,831,625,386,748,496,411,844,650,246,436,828,264,452,848,926,42,537,624,404,890,194,281,503,49,923,880,715,303,5,149,275,227,833,821,674,85,801,215,144,706,192,140,216,97,351,578,950,329,21,723,427,261,224,274,60,155,120,586,572,354,646,752,425,541,808,664,985,108,433,130,871,254,172,509,602,639,649,18,922,363,175,956,791,693,617,750,93,925,337,228,179,716,417,26,498,744,679,755,630,774,239,610,935,701,129,502,623,500,441,35,80,915,640,48,510,634,214,813,682,969,180,577,107,222,876,548,99,121,236,967,346,834,807,733,519,885,358,732,62,487,420,963,559,973,11,339,285,256,875,439,418,628,77,754,655,50,594,101,316,711,562,40,255,78,938,109,556,187,212,740,997,1,917,814,930,206,454,297,469,6,470,482,65,549,419,766,574,779,171,863,843,812,866,414,937,592,422,667,126,220,974,271,331,189,781,823,587,451,453,962,296,116,795,446,14,38,47,421,405,111,292,443,832,810,738,605,830,668,413,426,835,55,849,423,277,946,335,244,676,123,747,768,778,606,471,599,952,304,249,712,7,797,45,51,3,759,568,888,618,595,16,41,135,13,942,157,432,899,582,924,736,8,190,616,165,211,696,746,318,499,59,373,988,724,689,999,53,858,347,143,645,291,998,379,350,727]","arrowright","0","12","167","1000","[""0042_N1000_K0167_NOCLIQUE"",""0100_N1000_K0167_CLIQUE""]","false"
"","audio-keyboard-response","78","172320","0.0-64.0-0.0-1.0","","","","","","","","","","","","","","","","","","null","audio_feedback/wrong/error01.mp3","null","","","0","12","167","1000","[""0042_N1000_K0167_NOCLIQUE"",""0100_N1000_K0167_CLIQUE""]",""
"","canvas-keyboard-response","79","172757","0.0-65.0-0.0-0.0","","","","","","","","","","","","","","","","","","323","","arrowright","[187,231,59,842,356,723,782,117,371,793,760,64,180,902,125,992,784,36,261,968,739,524,631,281,427,372,821,100,21,259,114,146,735,228,815,607,714,433,115,429,14,794,175,349,422,495,934,251,62,278,665,506,350,198,697,634,391,761,341,496,18,906,562,783,686,473,216,103,584,706,808,683,235,220,417,379,659,196,618,666,167,287,368,675,26,31,922,456,636,870,999,126,56,462,137,81,144,820,157,398,61,520,43,482,548,510,586,989,672,148,82,709,505,321,142,655,598,108,671,445,498,854,595,707,978,227,289,452,48,527,366,160,868,635,166,900,486,563,384,244,169,601,895,89,39,352,602,383,60,525,102,662,861,500,965,234,178,597,489,979,831,441,929,585,835,874,855,908,348,796,171,152,961,911,974,800,676,721,948,30,193,679,191,338,111,96,214,162,101,74,641,837,69,110,747,696,980,324,910,121,763,767,394,347,996,778,810,202,215,184,442,724,128,774,463,236,753,16,640,847,24,936,269,804,987,593,470,816,725,149,887,758,44,567,387,310,860,708,540,1,661,838,853,777,424,377,209,884,75,940,514,185,825,388,737,799,68,648,296,393,529,294,678,947,177,106,49,432,559,3,933,568,262,802,687,862,985,99,684,448,325,32,651,376,711,705,222,750,282,539,33,566,254,301,775,712,307,905,604,557,150,268,983,915,45,830,827,218,210,935,698,407,504,843,389,322,28,850,605,879,468,797,374,91,642,866,27,480,700,501,435,764,401,762,143,250,225,277,337,751,555,300,63,969,477,822,292,357,392,438,840,533,904,658,964,594,528,454,538,577,927,15,168,717,230,716,576,331,354,306,410,656,914,42,233,606,84,894,913,771,73,826,552,273,772,909,291,309,333,303,670,319,295,919,353,918,876,370,973,397,713,932,614,116,958,954,416,232,453,12,279,937,669,663,692,872,951,521,400,182,297,715,664,415,312,399,255,564,192,921,172,439,971,519,779,252,256,247,581,583,471,649,749,23,72,907,811,897,361,569,766,959,345,732,844,981,11,249,680,50,691,892,245,409,6,561,40,280,865,625,199,176,186,447,630,22,849,2,203,365,385,413,139,173,790,41,461,428,798,603,490,320,265,997,194,690,536,628,946,328,970,864,240,459,589,450,479,316,632,346,4,549,396,741,380,238,674,308,323,832,326,880,518,871,25,472,938,286,694,977,729,553,993,334,88,512,841,138,645,237,828,298,982,813,499,756,364,408,66,544,939,443,373,885,53,263,619,757,293,359,55,746,124,920,327,112,206,154,916,207,58,475,10,38,647,768,507,457,87,571,984,283,945,223,693,425,534,668,318,637,474,444,423,960,883,550,599,924,151,546,573,274,411,633,485,304,179,869,886,928,94,20,313,787,791,314,118,950,302,419,789,556,200,305,730,560,962,660,163,806,891,46,403,132,476,554,127,896,7,720,381,140,610,522,358,923,551,776,792,650,174,311,97,159,702,9,856,846,780,582,412,626,404,836,829,95,881,181,531,243,464,378,136,956,440,421,77,809,833,942,701,801,703,119,414,339,852,484,889,170,239,623,465,994,622,369,79,638,590,588,164,903,975,122,458,955,158,731,329,952,284,189,258,917,673,395,492,93,83,734,267,351,733,517,98,621,834,530,161,931,418,957,677,229,494,814,330,752,963,953,221,197,213,591,888,867,70,754,130,54,508,807,502,748,460,315,926,183,242,343,785,988,208,543,819,941,224,363,67,212,565,402,257,420,966,270,812,503,727,188,781,275,570,653,344,80,998,92,35,85,478,541,266,513,873,890,773,878,455,624,355,135,271,991,17,859,617,639,113,596,976,78,483,646,336,205,362,848,893,912,667,90,285,738,360,657,542,615,600,76,612,204,722,509,616,579,497,145,627,587,190,967,547,685,537,755,86,264,107,611,467,857,211,367,718,141,5,817,898,901,375,858,104,131,523,226,699,57,342,788,406,608,382,532,134,241,47,795,863,726,695,434,742,65,743,260,535,217,153,578,335,744,276,736,272,248,71,990,446,466,682,299,451,195,219,769,818,943,390,824,704,558,317,770,37,877,545,643,0,925,430,165,580,620,745,995,526,487,515,689,426,728,845,609,109,449,493,930,823,469,986,253,516,13,405,491,29,654,644,123,740,34,481,386,652,120,129,710,488,201,437,882,572,19,972,851,133,949,786,719,803,681,899,592,332,839,688,805,340,629,156,574,944,759,155,290,875,52,147,613,288,105,51,436,575,246,511,8,765,431]","arrowright","0","13","167","1000","[""0073_N1000_K0167_NOCLIQUE"",""0099_N1000_K0167_CLIQUE""]","true"
"","audio-keyboard-response","80","173760","0.0-65.0-0.0-1.0","","","","","","","","","","","","","","","","","","null","audio_feedback/right/coin01.mp3","null","","","0","13","167","1000","[""0073_N1000_K0167_NOCLIQUE"",""0099_N1000_K0167_CLIQUE""]",""
"","canvas-keyboard-response","81","174327","0.0-66.0-0.0-0.0","","","","","","","","","","","","","","","","","","456","","arrowleft","[818,966,547,633,132,458,92,654,430,947,470,985,3,731,249,530,900,270,432,672,64,898,26,915,725,720,205,989,18,934,809,866,668,765,889,908,75,723,544,615,917,808,463,793,279,41,241,251,62,658,290,1,355,931,477,497,282,365,122,353,860,600,518,213,555,44,459,876,571,364,154,260,141,959,376,676,891,768,478,746,347,238,507,434,166,638,462,217,888,412,416,247,273,983,764,16,611,683,801,712,523,557,436,892,453,686,538,407,855,192,706,281,474,216,183,393,937,874,426,894,319,619,243,350,711,330,847,56,447,651,739,887,368,185,431,777,193,335,452,933,679,928,702,267,763,100,828,332,48,126,591,240,283,66,481,552,329,275,171,5,305,129,827,344,575,821,125,522,52,374,532,730,570,395,910,773,955,610,789,441,950,607,670,630,945,435,37,716,302,623,857,383,863,76,907,378,634,649,965,635,854,512,543,869,797,388,957,77,794,232,505,881,14,362,990,926,975,824,565,727,941,682,680,529,919,729,554,958,803,486,576,663,525,42,8,422,110,391,517,977,96,901,551,496,550,595,976,157,656,674,460,11,811,580,718,815,397,906,948,531,625,759,43,932,715,487,164,159,852,90,488,156,262,336,549,152,675,944,287,118,810,791,885,33,783,704,922,767,65,389,853,208,78,650,757,136,780,696,427,620,32,867,98,259,756,835,466,22,671,760,664,524,563,123,678,970,865,323,146,429,464,194,846,179,784,172,342,237,798,721,772,373,271,995,274,978,796,644,21,637,752,333,309,425,589,473,252,735,705,381,629,310,903,12,748,229,856,15,445,832,912,812,160,250,691,927,138,150,734,776,354,583,201,501,210,284,736,195,728,317,961,288,520,128,568,802,351,455,175,606,414,700,292,925,131,667,149,448,708,178,85,956,9,641,19,327,890,566,298,40,108,173,91,246,204,120,83,993,121,895,698,233,258,239,145,191,264,528,771,996,769,621,95,612,814,60,578,314,916,190,155,143,841,289,616,533,313,868,859,189,119,493,872,632,893,605,225,242,870,457,923,701,755,23,341,124,421,781,880,504,295,345,624,724,58,357,879,829,980,515,840,385,31,322,0,444,645,751,873,468,482,99,844,842,924,367,536,558,469,369,440,495,272,144,104,423,545,662,604,415,420,334,186,366,325,849,87,510,539,377,308,312,883,597,130,89,103,349,371,669,758,930,113,754,484,877,428,592,346,697,109,875,38,588,685,627,713,548,851,394,541,819,29,49,47,913,537,234,561,236,960,833,511,139,315,845,68,410,45,786,598,741,115,321,534,170,67,799,579,111,46,401,363,456,318,148,770,535,70,107,862,790,300,231,134,750,215,559,929,442,805,398,196,86,974,601,276,187,306,498,709,884,343,223,684,843,297,986,949,761,303,939,882,707,710,211,778,230,182,80,24,940,316,176,358,792,848,806,834,167,188,494,626,71,10,586,813,569,508,943,987,514,807,991,147,6,905,127,918,653,57,443,59,55,817,490,375,439,93,203,972,340,646,79,17,326,871,479,617,506,661,404,500,222,286,299,465,640,209,471,787,226,307,979,963,403,688,114,839,749,942,227,151,774,50,165,820,954,228,902,782,449,564,255,946,747,467,659,379,261,102,743,492,54,647,556,168,328,636,294,911,499,593,285,135,936,382,491,526,331,726,602,935,753,424,446,361,419,253,850,153,304,542,982,206,13,27,546,521,921,553,133,587,953,348,359,618,39,180,694,622,785,372,573,628,161,971,202,904,158,406,973,296,594,221,952,795,53,88,405,184,390,899,689,437,719,97,660,527,235,666,703,2,101,836,177,269,7,998,878,476,968,665,408,280,745,502,106,418,278,699,417,339,69,673,642,766,224,409,51,639,137,396,174,218,599,181,163,838,804,73,81,677,370,631,775,200,693,20,823,451,94,402,220,896,438,461,831,112,198,516,567,519,609,400,562,788,738,816,380,352,681,695,608,433,197,914,509,997,63,277,337,72,981,613,858,142,825,967,411,356,387,140,596,266,962,84,392,28,800,513,733,837,992,36,938,861,864,988,293,503,692,472,572,560,657,483,219,951,603,116,690,742,245,82,489,212,590,320,614,248,25,214,652,585,454,301,384,338,61,762,480,311,717,886,485,268,105,199,643,244,744,655,207,35,574,34,169,994,740,984,779,450,687,714,399,920,722,74,897,826,830,254,540,584,822,30,475,648,581,265,732,360,577,964,162,257,4,737,582,256,999,263,117,291,909,969,386,413,324]","arrowright","0","14","150","1000","[""0005_N1000_K0150_NOCLIQUE"",""0085_N1000_K0150_CLIQUE""]","false"
"","audio-keyboard-response","82","175338","0.0-66.0-0.0-1.0","","","","","","","","","","","","","","","","","","null","audio_feedback/wrong/error01.mp3","null","","","0","14","150","1000","[""0005_N1000_K0150_NOCLIQUE"",""0085_N1000_K0150_CLIQUE""]",""
"","canvas-keyboard-response","83","175839","0.0-67.0-0.0-0.0","","","","","","","","","","","","","","","","","","385",""," ","[294,352,613,223,580,688,526,92,764,959,422,349,310,642,905,590,270,177,979,487,624,611,638,192,699,865,84,379,415,124,174,836,224,210,158,655,909,686,886,873,52,205,43,431,472,941,134,855,509,505,496,528,161,666,471,228,280,133,67,262,665,521,910,604,69,132,975,875,792,462,940,927,711,780,677,323,191,582,788,564,914,557,961,304,825,401,123,935,656,282,206,500,850,507,645,341,717,4,793,887,571,674,108,663,89,527,802,957,546,570,574,536,968,212,931,322,994,257,761,274,552,498,901,6,204,79,298,353,684,236,771,445,732,828,965,72,537,653,729,215,268,405,916,696,364,996,899,661,246,553,400,851,1,599,160,392,754,541,96,83,253,403,201,973,845,518,181,814,475,762,779,533,186,247,289,949,864,924,493,150,12,716,184,171,233,34,371,660,384,786,983,85,57,115,337,311,587,129,506,637,258,615,93,896,117,671,331,376,531,178,202,26,550,834,808,928,452,377,603,749,292,870,225,488,639,724,714,386,566,635,510,88,809,200,244,152,120,712,162,720,335,489,312,249,997,300,517,440,567,879,125,795,344,672,584,883,474,408,167,345,396,708,154,216,984,559,888,680,476,372,583,380,157,892,890,974,424,484,68,20,467,185,42,381,367,143,706,796,988,13,843,543,455,190,75,366,259,980,482,203,155,459,151,136,950,746,530,231,939,730,481,357,953,602,631,301,579,199,548,196,701,900,450,56,106,568,483,87,55,419,250,923,91,448,25,565,73,264,733,942,107,573,748,654,47,454,723,299,804,145,641,492,560,148,100,3,911,135,439,731,846,978,595,816,591,441,577,269,356,529,207,2,976,742,65,307,103,375,819,214,340,485,480,662,759,279,871,460,820,698,964,295,721,643,906,815,767,50,398,153,857,877,926,5,867,395,362,24,782,273,303,852,513,302,540,697,667,328,807,785,497,952,998,285,98,971,535,502,435,169,51,343,844,772,278,438,794,242,111,37,227,581,741,989,447,944,287,81,261,922,562,781,703,237,970,884,501,986,889,629,738,679,692,142,561,659,831,592,333,681,140,413,618,220,128,907,693,522,176,930,473,769,619,54,53,908,747,936,494,426,313,443,647,23,514,943,175,878,869,119,449,170,948,556,271,326,777,817,432,951,725,621,880,833,539,15,894,70,240,726,598,912,374,48,230,314,226,745,919,324,30,773,490,389,238,420,798,609,470,790,360,347,766,31,842,634,27,622,995,760,848,263,555,991,433,390,702,305,586,990,284,321,99,255,594,248,704,188,669,838,709,695,821,297,818,832,770,339,382,840,596,416,320,427,412,715,946,648,728,359,10,114,554,736,713,232,346,423,967,281,342,811,217,332,606,368,410,853,872,290,316,805,668,876,617,194,915,593,520,516,465,783,33,391,632,776,861,308,658,860,40,854,315,62,523,646,789,479,144,147,630,9,945,104,95,904,288,753,955,614,937,830,859,436,775,849,778,929,296,722,874,361,640,791,411,757,947,542,797,86,499,399,981,180,765,402,327,826,835,325,623,276,183,813,397,163,234,39,404,897,461,898,933,469,429,14,985,755,127,538,245,739,444,670,38,59,750,41,863,744,868,256,442,283,787,369,486,139,727,172,164,585,105,74,799,893,44,917,992,644,740,636,628,934,710,558,22,241,239,839,60,110,414,913,545,254,551,116,576,466,293,209,734,718,468,610,218,823,544,425,407,824,182,687,633,451,49,625,601,394,76,28,774,409,446,63,532,707,752,330,903,549,252,519,277,159,197,768,690,45,7,251,938,149,589,837,260,141,963,751,32,977,700,266,11,588,683,221,122,534,146,735,387,491,858,385,71,222,195,664,291,827,388,801,966,338,126,547,8,265,649,616,458,213,80,29,525,457,58,137,902,987,64,511,676,334,503,329,286,189,678,800,370,578,954,982,803,198,0,318,378,763,219,61,66,969,165,856,355,829,365,627,652,179,437,358,243,962,464,673,267,705,109,21,478,434,866,504,881,597,572,373,960,46,810,932,348,78,999,18,784,336,94,737,193,605,920,956,211,275,350,131,187,354,600,306,421,608,82,620,393,166,675,921,847,272,35,743,173,351,691,495,882,463,512,453,612,972,102,841,319,812,477,101,806,36,77,168,383,682,862,130,112,524,891,575,607,895,156,685,456,758,418,430,651,925,138,235,626,113,229,694,822,406,118,363,719,993,16,208,90,515,569,689,958,428,97,417,19,508,918,121,563,309,756,650,657,317,885,17]","arrowright","0","15","150","1000","[""0004_N1000_K0150_NOCLIQUE"",""0020_N1000_K0150_CLIQUE""]",""
"","audio-keyboard-response","84","176921","0.0-67.0-0.0-1.0","","","","","","","","","","","","","","","","","","null","audio_feedback/shuffles/shuffle01.mp3","null","","","0","15","150","1000","[""0004_N1000_K0150_NOCLIQUE"",""0020_N1000_K0150_CLIQUE""]",""
"","canvas-keyboard-response","85","177386","0.0-67.1-0.1-0.1","","","","","","","","","","","","","","","","","","363",""," ","[215,497,815,544,457,366,135,865,983,487,295,893,719,800,499,771,4,689,455,847,335,788,548,204,920,380,474,367,227,554,426,307,686,132,243,988,1,415,131,192,721,152,978,160,566,664,247,806,970,383,567,515,91,887,919,221,709,338,302,398,210,656,86,314,581,744,848,595,964,876,70,62,404,833,783,561,117,809,606,939,682,110,841,961,805,557,658,645,697,587,77,798,448,980,618,476,633,75,406,808,139,167,592,361,673,941,727,54,706,511,620,323,631,963,634,76,368,838,495,20,834,423,198,465,820,97,40,525,214,844,191,349,84,637,758,327,946,680,67,608,793,344,547,489,794,810,742,310,119,201,943,377,661,209,785,613,578,782,675,53,698,376,588,16,734,473,776,282,178,42,324,968,52,463,205,877,333,659,593,350,922,25,258,118,754,144,523,625,208,402,781,638,356,149,237,605,348,193,136,195,425,937,933,485,491,124,501,621,830,926,869,615,531,753,989,857,125,513,993,449,253,530,949,879,199,439,267,35,85,55,112,154,569,183,958,630,504,935,577,462,797,101,819,757,733,604,761,737,231,822,385,642,912,789,955,931,345,607,47,494,81,156,994,44,695,280,839,556,614,888,252,94,471,319,925,245,113,459,435,74,292,574,898,749,635,73,469,259,936,137,273,261,679,849,392,388,332,34,966,529,68,420,58,41,629,646,503,38,647,691,772,6,207,906,493,644,276,908,90,910,260,289,540,441,72,739,784,846,133,33,602,678,692,143,32,293,446,813,184,573,944,232,71,731,151,64,89,947,892,56,411,827,355,481,824,746,134,981,861,852,190,163,121,508,304,290,860,24,120,488,46,27,915,953,200,705,222,22,329,700,921,696,408,281,713,929,990,108,18,850,657,667,982,352,812,650,626,49,103,358,159,884,722,291,549,266,482,855,603,560,365,924,723,234,286,185,285,251,756,811,461,334,436,394,100,598,624,542,894,278,932,948,528,51,868,452,619,213,179,373,576,911,92,545,891,303,268,688,707,145,873,905,114,862,170,520,562,704,169,832,279,872,967,381,69,433,801,896,386,93,106,583,59,904,984,196,395,900,153,129,609,306,264,579,934,128,767,712,244,701,623,627,218,357,972,460,840,255,666,505,297,472,714,670,568,126,206,220,322,668,414,786,938,940,223,599,759,172,973,140,116,655,555,95,743,146,524,882,308,272,451,257,543,552,643,902,977,248,177,741,681,654,711,999,182,632,430,105,854,502,45,585,845,464,729,774,434,792,591,816,610,498,216,96,880,478,181,662,127,916,318,546,960,431,751,8,9,775,998,534,536,396,735,747,976,522,558,897,985,360,795,225,780,648,80,48,316,539,559,164,320,764,660,30,445,10,500,853,175,189,889,447,203,575,407,466,87,748,728,230,765,265,952,354,484,617,716,818,945,50,710,378,274,346,649,755,584,663,387,974,188,550,23,553,5,155,586,321,271,745,456,3,340,899,194,382,535,31,7,823,83,224,804,763,863,364,995,296,226,339,236,88,828,859,890,233,66,770,516,328,311,443,483,235,601,362,240,363,12,740,687,422,762,622,187,639,372,393,429,284,418,26,162,791,102,997,212,837,736,732,384,305,942,517,479,694,532,874,685,533,453,690,229,397,597,19,138,400,157,242,294,78,683,996,475,219,79,923,752,275,596,956,514,239,480,875,173,176,331,241,616,442,917,715,913,249,458,927,60,186,866,867,725,886,401,582,829,777,168,39,594,718,421,432,773,590,315,842,450,541,518,161,417,971,123,720,11,954,351,37,778,768,98,301,341,551,787,779,674,413,165,881,454,969,330,438,979,826,957,901,717,150,950,390,570,109,300,217,799,428,141,509,672,496,13,512,148,412,831,750,180,250,270,600,636,651,726,817,65,858,14,374,317,769,821,298,506,437,565,158,111,375,342,856,878,468,965,115,369,571,928,371,766,262,21,107,444,724,521,676,492,918,467,807,325,653,427,29,347,895,987,684,883,277,288,269,416,538,82,564,992,17,611,174,197,171,527,563,510,803,612,677,470,991,699,61,903,870,930,337,738,211,228,703,409,57,147,986,405,202,628,665,142,671,0,836,403,885,519,477,843,2,907,419,122,359,63,28,424,864,312,246,951,962,580,486,166,336,507,802,263,254,959,909,814,835,370,238,313,379,104,702,309,299,693,130,640,410,851,975,326,36,399,391,572,825,43,283,389,652,537,440,914,708,526,99,730,790,589,287,796,15,760,669,256,353,490,871,343,641]","arrowright","0","15","150","1000","[""0004_N1000_K0150_NOCLIQUE"",""0020_N1000_K0150_CLIQUE""]",""
"","audio-keyboard-response","86","178473","0.0-67.1-0.1-1.1","","","","","","","","","","","","","","","","","","null","audio_feedback/shuffles/shuffle01.mp3","null","","","0","15","150","1000","[""0004_N1000_K0150_NOCLIQUE"",""0020_N1000_K0150_CLIQUE""]",""
"","canvas-keyboard-response","87","178981","0.0-67.2-0.2-0.2","","","","","","","","","","","","","","","","","","394","","arrowright","[536,897,9,351,615,318,870,850,306,227,191,626,39,208,277,726,406,832,354,491,314,357,878,770,766,585,202,56,567,579,13,179,284,396,4,796,47,501,335,967,0,931,206,848,728,763,214,347,279,948,688,742,131,745,737,328,821,684,182,474,143,977,424,545,633,417,892,862,305,546,119,538,835,53,393,952,820,863,891,122,149,629,533,38,487,154,77,121,510,215,186,125,981,604,956,108,145,358,247,623,758,583,834,609,327,812,830,456,807,374,849,413,944,222,951,727,14,26,700,19,823,201,560,631,207,570,461,660,676,735,519,190,947,544,601,234,584,517,649,867,49,364,48,226,471,275,896,402,703,572,57,524,495,138,301,955,389,454,217,986,915,885,647,466,114,757,705,120,287,919,407,72,838,15,847,504,722,711,746,308,815,762,459,602,446,113,606,846,139,195,689,181,554,991,159,937,503,530,168,571,790,920,109,882,232,391,736,337,799,917,70,784,950,180,733,960,853,854,644,731,192,362,586,50,856,289,773,85,683,243,973,801,440,213,332,800,299,319,783,743,943,90,79,756,553,933,397,361,826,687,429,17,539,549,837,465,843,599,216,547,550,999,452,669,910,99,123,552,507,582,926,162,490,67,10,674,753,420,30,787,368,412,165,101,767,502,868,422,614,433,124,612,525,177,71,329,529,591,425,970,865,6,449,578,146,82,775,769,104,795,730,245,672,914,166,51,338,256,353,91,927,436,855,135,235,866,622,294,431,921,805,945,251,701,655,221,887,399,450,523,893,774,160,58,432,532,248,140,25,608,111,498,184,22,8,200,116,861,527,634,771,238,61,512,105,618,336,100,199,635,983,276,155,907,253,561,380,31,66,953,904,922,654,32,600,229,841,646,2,706,384,323,95,447,987,860,395,62,576,486,984,133,16,458,765,483,613,103,475,286,824,426,218,78,685,68,239,45,890,982,993,344,819,92,814,792,557,941,876,881,637,651,811,667,594,36,404,283,278,496,979,204,938,648,930,157,804,144,411,543,755,408,714,966,627,349,292,489,526,437,132,786,233,621,369,817,686,879,378,833,356,252,980,173,822,595,664,744,869,959,129,385,346,223,415,434,21,678,266,163,171,555,43,768,225,939,596,929,198,40,802,476,916,818,894,87,88,164,516,764,936,379,263,1,968,988,886,187,246,505,707,392,153,115,556,220,542,657,463,994,650,228,240,825,242,212,636,438,880,493,170,569,29,76,345,874,386,430,174,231,661,909,725,290,350,884,662,34,35,946,500,439,376,810,334,562,295,620,156,46,312,84,888,798,789,203,659,401,23,574,698,603,178,488,918,875,515,52,975,390,682,499,161,136,961,857,969,913,236,300,293,427,718,851,580,573,643,147,670,749,480,998,310,781,423,712,677,340,27,409,330,965,96,20,288,65,985,610,932,462,130,405,521,752,418,681,628,559,269,858,59,320,348,237,365,230,244,949,86,303,126,193,697,134,793,42,94,617,729,693,625,112,598,989,355,708,990,477,197,750,974,250,518,352,272,264,118,262,102,531,152,908,785,172,127,73,548,106,844,69,717,339,12,176,566,551,935,274,923,394,899,282,839,942,259,268,638,435,992,64,453,110,28,759,321,535,803,11,185,296,972,416,478,175,271,996,5,624,281,611,83,74,912,619,690,372,738,343,387,270,779,864,934,285,724,723,895,840,605,44,255,734,691,653,640,905,791,883,80,522,645,315,997,902,342,528,403,128,37,309,41,831,675,443,632,497,258,906,508,836,261,663,642,589,414,441,148,872,93,704,455,754,388,720,520,188,473,903,963,873,957,829,428,460,317,158,511,297,419,18,593,794,656,694,492,137,852,971,877,592,373,400,665,81,316,381,331,370,828,940,468,732,63,925,24,117,924,721,751,485,322,777,302,366,98,451,797,341,871,588,410,702,205,568,398,716,97,472,692,467,360,954,652,506,713,509,211,760,673,809,383,842,741,382,265,715,565,291,470,33,780,54,481,671,359,421,311,457,445,558,324,668,75,587,747,249,150,260,630,189,772,167,590,666,210,142,469,748,257,304,581,107,776,151,307,710,484,719,695,254,782,367,280,448,241,964,564,577,827,761,313,298,962,859,333,709,788,363,901,978,808,326,325,209,816,639,494,371,464,377,995,482,976,813,267,224,183,958,194,845,55,658,89,889,699,575,540,3,375,740,616,911,534,696,513,541,7,196,60,900,597,169,679,537,739,273,778,563,607,514,219,444,442,898,141,680,479,806,928,641]","arrowright","0","15","150","1000","[""0004_N1000_K0150_NOCLIQUE"",""0020_N1000_K0150_CLIQUE""]","true"
"","audio-keyboard-response","88","179983","0.0-67.2-0.2-1.2","","","","","","","","","","","","","","","","","","null","audio_feedback/right/coin01.mp3","null","","","0","15","150","1000","[""0004_N1000_K0150_NOCLIQUE"",""0020_N1000_K0150_CLIQUE""]",""
