"success","timeout","failed_images","failed_audio","failed_video","trial_type","trial_index","time_elapsed","internal_node_id","view_history","rt","stimulus","response","nodes_order","correct_response","correct","block_index","presentation_index","clique_size","graph_size","graphs_names"
"true","false","[]","[]","[]","preload","0","307","0.0-0.0","","","","","","","","","","","",""
"","","","","","pavlovia","1","590","0.0-1.0","","","","","","","","","","","",""
"","","","","","instructions","2","13679","0.0-2.0","[{""page_index"":0,""viewing_time"":12153},{""page_index"":1,""viewing_time"":934}]","13087","","","","","","","","","",""
"","","","","","html-keyboard-response","3","17959","0.0-3.0-0.0","","4279","By accepting to participate in this study, you confirm:
                <p style='text-align:left'>
                    - That I have carefully read the explanations regarding this study and the entire experimental procedure;<br>
                    - That I have been informed about the aims and objectives of this research;<br>
                    - That I am aware of the inconveniences, if any, caused by the experiment;<br>
                    - That I have received satisfactory assurances regarding the confidentiality of the information obtained from the examination of my own person; <br>
                    - That I am aware that I can withdraw at any stage of the study.
                <p>
                <span style=""color: #808080"">
                    Press [Y] to <strong>accept</strong>.
                </span> <br>
                <span style=""color: #808080"">
                    Press [N] to <strong>refuse</strong>.
                </span>","n","","","","","","","",""
"","","","","","html-keyboard-response","4","25951","0.0-3.0-1.0-0.0","","7991","Do you confirm you refuse to go on?
            <p> 
                By pressing [Y], you will end the experiment <strong>without reward</strong> and will be redirected to Prolific.<br>
                By pressing [N] you will be redirected to the <strong>informed consent</strong> to read again the informations and accept the conditions.
            <p>
                <span style=""color: #808080"">Press [Y] to <strong>end the experiment</strong>.</span> <br>
                <span style=""color: #808080"">Press [N] to <strong>go back to the informed consent page</strong>.</span>","n","","","","","","","",""
"","","","","","html-keyboard-response","5","28339","0.0-3.1-0.1","","2387","By accepting to participate in this study, you confirm:
                <p style='text-align:left'>
                    - That I have carefully read the explanations regarding this study and the entire experimental procedure;<br>
                    - That I have been informed about the aims and objectives of this research;<br>
                    - That I am aware of the inconveniences, if any, caused by the experiment;<br>
                    - That I have received satisfactory assurances regarding the confidentiality of the information obtained from the examination of my own person; <br>
                    - That I am aware that I can withdraw at any stage of the study.
                <p>
                <span style=""color: #808080"">
                    Press [Y] to <strong>accept</strong>.
                </span> <br>
                <span style=""color: #808080"">
                    Press [N] to <strong>refuse</strong>.
                </span>","y","","","","","","","",""
"","","","","","survey-html-form","6","79302","0.0-4.0","","50962","","{""gender"":""male"",""age"":""23""}","","","","","","","",""
"true","false","[]","[]","[]","preload","7","79466","0.0-5.0","","","","","","","","","","","",""
"","","","","","instructions","8","88794","0.0-6.0","[{""page_index"":0,""viewing_time"":1319},{""page_index"":1,""viewing_time"":154},{""page_index"":2,""viewing_time"":143},{""page_index"":3,""viewing_time"":138},{""page_index"":4,""viewing_time"":140},{""page_index"":5,""viewing_time"":140},{""page_index"":6,""viewing_time"":140},{""page_index"":7,""viewing_time"":140},{""page_index"":8,""viewing_time"":140},{""page_index"":9,""viewing_time"":136},{""page_index"":10,""viewing_time"":139},{""page_index"":11,""viewing_time"":146},{""page_index"":12,""viewing_time"":135},{""page_index"":13,""viewing_time"":123},{""page_index"":14,""viewing_time"":143},{""page_index"":15,""viewing_time"":147},{""page_index"":16,""viewing_time"":146},{""page_index"":17,""viewing_time"":155},{""page_index"":18,""viewing_time"":160},{""page_index"":19,""viewing_time"":135},{""page_index"":20,""viewing_time"":152},{""page_index"":21,""viewing_time"":164},{""page_index"":22,""viewing_time"":166},{""page_index"":23,""viewing_time"":168},{""page_index"":24,""viewing_time"":164},{""page_index"":25,""viewing_time"":160},{""page_index"":26,""viewing_time"":160},{""page_index"":27,""viewing_time"":178},{""page_index"":28,""viewing_time"":172},{""page_index"":29,""viewing_time"":155},{""page_index"":30,""viewing_time"":161},{""page_index"":31,""viewing_time"":143},{""page_index"":32,""viewing_time"":181},{""page_index"":33,""viewing_time"":133},{""page_index"":34,""viewing_time"":156},{""page_index"":35,""viewing_time"":180},{""page_index"":36,""viewing_time"":165},{""page_index"":37,""viewing_time"":150},{""page_index"":38,""viewing_time"":180},{""page_index"":39,""viewing_time"":311},{""page_index"":40,""viewing_time"":153},{""page_index"":41,""viewing_time"":160},{""page_index"":42,""viewing_time"":144},{""page_index"":43,""viewing_time"":171},{""page_index"":44,""viewing_time"":156},{""page_index"":45,""viewing_time"":160},{""page_index"":46,""viewing_time"":160},{""page_index"":47,""viewing_time"":160},{""page_index"":48,""viewing_time"":175},{""page_index"":49,""viewing_time"":167},{""page_index"":50,""viewing_time"":126},{""page_index"":51,""viewing_time"":177}]","9327","","","","","","","","","",""
"","","","","","instructions","9","90129","0.0-7.0","[{""page_index"":0,""viewing_time"":1334}]","1335","","","","","","","","","",""
"true","false","[]","[]","[]","preload","10","90195","0.0-8.0","","","","","","","","","","","",""
"","","","","","image-keyboard-response","11","91311","0.0-9.0","","1113","tutorial/p_reduce/task_familiarization_images/part 1/01_N160_K90_cliqueRight_question1.PNG"," ","","","","","","","",""
"","","","","","image-keyboard-response","12","91491","0.0-10.0","","179","tutorial/p_reduce/task_familiarization_images/part 1/02_N160_K90_cliqueRight_question2.PNG"," ","","","","","","","",""
"","","","","","image-keyboard-response","13","91906","0.0-11.0","","414","tutorial/p_reduce/task_familiarization_images/part 1/03_N160_K90_cliqueRight_question3.PNG","arrowleft","","","","","","","",""
"","","","","","image-keyboard-response","14","92052","0.0-12.0","","145","tutorial/p_reduce/task_familiarization_images/part 1/04_N160_K90_cliqueRight_solution.PNG"," ","","","","","","","",""
"","","","","","image-keyboard-response","15","92230","0.0-13.0","","177","tutorial/p_reduce/task_familiarization_images/part 1/05_N160_K65_cliqueRight_question1.PNG"," ","","","","","","","",""
"","","","","","image-keyboard-response","16","92530","0.0-14.0","","300","tutorial/p_reduce/task_familiarization_images/part 1/06_N160_K65_cliqueRight_question2.PNG"," ","","","","","","","",""
"","","","","","image-keyboard-response","17","92805","0.0-15.0","","274","tutorial/p_reduce/task_familiarization_images/part 1/07_N160_K65_cliqueRight_question3.PNG","arrowleft","","","","","","","",""
"","","","","","image-keyboard-response","18","92946","0.0-16.0","","140","tutorial/p_reduce/task_familiarization_images/part 1/08_N160_K65_cliqueRight_solution.PNG"," ","","","","","","","",""
"","","","","","image-keyboard-response","19","93147","0.0-17.0","","200","tutorial/p_reduce/task_familiarization_images/part 1/09_N160_K50_cliqueLeft_question1.PNG"," ","","","","","","","",""
"","","","","","image-keyboard-response","20","93334","0.0-18.0","","186","tutorial/p_reduce/task_familiarization_images/part 1/10_N160_K50_cliqueLeft_question2.PNG"," ","","","","","","","",""
"","","","","","image-keyboard-response","21","93583","0.0-19.0","","248","tutorial/p_reduce/task_familiarization_images/part 1/11_N160_K50_cliqueLeft_question3.PNG","arrowleft","","","","","","","",""
"","","","","","image-keyboard-response","22","93713","0.0-20.0","","130","tutorial/p_reduce/task_familiarization_images/part 1/12_N160_K50_cliqueLeft_solution.PNG"," ","","","","","","","",""
"","","","","","image-keyboard-response","23","93910","0.0-21.0","","196","tutorial/p_reduce/task_familiarization_images/part 1/13_N160_K80_cliqueLeft_question1.PNG"," ","","","","","","","",""
"","","","","","image-keyboard-response","24","94155","0.0-22.0","","244","tutorial/p_reduce/task_familiarization_images/part 1/14_N160_K80_cliqueLeft_question2.PNG"," ","","","","","","","",""
"","","","","","image-keyboard-response","25","94684","0.0-23.0","","528","tutorial/p_reduce/task_familiarization_images/part 1/15_N160_K80_cliqueLeft_question3.PNG","arrowleft","","","","","","","",""
"","","","","","image-keyboard-response","26","95493","0.0-24.0","","808","tutorial/p_reduce/task_familiarization_images/part 1/16_N160_K80_cliqueLeft_solution.PNG"," ","","","","","","","",""
"","","","","","image-keyboard-response","27","95680","0.0-25.0","","186","tutorial/p_reduce/task_familiarization_images/part 1/17_N160_K40_cliqueRight_question1.PNG"," ","","","","","","","",""
"","","","","","image-keyboard-response","28","95881","0.0-26.0","","201","tutorial/p_reduce/task_familiarization_images/part 1/18_N160_K40_cliqueRight_question2.PNG"," ","","","","","","","",""
"","","","","","image-keyboard-response","29","96251","0.0-27.0","","357","tutorial/p_reduce/task_familiarization_images/part 1/19_N160_K40_cliqueRight_question3.PNG","arrowright","","","","","","","",""
"","","","","","image-keyboard-response","30","96924","0.0-28.0","","672","tutorial/p_reduce/task_familiarization_images/part 1/20_N160_K40_cliqueRight_solution.PNG"," ","","","","","","","",""
"","","","","","image-keyboard-response","31","97112","0.0-29.0","","187","tutorial/p_reduce/task_familiarization_images/part 1/21_N160_K70_cliqueLeft_question1.PNG"," ","","","","","","","",""
"","","","","","image-keyboard-response","32","97310","0.0-30.0","","197","tutorial/p_reduce/task_familiarization_images/part 1/22_N160_K70_cliqueLeft_question2.PNG"," ","","","","","","","",""
"","","","","","image-keyboard-response","33","97515","0.0-31.0","","205","tutorial/p_reduce/task_familiarization_images/part 1/23_N160_K70_cliqueLeft_question3.PNG","arrowright","","","","","","","",""
"","","","","","image-keyboard-response","34","98314","0.0-32.0","","798","tutorial/p_reduce/task_familiarization_images/part 1/24_N160_K70_cliqueLeft_solution.PNG"," ","","","","","","","",""
"true","false","[]","[]","[]","preload","35","98368","0.0-33.0","","","","","","","","","","","",""
"","","","","","image-keyboard-response","36","98506","0.0-34.0","","136","tutorial/p_reduce/task_familiarization_images/part 2/01_N160_K80_cliqueLeft_withFeedback_1.PNG"," ","","","","","","","",""
"","","","","","image-keyboard-response","37","98704","0.0-35.0","","197","tutorial/p_reduce/task_familiarization_images/part 2/02_N160_K80_cliqueLeft_withFeedback_2.PNG"," ","","","","","","","",""
"","","","","","image-keyboard-response","38","99112","0.0-36.0","","407","tutorial/p_reduce/task_familiarization_images/part 2/03_N160_K80_cliqueLeft_withFeedback_3.PNG","arrowright","","","","","","","",""
"","","","","","image-keyboard-response","39","99255","0.0-37.0","","143","tutorial/p_reduce/task_familiarization_images/part 2/04_N160_K80_cliqueLeft_withFeedback_wrong.PNG"," ","","","","","","","",""
"","","","","","image-keyboard-response","40","99470","0.0-38.0","","213","tutorial/p_reduce/task_familiarization_images/part 2/05_N160_K55_cliqueRight_withFeedback_1.PNG"," ","","","","","","","",""
"","","","","","image-keyboard-response","41","99642","0.0-39.0","","172","tutorial/p_reduce/task_familiarization_images/part 2/06_N160_K55_cliqueRight_withFeedback_2.PNG"," ","","","","","","","",""
"","","","","","image-keyboard-response","42","99956","0.0-40.0","","314","tutorial/p_reduce/task_familiarization_images/part 2/07_N160_K55_cliqueRight_withFeedback_3.PNG","arrowleft","","","","","","","",""
"","","","","","image-keyboard-response","43","100105","0.0-41.0","","148","tutorial/p_reduce/task_familiarization_images/part 2/08_N160_K55_cliqueRight_withFeedback_wrong.PNG"," ","","","","","","","",""
"","","","","","image-keyboard-response","44","100284","0.0-42.0","","178","tutorial/p_reduce/task_familiarization_images/part 2/09_N160_K70_cliqueLeft_withFeedback_1.PNG"," ","","","","","","","",""
"","","","","","image-keyboard-response","45","100434","0.0-43.0","","149","tutorial/p_reduce/task_familiarization_images/part 2/10_N160_K70_cliqueLeft_withFeedback_2.PNG"," ","","","","","","","",""
"","","","","","image-keyboard-response","46","100720","0.0-44.0","","285","tutorial/p_reduce/task_familiarization_images/part 2/11_N160_K70_cliqueLeft_withFeedback_3.PNG","arrowleft","","","","","","","",""
"","","","","","image-keyboard-response","47","100862","0.0-45.0","","141","tutorial/p_reduce/task_familiarization_images/part 2/12_N160_K70_cliqueLeft_withFeedback_correct.PNG"," ","","","","","","","",""
"true","false","[]","[]","[]","preload","48","100991","0.0-46.0","","","","","","","","","","","",""
"","","","","","instructions","49","101549","0.0-47.0","[{""page_index"":0,""viewing_time"":558}]","559","","","","","","","","","",""
"true","","","","","fullscreen","50","104594","0.0-49.0","","","","","","","","","","","",""
"","","","","","canvas-keyboard-response","51","110740","0.0-50.0-0.0-0.0","","5312","","arrowright","[905,612,6,953,517,787,161,234,770,635,637,836,755,374,364,200,26,859,949,496,937,514,695,593,178,966,204,577,430,680,806,730,669,676,19,729,423,892,187,780,539,415,263,576,818,601,682,706,509,572,441,401,224,180,559,141,127,790,660,697,563,866,625,926,803,882,460,170,526,255,287,227,68,981,928,562,242,753,457,666,487,533,543,987,103,764,118,147,16,99,734,50,253,865,58,598,389,950,822,369,541,273,600,298,858,898,402,137,392,39,434,210,135,61,114,913,106,616,399,349,690,140,271,973,757,532,67,638,899,763,919,507,300,21,502,567,366,829,917,578,412,226,812,416,391,91,390,290,289,916,322,876,901,177,855,424,609,274,942,478,132,448,566,62,477,930,999,110,348,228,693,64,215,330,323,671,975,888,890,728,270,705,29,387,990,411,645,530,151,622,702,203,123,923,499,316,184,524,71,148,420,546,30,699,713,89,150,504,410,878,122,459,344,902,535,76,101,696,78,849,520,209,108,81,592,895,129,414,952,910,880,303,275,986,474,583,758,749,419,116,927,236,809,17,359,267,356,599,550,432,72,789,819,413,365,59,775,43,786,850,277,34,318,879,377,843,304,373,447,621,989,799,54,128,807,74,309,297,239,56,472,418,315,825,83,823,186,967,884,644,452,305,111,963,77,842,960,831,971,176,397,523,992,192,941,104,948,286,838,654,288,732,736,610,10,717,18,805,909,589,350,650,488,407,920,689,643,703,861,55,185,984,497,719,903,498,998,378,500,362,914,439,282,218,782,934,456,358,65,781,815,647,653,222,431,285,515,528,471,877,440,230,299,492,240,306,211,972,887,429,162,174,925,340,202,817,651,462,483,342,372,53,674,820,494,832,891,49,60,648,531,260,458,481,243,747,155,368,336,154,995,808,698,384,921,375,406,11,538,615,319,138,246,308,175,795,591,915,0,256,248,385,938,700,851,329,519,241,380,264,208,922,354,379,883,442,692,811,57,381,449,453,351,367,310,346,513,486,777,939,247,145,320,194,833,946,711,588,42,231,207,173,52,403,490,433,631,476,982,773,404,235,933,626,827,190,712,826,603,338,961,115,687,201,551,745,352,314,813,985,493,594,785,686,326,327,14,28,191,742,662,302,797,276,394,182,521,294,130,536,694,37,746,762,383,673,386,281,565,932,196,503,279,339,896,466,212,133,639,229,463,940,400,796,996,131,80,301,881,265,469,245,585,997,198,464,95,856,168,991,393,954,324,709,51,863,167,959,119,677,183,632,5,602,716,993,252,44,545,724,467,363,994,159,124,568,760,46,739,908,427,978,947,157,511,334,254,560,396,12,341,573,774,874,614,421,437,23,634,446,608,710,701,893,633,426,238,636,658,355,225,979,189,652,199,720,24,357,105,244,153,283,561,722,291,100,835,957,668,508,195,617,505,810,27,906,33,837,767,672,769,41,221,120,261,134,484,980,860,20,830,480,665,223,70,87,529,172,251,840,873,894,259,857,107,754,595,345,156,965,501,295,63,45,143,956,968,435,262,683,32,544,802,237,164,596,675,482,740,84,784,727,395,96,661,744,443,571,642,1,66,36,82,691,468,623,417,590,461,485,489,664,343,587,332,627,751,90,646,540,800,741,233,708,166,347,554,628,846,867,611,606,733,293,537,126,525,907,681,522,900,409,117,125,171,748,904,962,798,678,335,534,756,688,870,98,479,641,328,438,454,630,761,425,670,220,232,553,555,22,360,620,75,575,875,376,193,160,444,88,370,725,864,113,428,473,69,73,582,40,659,269,655,816,869,25,569,584,86,847,142,657,607,793,912,735,92,684,788,889,778,4,268,158,640,768,321,149,549,257,450,102,398,94,548,618,951,152,970,936,779,974,964,976,853,792,445,213,619,759,311,436,219,512,714,249,613,743,656,136,570,214,280,886,931,361,624,382,337,527,801,48,854,929,629,542,388,862,312,848,3,510,15,586,772,871,564,266,31,272,109,839,723,731,284,292,371,331,844,9,897,752,121,804,943,685,911,250,333,604,258,552,721,455,7,405,824,97,597,791,38,715,422,872,353,737,750,206,771,516,139,188,581,841,47,935,738,179,794,112,85,205,776,465,868,13,556,821,944,35,547,313,216,574,558,163,470,317,557,197,580,325,296,408,307,605,834,278,451,79,579,506,988,983,707,679,765,663,491,955,828,718,649,783,165,2,144,181,885,217,814,495,969,726,845,8,146,766,924,977,667,918,945,852,704,958,169,518,475,93]","arrowright","true","0","0","300","1000","[""0089_N1000_K0300_NOCLIQUE"",""0034_N1000_K0300_CLIQUE""]"
"","","","","","audio-keyboard-response","52","111945","0.0-50.0-0.0-1.0","","null","audio_feedback/right/coin01.mp3","null","","","","0","0","300","1000","[""0089_N1000_K0300_NOCLIQUE"",""0034_N1000_K0300_CLIQUE""]"
"","","","","","canvas-keyboard-response","53","113273","0.0-51.0-0.0-0.0","","290","","arrowright","[265,441,236,727,812,317,231,242,326,434,404,367,646,416,305,41,970,262,216,487,263,526,662,839,436,619,913,928,392,105,203,667,834,995,739,548,252,98,181,31,272,792,377,511,79,877,756,679,556,752,644,614,816,710,207,444,255,933,76,81,909,879,491,418,182,784,457,292,468,257,988,776,872,801,946,524,96,999,720,108,555,790,639,188,283,206,191,764,152,589,528,502,533,794,411,956,728,23,352,50,10,629,114,449,137,287,120,777,504,907,164,107,437,333,431,562,336,442,898,585,153,780,500,610,612,74,594,40,645,384,630,991,460,574,635,668,571,388,938,786,507,467,316,196,83,482,846,490,145,854,396,798,439,235,135,917,561,128,71,425,240,622,566,781,136,737,768,606,506,990,248,366,447,810,890,340,918,984,64,761,581,110,304,543,626,43,234,613,791,202,427,600,568,12,389,453,56,937,994,499,951,796,36,758,49,127,886,955,678,883,488,133,569,197,163,754,221,373,341,929,832,521,27,788,945,714,848,997,376,93,884,155,89,973,672,343,975,897,222,383,327,4,510,602,875,858,17,704,1,264,70,865,324,195,851,62,773,259,934,406,842,178,702,977,723,350,844,405,740,429,961,895,63,192,665,980,57,860,652,270,3,474,592,503,84,670,595,641,228,331,772,470,32,793,620,919,840,554,267,51,748,570,180,13,183,381,496,69,671,297,787,986,92,550,359,138,876,825,494,993,650,390,44,685,30,346,534,256,302,722,805,142,446,443,478,906,623,274,162,580,609,861,719,925,440,330,293,106,456,663,853,372,430,35,357,628,989,821,125,797,541,190,734,156,288,394,130,601,286,322,454,944,940,458,168,770,495,852,763,129,651,42,334,370,345,939,959,733,226,445,558,451,683,803,998,809,957,150,360,212,33,637,15,700,199,223,707,996,53,358,485,687,104,363,239,922,489,118,647,148,746,219,393,450,395,862,605,112,813,398,718,532,2,335,699,328,87,689,751,61,873,529,94,981,225,144,175,682,520,387,312,409,14,567,952,983,28,131,666,575,483,703,779,985,134,911,818,838,817,954,295,169,298,802,6,161,625,836,250,979,887,147,318,171,37,732,664,634,160,744,932,820,7,830,0,753,811,888,424,419,46,371,54,962,268,124,408,677,565,688,39,942,348,604,690,95,423,974,52,536,413,762,342,866,300,856,452,900,833,65,583,361,379,380,760,18,158,280,329,284,279,631,540,90,694,354,698,347,618,653,735,296,822,894,726,729,513,97,706,661,86,596,579,766,745,301,205,559,806,339,778,642,863,855,34,621,475,695,563,785,616,173,709,885,484,538,693,123,967,681,823,636,572,291,320,508,481,308,673,355,498,210,247,901,399,22,972,479,680,978,530,82,850,923,960,433,401,38,553,271,119,708,868,187,607,115,369,214,258,166,882,859,101,782,603,415,344,111,505,211,549,193,633,149,307,845,638,891,121,547,824,230,847,759,254,941,765,426,835,386,323,273,747,545,517,402,278,617,783,313,269,598,949,224,249,365,277,987,448,477,963,246,75,282,232,476,800,814,432,948,364,5,749,237,716,903,684,696,19,59,869,914,815,899,400,789,309,122,146,597,910,587,332,515,462,276,724,407,260,91,414,132,217,982,573,943,531,311,170,25,140,243,608,261,294,965,198,501,660,325,244,544,143,657,841,590,588,85,931,669,492,807,920,904,45,658,378,179,480,251,215,438,552,55,611,927,827,953,100,711,29,421,926,486,730,564,73,464,969,109,233,584,870,648,227,916,403,338,26,546,964,141,518,321,512,947,874,466,154,509,275,857,172,775,643,167,771,469,769,516,218,522,686,701,412,627,725,849,241,455,674,878,351,472,731,640,337,186,185,410,176,238,463,375,48,310,24,542,889,750,924,519,126,717,165,819,654,826,705,971,66,902,157,514,795,213,391,578,289,220,871,184,47,976,103,315,422,253,16,896,60,368,200,557,397,201,353,356,915,721,314,72,471,591,864,742,881,624,435,632,659,525,843,968,905,551,194,382,738,880,68,831,535,656,420,649,266,992,102,473,527,11,290,77,691,930,936,892,21,362,428,774,493,893,539,912,306,676,281,675,417,113,655,204,713,151,837,743,692,177,593,303,20,139,736,319,58,921,117,229,374,459,8,712,299,741,586,599,577,537,615,950,757,935,523,576,804,9,808,385,966,799,159,88,828,867,829,99,465,80,908,116,285,461,755,582,67,958,560,189,349,208,715,245,497,209,78,174,767,697]","arrowright","true","0","1","300","1000","[""0056_N1000_K0300_NOCLIQUE"",""0081_N1000_K0300_CLIQUE""]"
"","","","","","audio-keyboard-response","54","114265","0.0-51.0-0.0-1.0","","null","audio_feedback/right/coin01.mp3","null","","","","0","1","300","1000","[""0056_N1000_K0300_NOCLIQUE"",""0081_N1000_K0300_CLIQUE""]"
"","","","","","canvas-keyboard-response","55","115915","0.0-52.0-0.0-0.0","","509","","arrowleft","[947,249,833,810,790,345,1,295,956,84,0,957,736,869,251,98,30,99,522,931,864,124,136,552,145,872,449,792,399,579,378,923,231,714,788,684,759,230,532,491,921,70,27,287,589,935,907,35,57,436,903,310,365,261,774,161,845,591,13,452,896,332,313,223,54,174,50,802,404,626,509,75,16,374,505,569,954,622,739,60,376,943,146,233,754,664,304,389,322,928,293,138,133,828,948,717,726,750,206,713,597,292,193,343,693,581,524,212,88,801,916,711,440,953,381,716,132,527,465,993,286,361,325,877,649,153,517,454,470,191,696,53,235,28,166,986,103,473,786,219,148,382,691,969,82,3,504,888,730,221,240,259,264,652,403,22,116,927,237,457,214,392,401,860,988,538,707,555,203,23,813,814,40,86,972,429,861,120,52,775,152,584,140,500,660,279,364,499,665,719,824,518,605,984,10,312,2,469,85,528,985,965,197,129,283,93,55,821,256,102,849,743,225,420,874,398,666,106,698,114,134,974,881,507,199,634,746,914,414,184,271,997,471,734,781,196,46,551,408,651,112,265,822,978,348,999,119,871,659,34,362,576,443,642,460,546,958,650,744,48,839,703,603,525,646,141,521,541,623,624,218,558,715,842,795,155,130,69,863,241,950,346,939,800,273,887,875,619,33,979,585,90,309,745,550,648,341,937,721,588,537,689,483,433,437,560,832,492,621,752,926,858,617,662,488,289,250,63,379,282,749,202,559,290,641,200,484,643,394,441,977,467,305,699,616,835,434,994,300,288,351,461,157,162,425,826,817,79,779,840,41,167,938,682,14,81,169,602,291,486,210,220,260,151,998,407,608,732,668,678,856,42,363,349,385,4,836,253,64,111,178,568,89,96,544,942,809,909,12,353,940,932,519,631,566,804,614,777,400,882,266,246,725,676,924,534,209,481,190,812,159,139,410,371,323,421,512,565,359,160,604,278,816,825,770,369,324,270,6,477,654,547,606,618,819,181,760,387,908,32,306,981,855,320,638,480,267,446,19,263,238,21,234,797,462,44,961,426,762,195,307,83,893,601,897,755,995,542,764,144,194,118,571,680,458,769,700,661,65,865,296,121,115,727,308,612,983,735,36,583,815,74,829,506,564,94,600,439,427,393,673,215,248,818,26,447,101,772,632,489,963,798,688,656,936,142,741,468,578,386,45,357,540,274,143,245,902,117,354,996,396,900,397,868,5,663,594,380,697,615,104,545,502,31,796,463,328,368,113,315,455,333,188,992,318,577,737,107,628,100,444,177,562,830,973,478,97,418,644,67,476,757,327,514,539,595,630,131,771,667,370,886,553,170,217,438,915,701,904,885,968,671,487,367,257,709,344,11,108,213,25,729,789,520,329,211,582,758,859,183,905,530,658,474,912,535,980,895,767,164,448,254,316,236,867,635,179,960,495,416,163,692,501,831,945,402,607,590,852,339,751,712,317,154,620,803,846,226,891,780,645,695,575,388,991,298,738,405,165,554,609,244,847,766,335,72,15,207,763,358,627,208,20,186,782,982,172,171,301,731,901,753,685,91,572,706,526,593,848,598,930,823,137,549,498,675,92,224,43,435,302,805,311,870,637,347,791,272,740,432,776,493,563,806,681,765,47,531,710,431,794,570,168,128,334,536,58,331,413,962,898,342,747,640,768,513,105,679,636,269,456,975,610,952,851,811,285,838,482,466,587,321,479,176,239,51,949,472,71,123,655,761,723,543,515,485,929,785,268,383,355,7,417,784,9,580,384,841,919,76,451,442,340,951,255,62,78,793,180,201,127,494,37,834,890,944,533,299,17,917,337,109,778,556,185,222,529,704,66,395,511,409,647,227,561,204,773,377,39,783,866,510,586,258,933,29,720,503,889,989,853,242,56,657,548,73,229,971,77,175,557,475,275,966,247,18,922,496,423,87,592,702,970,59,338,294,356,670,574,567,857,884,297,360,850,412,252,430,633,415,787,68,941,799,497,976,61,516,911,705,596,428,827,837,391,453,756,173,625,375,126,445,918,156,674,277,281,629,262,198,906,653,406,326,24,854,708,879,722,280,424,459,599,187,150,899,844,336,843,807,125,873,808,158,422,366,450,964,718,216,149,880,611,80,508,319,733,464,613,913,946,350,934,669,352,910,883,390,672,490,228,820,232,243,38,686,990,687,694,373,303,314,683,189,135,920,955,205,95,967,122,284,639,276,690,894,878,742,892,677,573,192,748,411,182,49,110,959,728,862,372,419,724,8,925,147,987,330,523,876]","arrowleft","true","0","2","267","1000","[""0029_N1000_K0267_CLIQUE"",""0045_N1000_K0267_NOCLIQUE""]"
"","","","","","audio-keyboard-response","56","116905","0.0-52.0-0.0-1.0","","null","audio_feedback/right/coin01.mp3","null","","","","0","2","267","1000","[""0029_N1000_K0267_CLIQUE"",""0045_N1000_K0267_NOCLIQUE""]"
"","","","","","canvas-keyboard-response","57","118531","0.0-53.0-0.0-0.0","","593","","arrowleft","[174,983,544,313,422,714,765,695,923,757,863,990,22,759,475,755,110,648,552,671,165,632,238,831,213,232,950,42,973,494,447,496,462,337,571,679,372,636,216,484,444,451,356,735,179,15,385,215,576,307,273,904,309,633,538,23,355,101,64,566,521,611,660,946,517,212,28,917,362,634,347,203,618,147,270,595,719,31,436,300,181,276,454,172,220,720,142,285,286,663,176,642,981,590,974,41,118,431,952,777,304,775,994,54,811,63,563,240,377,103,658,934,692,516,700,33,892,366,325,100,691,69,624,211,140,812,46,588,18,114,612,248,629,413,937,523,453,573,865,940,968,986,748,32,197,961,381,353,915,308,341,871,106,776,26,449,429,540,231,459,411,141,902,537,183,12,80,879,689,857,808,44,984,416,800,909,581,614,559,533,107,43,572,36,316,51,924,503,972,524,135,7,287,862,312,421,512,885,922,616,53,481,239,479,383,866,505,45,396,696,123,361,827,40,568,235,948,139,74,196,13,412,631,483,954,109,980,919,918,991,809,132,244,914,721,641,797,763,578,14,218,788,62,177,221,793,208,551,729,976,119,151,560,128,911,233,823,264,534,724,665,713,274,3,594,278,10,303,332,229,166,628,170,678,736,853,790,398,815,272,673,193,716,884,764,532,619,480,490,643,435,259,545,224,959,711,88,592,583,669,284,205,531,260,743,600,306,894,625,519,630,615,651,858,888,448,397,949,374,283,427,214,499,900,188,48,160,129,251,753,686,847,878,495,171,155,609,653,236,907,294,740,153,252,701,744,786,24,76,5,715,603,446,898,450,410,96,998,395,487,789,734,477,820,339,785,246,178,387,956,929,767,207,78,289,585,92,807,659,770,582,801,131,586,57,845,256,509,752,745,999,210,875,705,876,709,960,470,889,268,502,117,344,149,262,639,127,39,423,363,728,424,806,113,199,725,520,441,967,675,305,108,392,161,254,66,589,527,168,529,817,257,93,376,457,348,528,964,913,723,185,400,351,758,985,365,899,824,891,747,530,426,666,143,574,223,443,122,437,768,115,558,407,850,384,452,319,302,225,738,864,194,189,813,336,508,822,154,281,626,242,731,1,226,90,869,98,846,916,947,125,883,601,456,654,798,455,198,16,474,661,146,791,840,461,37,9,710,56,593,688,906,784,727,975,25,668,638,4,148,754,718,20,608,255,241,269,610,105,870,837,282,647,364,414,243,988,569,939,598,102,826,774,263,389,698,750,463,486,331,620,835,314,751,162,111,358,267,816,290,970,58,717,77,525,694,228,378,943,567,742,969,792,607,173,271,652,511,186,6,34,836,195,549,334,393,488,390,338,324,369,333,541,354,301,296,163,67,219,112,425,180,323,805,833,920,821,265,430,992,680,388,438,880,655,646,682,445,895,746,420,704,169,849,802,328,81,345,832,963,315,279,126,327,868,85,415,35,460,674,935,0,903,52,803,458,217,855,627,996,59,925,921,373,737,343,253,275,707,442,670,515,507,352,70,94,851,995,510,561,570,124,465,419,95,896,887,404,829,979,498,602,977,623,640,860,91,886,245,158,121,596,403,993,781,82,557,681,17,739,469,367,116,47,957,258,962,856,292,138,687,690,741,68,467,794,622,120,99,966,697,814,401,311,97,772,905,838,201,134,818,72,514,542,613,644,978,500,83,206,843,65,535,579,280,202,722,656,428,712,61,782,599,953,575,944,504,684,565,890,604,938,536,799,554,778,518,326,482,368,485,192,930,159,222,29,597,706,882,936,382,30,587,726,182,371,997,200,548,466,38,417,645,987,87,874,971,261,144,580,439,562,591,733,370,945,859,547,247,685,912,606,464,928,965,756,156,819,897,318,394,357,867,346,379,157,89,130,982,773,841,335,402,472,852,204,779,839,881,11,672,910,317,471,440,795,167,941,60,190,908,49,360,501,553,657,872,677,288,942,250,699,550,297,237,491,676,771,320,476,84,834,406,322,266,209,873,234,50,927,391,621,513,703,137,556,667,350,730,184,958,473,299,329,955,693,932,708,526,136,539,405,861,931,828,732,164,543,564,893,478,650,769,310,761,71,804,330,796,810,434,637,21,787,989,877,617,342,2,133,497,55,649,762,433,933,27,150,277,842,8,380,780,409,825,577,468,293,295,19,386,854,73,830,187,848,79,493,191,605,766,635,249,340,783,522,702,951,760,375,86,683,926,546,555,227,901,298,506,664,75,291,584,662,418,844,408,145,399,152,104,749,492,230,349,321,489,175,359,432]","arrowleft","true","0","3","267","1000","[""0088_N1000_K0267_CLIQUE"",""0003_N1000_K0267_NOCLIQUE""]"
"","","","","","audio-keyboard-response","58","119525","0.0-53.0-0.0-1.0","","null","audio_feedback/right/coin01.mp3","null","","","","0","3","267","1000","[""0088_N1000_K0267_CLIQUE"",""0003_N1000_K0267_NOCLIQUE""]"
"","","","","","canvas-keyboard-response","59","121121","0.0-54.0-0.0-0.0","","652","","arrowleft","[553,851,209,513,108,45,427,74,450,736,254,13,235,169,154,266,316,620,585,968,116,937,860,453,190,984,743,184,109,351,748,809,145,667,890,846,944,930,177,240,124,737,107,602,100,596,658,242,106,265,93,891,589,745,122,634,878,642,913,598,750,562,51,37,181,817,712,146,126,444,820,446,528,675,21,773,661,608,685,204,180,709,893,264,293,28,732,863,344,70,199,934,339,837,928,139,757,227,582,423,16,176,874,381,191,849,646,718,618,202,786,376,348,123,67,407,137,59,677,707,490,441,72,88,238,523,797,416,119,336,430,519,196,507,657,910,951,50,42,926,361,593,674,761,36,708,501,692,399,250,397,294,142,55,663,795,987,0,230,724,920,435,158,840,990,672,312,469,257,606,985,485,297,71,866,741,96,215,929,474,884,895,164,212,693,952,428,95,527,561,711,422,259,753,189,764,24,224,917,192,94,869,456,290,477,886,127,570,638,315,165,188,487,449,777,717,566,819,995,902,335,751,563,405,10,518,402,418,368,938,744,448,347,355,983,533,651,92,496,603,557,512,261,302,203,506,749,426,574,18,307,832,424,464,31,775,759,898,325,262,931,816,962,79,484,213,605,611,408,517,680,835,919,676,49,486,590,823,366,237,491,999,798,752,472,522,249,48,7,128,622,649,839,62,943,102,275,178,19,115,183,556,760,805,906,153,131,551,549,524,457,670,841,369,476,971,352,535,881,87,193,252,356,205,174,947,404,830,892,60,616,617,705,81,756,117,560,541,844,393,391,497,274,200,612,231,499,545,365,206,436,168,478,542,328,138,412,636,236,911,774,656,604,394,299,465,479,505,338,151,997,581,41,864,932,782,466,80,933,807,156,681,769,695,629,682,222,640,91,691,406,420,847,392,699,159,567,373,463,652,69,120,255,679,834,942,233,353,322,927,939,848,364,458,54,225,260,327,633,454,559,876,812,668,565,815,258,78,409,531,989,27,371,243,979,924,246,197,857,500,271,697,4,167,46,451,475,719,552,434,639,160,972,495,460,963,345,922,508,949,283,349,77,738,739,459,101,845,332,521,511,811,285,964,61,755,540,384,529,311,443,383,273,282,758,65,678,471,703,410,330,324,842,536,865,826,950,615,414,722,326,600,514,194,390,492,3,579,331,701,136,727,516,483,587,121,388,287,382,104,15,226,945,2,462,854,301,211,244,415,698,432,982,83,63,726,82,360,900,186,247,974,57,988,379,614,411,166,973,801,387,953,251,955,144,599,888,425,520,650,779,977,530,279,378,641,135,400,44,375,601,734,314,182,814,162,342,40,134,948,20,684,946,631,133,914,867,395,648,256,899,621,665,493,808,550,721,818,473,33,12,880,836,643,625,882,440,768,163,386,991,32,607,482,800,98,766,539,201,954,771,993,503,323,66,502,790,455,992,723,223,901,855,22,687,572,1,480,716,577,571,43,357,970,671,981,558,534,494,762,831,673,305,504,733,309,289,961,149,468,64,686,489,627,879,713,969,666,292,538,53,445,510,130,526,47,702,286,700,281,975,295,170,337,306,731,635,172,897,56,871,105,419,976,29,806,277,619,403,171,850,175,334,9,647,887,810,908,664,575,728,655,788,597,214,936,270,217,267,654,26,148,613,543,52,219,838,461,85,578,417,350,706,554,23,25,8,547,710,740,883,689,941,377,894,421,632,546,870,905,780,198,669,747,245,588,858,799,915,272,216,873,861,714,269,431,263,313,909,17,885,113,940,623,90,143,958,86,155,319,35,11,996,916,73,872,980,852,853,210,725,396,793,110,986,735,367,234,564,132,637,76,903,803,208,998,452,341,688,828,568,280,248,389,778,38,288,827,363,959,398,544,467,58,770,14,781,829,438,147,112,690,610,291,586,385,877,746,960,548,630,310,488,303,179,868,401,921,813,359,278,569,957,68,783,340,296,125,660,525,229,239,696,994,592,140,228,591,576,439,161,754,765,532,573,772,645,300,346,320,923,152,825,802,97,75,896,218,481,715,789,704,792,372,433,904,442,965,447,374,321,787,875,918,333,824,268,157,308,114,298,694,730,173,584,889,253,843,609,720,354,767,89,978,185,856,6,221,785,232,498,5,729,925,84,429,683,362,343,804,34,118,583,776,304,470,912,111,644,862,595,653,859,187,624,967,220,413,141,276,380,662,30,626,907,791,370,742,537,99,329,555,822,318,784,437,39,794,580,195,509,358,241,763,956,796,659,129,150,628,103,317,833,821,284,207,935,515,594,966]","arrowleft","true","0","4","233","1000","[""0021_N1000_K0233_CLIQUE"",""0053_N1000_K0233_NOCLIQUE""]"
"","","","","","audio-keyboard-response","60","122106","0.0-54.0-0.0-1.0","","null","audio_feedback/right/coin01.mp3","null","","","","0","4","233","1000","[""0021_N1000_K0233_CLIQUE"",""0053_N1000_K0233_NOCLIQUE""]"
"","","","","","canvas-keyboard-response","61","123682","0.0-55.0-0.0-0.0","","652","","arrowright","[568,93,955,424,69,587,391,759,425,825,398,784,972,740,160,803,150,126,947,626,448,541,831,929,655,756,808,139,463,688,274,782,212,137,306,206,78,580,51,878,564,217,161,80,562,616,994,407,630,913,487,57,244,678,881,644,382,282,199,978,59,431,815,344,144,553,909,743,710,16,997,368,712,6,323,646,472,110,604,257,246,203,582,810,192,130,177,168,153,882,704,290,907,24,396,239,175,566,675,451,841,318,583,557,911,353,440,654,308,286,165,625,531,915,14,63,618,223,751,289,779,699,762,197,39,775,942,989,662,236,411,268,27,136,204,765,428,701,706,98,677,370,209,935,818,902,623,600,281,750,631,100,773,744,263,273,307,720,795,464,521,15,973,377,833,962,893,649,442,787,258,895,992,304,888,9,319,494,663,415,253,467,730,25,90,162,724,591,726,957,850,638,804,548,713,912,335,145,884,28,946,954,717,892,324,328,489,287,968,392,798,11,539,380,188,309,358,148,544,91,50,265,313,721,949,595,222,95,971,979,193,479,373,598,2,404,526,460,835,354,252,351,581,338,707,532,484,680,74,413,322,483,37,910,880,698,341,245,599,321,134,492,614,394,606,275,400,983,931,934,336,213,588,327,459,121,493,234,563,211,462,329,529,879,975,936,802,991,397,17,503,359,914,668,18,68,791,930,589,169,198,241,264,60,218,418,270,158,178,559,103,141,339,101,916,375,123,231,615,956,844,229,147,402,899,196,216,832,861,372,272,436,302,387,778,65,360,362,388,310,454,291,179,437,89,767,709,769,917,772,960,826,858,747,385,573,533,964,739,576,62,908,32,378,745,458,278,416,708,806,224,320,386,640,686,734,305,811,764,609,958,406,311,369,982,174,877,601,891,453,579,355,140,545,683,87,594,976,297,0,948,980,814,788,73,504,697,29,356,661,501,512,46,20,981,120,133,430,232,433,919,208,998,167,364,421,951,733,635,848,691,214,528,567,243,664,924,288,789,689,928,1,722,367,283,233,685,627,269,186,159,871,561,538,303,151,326,829,295,650,294,823,434,403,682,35,927,613,250,205,633,653,786,988,38,163,172,427,523,637,61,77,48,340,23,898,577,667,607,590,379,729,920,509,549,67,52,507,843,76,41,334,864,896,207,718,565,966,446,876,499,347,974,401,180,477,184,374,585,226,977,703,219,692,426,105,671,143,482,922,235,783,785,408,636,774,292,470,941,474,632,799,643,316,189,687,490,944,220,240,300,480,495,937,763,34,522,457,693,736,967,542,486,55,819,816,621,753,990,796,456,384,820,824,111,247,984,82,473,586,821,602,410,146,534,346,842,572,40,249,987,72,296,117,873,352,497,943,444,619,516,441,676,681,652,155,860,412,853,846,182,466,837,75,33,648,312,363,116,904,187,135,438,547,279,393,419,330,345,266,950,445,276,450,156,342,215,628,768,845,505,959,742,420,107,104,790,71,669,96,827,702,830,429,128,574,496,129,716,36,124,695,365,696,537,938,502,262,672,510,748,969,49,738,527,714,822,166,552,940,301,965,423,185,481,79,732,475,684,932,670,254,970,280,719,867,357,705,88,366,514,256,727,56,659,349,925,849,569,770,64,317,612,817,439,556,603,546,242,131,715,700,828,900,605,694,173,381,834,540,255,298,755,847,985,723,674,645,597,554,555,183,995,350,801,933,83,851,771,195,639,813,807,21,608,551,271,617,201,478,859,132,524,455,390,999,500,13,852,194,461,202,754,315,800,181,883,113,874,343,596,97,12,838,513,452,749,491,690,809,868,647,92,918,409,66,58,371,660,758,903,840,325,870,293,10,395,592,112,170,488,560,673,238,839,86,94,508,260,337,550,939,102,869,725,70,620,746,875,43,760,520,952,905,469,200,515,81,333,225,85,31,777,210,866,435,157,856,517,887,443,889,42,634,248,812,361,115,230,794,885,485,741,109,4,176,536,53,530,498,383,776,578,3,963,449,737,558,519,114,986,348,593,993,99,465,47,921,752,221,836,22,656,152,190,399,897,277,376,19,731,711,757,543,886,142,766,8,154,923,961,44,149,570,797,855,191,629,642,863,84,45,251,657,610,666,535,894,575,299,471,611,118,119,314,996,171,417,651,284,865,901,54,622,781,447,414,926,792,122,30,259,793,332,525,138,228,945,584,106,164,679,285,857,5,761,872,432,665,890,127,906,511,125,108,389,735,331,261,953,506,468,267,805,7,571,26,227,641,405,862,728,422,476,237,518,658,780,854,624]","arrowright","true","0","5","233","1000","[""0088_N1000_K0233_NOCLIQUE"",""0088_N1000_K0233_CLIQUE""]"
"","","","","","audio-keyboard-response","62","124665","0.0-55.0-0.0-1.0","","null","audio_feedback/right/coin01.mp3","null","","","","0","5","233","1000","[""0088_N1000_K0233_NOCLIQUE"",""0088_N1000_K0233_CLIQUE""]"
"","","","","","canvas-keyboard-response","63","126190","0.0-56.0-0.0-0.0","","683","","arrowright","[324,373,668,515,503,231,352,101,261,620,212,718,609,807,375,781,111,903,290,134,979,496,175,239,525,929,490,99,714,588,900,446,978,234,30,656,186,649,257,226,907,728,856,353,240,938,19,746,614,25,694,449,319,910,66,533,905,15,951,330,869,579,130,462,167,786,162,911,204,453,743,563,43,316,120,114,249,835,359,871,481,16,214,607,860,850,170,766,17,71,685,46,92,232,461,615,327,168,759,655,526,666,752,176,416,173,822,190,980,469,238,188,177,802,444,254,14,384,585,265,436,407,984,418,90,878,103,782,309,459,742,322,950,332,730,596,457,388,374,20,619,310,933,839,805,751,820,672,552,838,266,248,934,390,96,376,511,645,424,479,750,68,710,647,901,138,785,808,7,94,925,549,77,192,564,62,930,35,859,702,193,909,466,536,55,472,967,383,163,617,749,976,550,692,442,797,422,518,463,93,132,295,146,969,800,924,674,252,946,2,936,223,957,209,308,557,56,1,664,551,693,269,895,36,853,197,222,529,747,891,329,355,331,738,726,914,707,687,9,166,948,3,804,508,318,480,763,799,288,827,704,597,870,576,507,887,88,787,689,345,959,11,154,198,291,135,667,307,531,287,402,996,65,247,437,573,83,413,464,546,885,660,677,63,408,259,467,858,534,867,358,638,874,801,289,641,624,465,949,487,494,107,514,477,876,387,888,594,952,483,532,491,448,230,286,595,149,497,165,509,274,953,818,652,260,745,721,650,336,351,873,492,988,357,939,80,470,712,172,600,553,426,54,368,139,10,392,971,435,300,129,439,670,890,906,633,137,790,892,275,824,593,642,372,592,229,256,836,136,404,184,868,292,189,834,792,283,629,517,696,975,344,406,100,121,798,843,113,31,155,560,784,691,484,574,191,591,202,613,755,587,0,970,559,894,960,842,537,568,272,471,216,328,97,590,142,171,420,510,41,795,604,506,361,334,616,348,343,323,169,201,881,221,285,998,23,883,697,143,630,341,569,5,770,719,102,84,977,572,60,393,777,917,962,522,360,915,4,414,106,98,736,112,997,530,541,397,729,224,661,380,817,846,683,400,601,398,342,737,423,303,809,675,636,48,720,654,945,803,421,913,305,643,788,438,432,832,811,789,73,312,880,340,115,395,847,578,806,772,849,339,992,412,695,364,690,927,440,125,735,268,711,912,284,409,8,24,908,366,764,253,681,512,539,205,499,109,454,701,311,185,816,623,657,70,38,771,42,241,76,399,926,429,940,612,180,863,538,813,680,362,72,326,131,478,848,583,524,625,263,961,904,757,556,814,401,768,516,769,225,558,921,599,57,686,815,82,931,682,606,520,523,958,872,28,974,648,584,150,954,489,821,87,965,313,671,53,282,488,754,837,39,725,456,381,378,255,81,983,716,118,270,317,841,527,179,753,277,367,108,200,347,535,213,148,987,152,646,964,382,235,12,377,756,902,411,495,306,89,627,243,776,519,433,861,830,67,199,920,761,582,773,932,302,866,158,982,923,428,242,116,774,622,276,610,565,13,632,812,852,678,669,321,182,566,713,521,196,542,415,26,981,119,18,744,45,396,793,854,723,968,498,567,194,208,941,775,410,575,211,104,325,995,663,417,502,183,237,434,545,659,394,91,220,267,698,314,631,993,44,460,727,611,335,298,603,338,370,833,219,955,810,528,540,972,405,123,634,896,153,50,937,431,363,947,589,580,32,879,52,662,823,608,203,485,78,989,301,195,473,740,877,857,160,985,304,571,59,385,628,6,544,296,794,278,228,474,829,855,233,271,369,748,916,555,279,250,124,430,294,640,548,21,918,262,95,513,570,371,999,86,991,299,297,174,476,676,273,986,493,897,767,586,621,780,475,49,75,665,882,706,181,699,425,246,156,673,217,828,151,244,452,505,618,264,760,346,445,840,831,159,543,845,207,889,164,47,990,141,884,178,705,58,893,819,127,144,236,966,427,928,320,293,700,963,783,731,29,732,140,762,443,943,349,826,22,486,354,337,944,922,458,161,653,251,61,379,468,626,391,554,942,733,126,281,122,79,741,447,280,708,105,651,386,547,778,791,34,598,562,419,825,245,74,206,935,644,577,635,365,37,504,482,501,133,973,441,602,450,258,389,796,779,637,851,157,227,844,739,455,898,717,117,215,639,64,27,864,715,85,356,315,110,147,145,709,218,33,128,451,994,187,724,51,758,684,403,333,734,703,865,862,765,886,69,956,40,679,561,875,688,500,899,722,581,658,919,350,210,605]","arrowright","true","0","6","217","1000","[""0004_N1000_K0217_NOCLIQUE"",""0025_N1000_K0217_CLIQUE""]"
"","","","","","audio-keyboard-response","64","127186","0.0-56.0-0.0-1.0","","null","audio_feedback/right/coin01.mp3","null","","","","0","6","217","1000","[""0004_N1000_K0217_NOCLIQUE"",""0025_N1000_K0217_CLIQUE""]"
"","","","","","canvas-keyboard-response","65","128856","0.0-57.0-0.0-0.0","","582","","arrowright","[134,657,63,44,861,189,29,305,338,951,750,445,896,976,687,283,171,597,130,737,3,672,301,852,35,206,46,383,631,25,767,394,908,42,321,420,782,697,565,336,925,28,909,877,491,826,372,122,954,732,182,721,21,131,683,845,458,378,145,641,140,619,367,205,261,253,311,727,500,75,61,974,273,280,241,379,17,910,985,512,162,260,603,81,71,299,407,288,918,583,423,381,166,414,837,670,991,563,699,507,38,891,729,880,809,43,53,350,245,412,666,363,820,902,509,235,358,725,578,51,947,388,371,365,52,882,627,118,912,255,340,604,152,601,498,343,402,541,87,20,743,778,461,64,977,94,872,178,486,356,109,115,589,259,517,923,330,440,203,817,475,931,398,577,748,794,444,32,718,847,522,26,248,222,821,308,169,747,592,262,534,849,111,932,714,353,382,779,658,499,533,377,5,588,33,390,70,811,471,489,329,473,347,164,551,511,151,92,798,915,819,825,611,614,291,239,944,708,184,228,895,605,972,981,777,797,874,501,447,635,647,193,135,45,285,730,13,804,490,899,783,519,920,8,436,682,411,530,593,822,933,405,812,868,638,85,510,326,691,146,633,34,573,546,302,831,785,84,55,916,766,634,669,528,282,199,615,655,640,518,110,805,435,621,221,225,516,890,888,96,274,770,696,66,992,623,272,434,653,483,179,290,722,692,24,606,74,310,236,328,876,154,197,333,220,608,268,802,117,93,465,988,160,167,860,175,973,926,487,514,366,618,591,769,316,460,558,101,251,702,16,960,957,88,219,325,836,772,462,717,939,334,997,625,62,437,242,67,50,706,346,355,537,10,306,158,267,198,761,987,155,557,479,47,133,91,369,289,870,734,116,663,949,386,940,536,488,240,943,431,442,183,303,484,720,543,99,194,989,397,496,403,788,678,322,784,787,58,919,359,176,286,780,59,869,768,642,312,294,348,990,121,159,36,263,389,494,210,31,72,521,808,814,503,223,513,840,559,773,454,287,590,911,562,756,906,384,676,449,914,630,477,344,418,753,705,457,893,247,994,971,897,250,774,125,300,103,165,539,701,901,659,567,878,690,39,738,482,136,757,304,41,790,19,979,560,527,249,396,968,864,474,544,710,667,362,86,652,671,190,807,643,745,938,575,775,827,549,554,332,523,468,505,760,776,30,795,258,620,150,141,4,493,419,839,739,78,632,156,399,161,953,211,719,424,668,107,188,983,602,645,569,2,703,49,969,11,792,568,835,548,15,566,438,689,935,213,813,828,266,921,478,416,707,319,119,243,581,986,838,408,731,195,495,889,857,120,595,196,704,999,281,771,570,214,409,728,892,801,956,421,850,14,277,685,90,83,929,610,180,576,749,345,413,337,466,842,89,320,649,313,373,443,293,789,571,616,76,829,352,529,854,648,376,834,709,100,201,168,816,114,215,254,712,637,79,875,354,296,681,553,113,82,137,106,841,661,224,40,679,856,18,680,793,218,966,446,252,56,526,60,556,674,126,315,327,275,270,342,451,998,561,846,515,173,626,147,186,862,207,470,673,142,781,733,143,716,585,65,237,650,192,504,230,425,713,799,506,885,231,664,898,629,993,803,958,27,980,995,185,7,508,996,907,913,762,415,582,54,833,936,579,832,204,9,715,978,765,317,57,112,481,469,904,961,941,453,97,636,542,843,148,406,552,596,202,351,810,314,600,226,586,853,917,538,392,395,970,830,404,441,759,357,307,764,873,129,651,858,349,662,374,806,644,622,432,216,613,497,429,200,584,535,480,324,370,227,948,675,269,844,656,452,594,410,459,23,887,295,609,945,393,879,724,871,848,144,928,863,688,341,217,433,187,132,726,742,368,598,752,735,401,924,430,886,181,607,80,232,48,124,946,967,547,472,456,1,520,540,163,934,439,37,824,0,271,265,624,455,937,153,612,823,754,865,617,884,6,284,736,331,360,796,587,894,98,318,930,922,256,744,740,867,883,962,660,391,244,711,695,955,104,339,786,12,102,279,628,276,212,139,105,417,550,525,400,723,755,73,177,95,800,77,677,234,309,297,485,450,741,855,361,68,172,881,599,646,246,982,127,209,278,502,428,157,108,257,531,138,964,903,233,665,229,170,323,69,123,866,942,492,693,545,758,746,463,791,751,208,464,524,965,684,467,387,422,975,818,698,572,763,532,385,426,815,448,952,22,654,128,574,555,927,700,639,564,427,905,476,950,375,149,859,984,580,686,298,364,174,238,694,851,191,959,264,292,963,380,335,900]","arrowright","true","0","7","217","1000","[""0078_N1000_K0217_NOCLIQUE"",""0075_N1000_K0217_CLIQUE""]"
"","","","","","audio-keyboard-response","66","129845","0.0-57.0-0.0-1.0","","null","audio_feedback/right/coin01.mp3","null","","","","0","7","217","1000","[""0078_N1000_K0217_NOCLIQUE"",""0075_N1000_K0217_CLIQUE""]"
"","","","","","canvas-keyboard-response","67","131477","0.0-58.0-0.0-0.0","","560","","arrowleft","[652,702,846,422,86,605,91,645,389,957,914,651,600,966,102,174,301,950,46,760,313,587,664,412,177,629,662,863,38,459,25,520,552,181,861,445,447,742,877,850,891,535,803,744,995,357,74,446,802,609,382,465,403,888,929,628,336,41,548,90,526,636,9,105,383,783,756,267,94,52,725,168,571,905,915,900,680,368,326,704,971,237,948,397,660,226,165,245,847,229,796,344,149,606,271,812,763,7,193,984,824,467,391,443,933,98,508,103,541,946,138,279,302,23,395,362,616,566,453,27,436,724,735,787,364,235,828,665,622,678,241,631,93,771,874,215,711,286,232,512,337,21,259,687,164,398,721,958,617,476,498,419,793,766,649,936,825,730,747,236,70,244,502,262,223,809,513,321,578,180,774,78,323,486,618,867,128,83,875,79,970,169,424,750,469,792,129,806,621,350,202,330,607,801,723,677,456,637,882,769,738,414,717,789,256,213,205,941,249,155,239,555,835,603,160,533,347,575,449,331,833,531,159,586,178,270,295,598,626,220,922,360,868,819,3,327,572,974,972,380,444,200,225,253,40,988,335,551,199,65,92,924,384,909,683,573,596,471,943,97,282,72,545,114,488,185,648,95,137,752,757,794,998,992,599,195,831,624,754,29,20,722,407,197,965,461,952,927,653,473,14,409,309,423,985,359,201,920,37,277,106,143,830,574,815,710,650,61,860,55,17,857,718,482,594,834,765,314,400,901,126,370,82,233,294,48,80,746,899,176,714,808,194,989,75,994,588,311,427,947,926,525,483,919,328,130,478,703,297,222,31,536,818,258,656,425,132,243,623,611,15,303,564,955,158,705,980,779,845,539,570,795,438,505,218,393,695,392,172,982,591,317,148,354,567,107,406,568,506,770,390,104,805,141,451,700,777,814,810,516,77,367,34,604,959,838,855,916,690,170,2,329,560,304,356,219,120,715,632,510,978,896,521,12,893,171,298,692,590,485,921,676,807,113,246,613,470,561,928,748,492,402,290,307,820,954,842,672,280,124,790,349,546,179,691,878,706,558,156,961,266,494,643,644,967,319,88,849,740,556,365,278,472,898,895,163,455,537,110,904,837,13,39,657,89,910,839,289,993,276,768,67,242,285,908,439,562,305,627,408,378,593,615,630,381,853,272,191,826,60,49,410,897,528,5,152,547,413,925,428,474,646,935,871,214,190,216,865,511,58,274,238,251,394,884,437,973,785,658,610,315,64,668,968,773,602,589,876,468,517,960,208,524,109,949,207,115,44,338,799,542,254,493,454,612,134,854,817,579,659,35,136,682,224,334,934,183,641,707,84,940,339,601,133,63,1,655,956,260,939,719,221,638,844,57,515,913,318,727,977,22,784,435,322,530,293,693,431,999,870,741,263,85,426,827,450,620,840,614,923,751,864,4,788,504,186,231,343,938,112,821,211,883,565,597,379,173,269,6,210,373,416,685,358,28,386,964,890,739,639,991,673,306,728,858,475,889,507,654,206,647,32,749,758,324,184,642,879,448,945,736,713,275,131,248,353,388,264,480,308,729,415,663,312,24,320,175,523,50,986,811,144,487,33,490,699,540,377,192,499,944,782,983,300,731,852,732,333,709,582,856,684,121,361,912,669,458,375,519,557,625,332,734,18,142,411,257,862,544,848,990,167,872,188,463,894,671,716,633,532,442,204,635,348,147,405,118,775,71,283,369,689,866,698,962,310,495,823,227,942,822,261,892,151,19,661,708,284,585,477,288,265,255,675,640,951,522,580,712,902,813,726,43,140,832,697,420,209,340,963,869,786,733,987,100,608,791,619,885,434,979,81,385,42,489,576,123,918,679,73,549,346,417,479,457,681,432,430,366,595,69,316,906,581,745,903,187,234,217,577,198,47,281,563,694,953,125,404,117,26,127,250,969,686,843,880,518,345,16,534,701,466,481,804,753,829,157,696,291,292,59,0,996,886,355,8,111,484,767,932,325,981,56,491,166,816,203,421,559,268,836,352,145,230,99,975,859,122,764,139,376,440,800,296,634,228,387,433,503,464,509,374,154,592,53,150,930,363,527,873,781,462,45,212,87,162,670,931,851,189,720,247,10,778,776,36,240,743,584,371,667,496,108,780,881,674,553,917,759,529,146,418,372,501,762,997,399,761,101,351,755,772,196,887,441,54,583,153,514,161,287,554,30,119,11,911,937,841,96,550,797,62,976,116,51,273,798,500,538,252,342,76,460,299,666,737,66,135,182,341,543,396,401,569,429,452,497,68,688,907]","arrowleft","true","0","8","200","1000","[""0025_N1000_K0200_CLIQUE"",""0099_N1000_K0200_NOCLIQUE""]"
"","","","","","audio-keyboard-response","68","132465","0.0-58.0-0.0-1.0","","null","audio_feedback/right/coin01.mp3","null","","","","0","8","200","1000","[""0025_N1000_K0200_CLIQUE"",""0099_N1000_K0200_NOCLIQUE""]"
"","","","","","canvas-keyboard-response","69","133989","0.0-59.0-0.0-0.0","","651","","arrowleft","[772,675,367,628,113,706,895,222,474,510,378,611,246,901,564,621,428,296,849,333,855,164,577,9,285,12,862,202,261,565,70,406,435,229,909,748,802,643,509,149,191,597,281,91,307,711,56,964,511,786,321,866,534,146,887,993,365,96,518,377,181,911,541,217,913,551,815,220,391,476,622,458,600,847,687,1,666,288,169,580,798,758,252,84,879,908,148,825,24,60,963,176,49,256,539,287,767,842,133,902,153,819,37,137,552,743,757,147,5,124,468,755,227,29,39,450,612,117,466,502,270,504,814,390,264,578,617,660,906,523,549,971,570,396,198,797,140,376,927,694,258,824,440,700,721,889,751,407,344,789,443,216,184,563,593,408,590,144,32,143,615,922,42,864,732,45,81,172,931,40,74,623,545,423,856,750,284,457,778,985,3,486,349,670,417,981,358,571,224,461,968,52,232,813,496,854,79,131,553,817,279,441,297,698,453,639,601,629,104,501,904,357,456,421,409,793,253,388,956,411,669,381,444,447,250,197,65,276,576,54,642,647,890,988,756,303,998,766,681,527,744,982,654,182,122,19,339,465,735,425,637,960,445,383,827,731,556,513,434,274,658,567,139,260,452,730,188,644,689,240,944,695,620,76,432,93,173,874,741,427,516,598,230,787,548,659,495,861,805,517,979,353,795,720,888,722,67,314,142,524,529,929,479,634,21,538,57,920,185,446,769,560,267,263,61,366,961,26,740,759,589,683,86,31,327,915,348,82,419,673,25,860,308,88,156,561,986,738,298,10,301,95,918,865,338,499,592,393,737,239,43,482,431,525,241,187,989,161,178,938,193,101,691,141,676,640,331,974,242,742,535,923,532,63,776,204,978,710,336,322,837,526,462,996,965,89,398,247,138,403,688,844,33,201,132,555,713,870,98,114,249,777,584,579,386,469,485,830,459,626,916,848,58,609,352,23,619,604,746,764,645,433,87,540,630,770,492,480,368,575,487,808,460,199,586,332,305,402,652,207,936,371,455,268,568,490,488,962,656,632,696,328,416,886,489,810,678,972,337,491,262,857,550,719,925,677,885,771,542,627,100,412,648,662,154,218,129,105,697,850,359,606,503,152,520,973,727,701,255,782,672,235,587,544,914,90,315,326,762,340,995,942,286,605,838,820,394,663,200,709,761,843,405,569,73,871,399,128,891,302,603,633,77,135,97,345,248,442,790,934,614,573,881,481,784,295,335,71,926,223,823,28,657,608,994,876,917,745,528,151,508,970,170,121,420,928,562,653,422,266,400,291,254,179,717,245,845,991,952,415,473,878,702,910,13,987,763,649,880,167,283,924,251,707,300,11,467,108,512,976,583,679,651,537,2,438,203,752,610,903,53,244,80,294,665,809,635,869,919,372,948,30,470,557,816,803,966,118,413,794,318,150,839,699,729,180,351,851,692,500,116,271,684,941,521,836,685,591,907,324,543,883,102,811,313,708,342,779,103,977,733,897,774,788,384,356,753,969,41,616,546,20,773,747,106,846,736,448,410,780,157,109,949,828,35,38,265,397,46,190,959,852,323,196,177,209,613,718,120,346,690,192,807,734,238,602,68,484,16,930,175,867,75,739,72,631,463,280,821,389,304,160,950,873,289,947,50,958,7,451,186,872,282,317,277,940,714,385,210,22,796,208,257,765,899,310,163,439,724,17,369,703,841,69,343,374,547,362,712,607,145,705,83,725,299,943,306,14,650,967,800,582,618,211,806,884,522,85,62,213,896,704,125,341,638,312,585,311,939,726,559,588,475,47,483,951,533,574,136,801,94,363,64,112,392,334,34,783,935,162,829,494,957,320,997,671,723,231,259,329,379,799,507,478,655,975,426,350,437,174,505,877,275,868,370,401,625,760,99,754,859,219,225,361,668,728,194,44,932,863,596,674,325,278,364,497,418,228,272,749,395,983,354,158,212,436,716,168,36,215,292,984,166,8,171,498,243,316,472,514,595,785,519,980,127,373,221,464,894,858,682,27,840,664,900,236,990,531,237,387,414,205,636,319,214,48,15,822,404,826,566,119,449,454,554,937,226,183,853,892,159,955,273,792,954,898,115,155,818,832,667,594,130,78,234,92,835,646,126,59,775,715,309,992,6,0,429,680,330,110,921,347,424,946,375,912,123,558,804,933,953,572,493,18,831,875,477,165,107,515,195,945,290,134,269,781,624,882,812,4,293,686,599,506,693,834,233,206,768,51,380,581,55,530,641,111,355,833,536,471,893,905,382,189,661,66,999,360,430,791]","arrowleft","true","0","9","200","1000","[""0024_N1000_K0200_CLIQUE"",""0068_N1000_K0200_NOCLIQUE""]"
"","","","","","audio-keyboard-response","70","134986","0.0-59.0-0.0-1.0","","null","audio_feedback/right/coin01.mp3","null","","","","0","9","200","1000","[""0024_N1000_K0200_CLIQUE"",""0068_N1000_K0200_NOCLIQUE""]"
"","","","","","instructions","71","138280","0.0-60.0","[{""page_index"":0,""viewing_time"":3294}]","3294","","","","","","","","","",""
"","","","","","canvas-keyboard-response","72","140059","0.0-61.0-0.0-0.0","","709","","arrowleft","[964,766,295,106,29,275,603,453,507,901,815,342,855,46,806,695,206,376,6,898,242,950,177,788,552,519,145,416,232,526,594,426,161,612,82,967,166,525,443,241,77,888,222,340,471,361,573,789,817,570,488,50,454,649,216,248,155,438,468,421,623,100,378,288,325,962,17,692,683,600,545,541,936,272,225,592,293,143,844,395,670,37,843,298,886,701,171,436,975,366,0,423,940,353,118,891,768,743,230,413,803,644,925,648,205,377,62,661,939,121,191,182,461,324,991,517,500,234,948,162,110,91,239,458,338,350,440,379,103,60,101,772,354,756,178,669,21,425,334,480,172,437,119,811,96,89,208,769,28,510,959,255,982,764,474,348,498,240,978,791,530,713,579,546,953,109,252,804,739,2,154,922,880,125,144,864,947,323,446,459,351,316,746,958,897,859,375,684,336,742,207,793,374,885,352,286,435,984,202,462,827,729,258,339,8,902,921,391,414,520,802,970,190,456,657,229,760,311,571,909,646,613,654,276,513,597,523,496,913,735,752,284,723,148,392,790,875,638,22,650,98,383,569,326,618,169,417,90,72,303,797,487,838,116,373,558,52,582,292,385,369,641,952,986,771,36,244,501,493,152,265,747,763,514,533,631,122,362,841,823,358,183,659,428,917,432,485,808,664,895,608,759,879,630,840,924,30,861,846,988,133,40,544,696,995,439,322,755,990,757,506,637,407,445,578,951,682,889,213,43,7,776,609,853,777,157,505,685,58,604,405,386,442,741,87,542,296,698,263,702,86,113,167,80,749,748,856,656,397,871,146,231,813,85,845,105,15,268,483,881,931,732,384,518,828,601,919,762,782,112,32,706,662,168,847,805,449,197,583,273,475,270,31,297,79,605,703,770,784,337,634,387,540,200,84,610,857,899,237,944,418,589,466,893,973,104,267,927,282,550,473,963,332,422,409,574,932,470,245,868,816,176,372,463,236,511,70,801,142,294,476,993,9,758,174,555,627,210,185,131,134,914,65,635,721,778,824,333,588,45,714,983,923,539,420,860,433,996,536,260,566,606,529,810,553,368,767,688,203,217,367,163,371,532,832,11,737,619,175,215,786,427,484,538,981,158,556,431,512,317,689,887,628,937,320,415,567,114,38,321,719,381,705,310,738,678,724,359,1,949,651,193,699,660,93,370,220,900,199,587,629,285,393,586,774,822,14,16,44,626,652,457,928,854,632,434,865,219,355,19,430,562,892,671,831,78,912,218,862,548,226,173,557,836,697,966,181,249,494,281,486,607,585,926,930,819,522,238,709,744,227,935,478,221,447,794,896,527,73,228,489,731,20,180,904,41,380,787,108,360,690,382,188,13,313,728,711,537,304,111,987,56,211,565,725,224,95,852,233,665,335,666,149,798,243,309,740,647,715,184,10,57,165,516,961,745,676,653,48,502,136,491,497,277,535,300,141,780,955,394,266,5,580,639,765,581,347,312,867,694,196,933,620,469,717,568,890,464,399,27,795,398,960,327,617,965,492,820,482,509,365,830,773,781,179,153,75,834,874,33,645,504,94,839,863,271,916,404,673,577,680,117,968,866,357,929,68,622,547,51,564,751,341,495,132,884,850,212,63,633,302,299,283,624,410,799,291,969,596,81,411,170,625,408,318,602,83,262,812,672,115,837,643,829,736,976,147,479,531,521,198,305,223,877,942,515,549,590,66,246,809,910,250,734,71,99,792,444,189,264,53,257,419,55,251,331,851,128,908,452,74,490,47,849,448,403,869,424,873,477,750,503,821,783,807,254,700,187,704,591,611,194,129,938,345,201,848,120,402,150,561,575,971,319,301,667,388,412,306,278,534,675,655,307,269,401,69,256,279,691,195,107,124,259,328,54,42,599,76,985,390,980,722,4,343,451,858,280,992,614,406,989,481,140,779,26,287,3,716,598,554,97,584,677,825,551,946,524,308,253,499,429,761,18,835,674,687,214,615,396,920,559,290,450,137,718,727,882,156,59,640,209,23,465,997,102,796,974,894,595,658,693,814,126,918,151,455,364,467,957,621,753,712,943,35,870,833,508,139,235,261,710,344,135,24,315,186,906,842,543,915,907,329,25,775,883,994,88,977,472,192,389,708,204,400,636,12,945,593,441,356,123,934,941,903,668,274,679,127,972,39,572,346,954,872,164,785,563,686,800,528,349,159,289,979,330,707,956,92,878,826,64,576,130,905,911,720,754,681,460,160,560,733,726,616,61,998,34,363,67,818,247,663,642,314,999,730,49,138,876]","arrowleft","true","1","0","300","1000","[""0027_N1000_K0300_CLIQUE"",""0001_N1000_K0300_NOCLIQUE""]"
"","","","","","audio-keyboard-response","73","141045","0.0-61.0-0.0-1.0","","null","audio_feedback/right/coin01.mp3","null","","","","1","0","300","1000","[""0027_N1000_K0300_CLIQUE"",""0001_N1000_K0300_NOCLIQUE""]"
"","","","","","canvas-keyboard-response","74","142442","0.0-62.0-0.0-0.0","","475","","arrowleft","[890,511,444,904,943,485,83,542,431,296,582,635,300,222,714,892,769,880,77,832,153,510,48,459,64,324,440,911,216,862,559,655,203,4,267,355,630,302,882,806,600,638,927,661,982,838,868,686,21,506,243,468,660,536,727,208,172,448,464,233,391,94,59,672,260,987,350,270,215,972,728,683,93,73,128,72,103,715,273,533,828,212,262,960,352,733,978,961,692,251,134,809,954,918,8,318,610,999,174,2,776,771,941,974,348,509,612,51,105,428,20,971,717,596,878,718,133,426,721,816,305,29,992,482,142,383,783,384,716,9,756,294,626,713,28,957,68,874,456,532,681,538,256,411,198,336,474,545,824,146,132,699,150,873,682,163,939,544,171,229,181,598,439,60,407,423,609,326,925,369,515,924,825,902,261,768,274,636,217,772,973,71,363,323,574,561,942,980,989,79,130,206,845,322,385,148,6,200,605,603,787,178,505,253,295,563,615,394,712,587,422,494,250,392,901,314,953,490,856,741,759,102,822,793,380,70,152,760,438,30,39,762,121,830,641,749,649,34,292,282,63,234,919,948,204,629,735,739,312,173,424,507,117,659,393,127,328,434,259,899,752,606,307,176,462,13,327,529,421,549,317,633,524,990,334,366,433,652,400,345,387,417,791,7,938,347,608,441,22,895,308,247,11,594,46,481,139,851,283,214,589,278,921,165,584,761,580,162,670,40,581,792,753,691,632,732,477,785,56,548,74,573,255,998,569,674,25,932,726,945,751,592,663,252,166,887,789,375,968,653,859,586,891,0,896,196,316,487,154,257,599,571,784,281,211,371,341,937,365,915,436,601,583,666,677,452,449,479,330,940,578,897,184,611,951,144,160,821,852,540,445,399,518,729,886,381,693,562,177,170,678,33,140,893,454,648,180,993,404,145,209,218,237,415,126,226,332,418,831,849,926,358,50,517,885,577,933,858,709,344,602,920,287,333,489,568,169,453,402,92,552,101,109,703,889,309,722,565,66,871,747,478,370,135,325,321,458,777,947,202,221,125,291,865,258,734,640,493,220,823,810,416,570,116,356,676,644,499,775,488,167,705,23,65,359,188,521,413,45,335,414,996,95,357,881,320,833,864,650,155,840,53,702,843,228,860,230,280,558,898,966,710,500,625,798,637,876,875,981,486,275,765,437,241,912,556,572,91,159,900,119,297,930,396,304,964,554,100,432,745,767,435,61,205,364,141,138,293,695,492,58,560,684,97,496,701,579,442,175,395,512,463,98,850,696,429,263,471,994,80,498,491,406,264,112,47,634,246,673,969,15,567,3,272,447,564,805,746,238,607,591,975,557,531,959,910,622,107,539,75,617,18,669,41,298,855,289,764,484,519,207,232,541,763,351,708,110,782,269,543,42,936,820,697,913,467,781,420,376,970,799,67,240,976,525,185,451,36,99,879,69,182,319,190,680,129,186,744,664,977,788,82,143,797,870,151,90,908,403,446,210,5,614,962,410,719,773,111,704,928,87,526,219,168,627,575,197,235,922,55,725,690,131,720,1,473,790,465,76,949,24,711,288,841,120,800,191,10,779,991,158,14,624,754,534,950,17,527,455,192,836,846,914,814,748,245,248,361,508,195,616,687,397,450,284,967,268,266,104,905,827,923,497,389,286,742,740,368,115,236,867,979,623,469,187,597,475,551,382,550,818,780,378,631,183,472,956,427,331,766,723,842,78,386,621,619,869,513,461,888,193,646,935,227,857,354,244,265,819,894,443,225,986,929,457,179,706,346,590,620,231,285,367,700,535,279,758,839,224,553,847,16,834,795,377,339,86,774,657,801,946,26,89,872,952,811,817,124,984,405,137,136,27,343,958,122,829,201,43,547,373,62,736,114,755,401,254,595,808,388,965,909,157,815,299,57,665,35,340,390,679,37,804,662,156,807,866,503,794,194,738,85,628,147,944,658,694,501,983,412,668,460,408,49,223,812,430,337,778,372,995,757,656,106,917,770,164,329,38,848,118,12,854,514,360,342,997,480,685,398,113,884,504,353,863,689,425,743,667,837,955,639,313,645,916,310,303,213,585,835,466,522,642,81,731,271,96,750,483,301,523,988,242,88,675,108,123,643,826,516,618,277,31,32,786,189,803,907,651,276,844,555,530,934,985,306,374,853,883,52,409,654,593,737,963,44,931,546,688,802,724,419,476,576,161,903,877,199,149,613,470,362,502,54,730,796,349,707,671,906,528,379,338,315,566,861,537,647,698,249,588,19,495,84,239,604,311,290,813,520]","arrowright","false","1","1","300","1000","[""0063_N1000_K0300_NOCLIQUE"",""0059_N1000_K0300_CLIQUE""]"
"","","","","","audio-keyboard-response","75","143445","0.0-62.0-0.0-1.0","","null","audio_feedback/wrong/error01.mp3","null","","","","1","1","300","1000","[""0063_N1000_K0300_NOCLIQUE"",""0059_N1000_K0300_CLIQUE""]"
"","","","","","canvas-keyboard-response","76","145252","0.0-63.0-0.0-0.0","","829","","arrowleft","[788,348,150,18,350,240,517,155,208,614,46,697,797,437,631,947,380,477,90,934,995,602,739,487,746,718,444,308,895,179,761,724,249,855,778,910,275,863,548,840,309,562,429,381,483,211,706,898,246,684,469,974,418,627,581,709,223,803,949,908,43,491,492,140,533,510,513,425,498,82,430,264,404,22,253,15,657,206,589,731,401,786,572,525,641,660,94,579,423,108,166,963,656,28,737,185,844,854,412,165,831,881,360,593,188,964,969,357,495,47,9,936,654,726,828,424,807,587,231,801,385,571,845,703,651,142,755,463,852,273,251,341,659,617,87,295,820,349,742,221,69,577,780,686,758,445,130,985,935,959,655,184,334,999,342,625,417,371,554,312,826,584,943,12,752,911,723,569,704,232,200,470,907,552,771,893,105,542,658,712,474,361,846,884,837,564,909,776,822,95,688,461,601,167,40,1,335,594,666,468,977,227,131,783,269,255,973,375,57,939,691,372,917,272,900,545,456,860,484,416,368,480,550,168,162,962,825,365,485,880,345,757,291,244,39,570,67,181,6,777,117,315,330,650,882,459,766,612,268,419,524,754,143,926,540,267,811,25,13,616,217,107,813,622,488,326,592,982,242,316,685,526,144,769,298,942,369,848,711,956,216,370,42,568,79,213,740,271,816,720,280,994,247,903,405,322,922,669,902,352,810,448,916,735,239,857,708,297,336,701,914,452,662,561,191,952,748,447,286,465,214,756,306,421,887,892,397,56,713,727,940,233,23,532,920,123,611,961,66,743,609,407,230,38,699,682,152,751,861,129,824,693,146,285,843,632,986,866,588,603,993,4,821,615,311,580,263,937,196,858,189,296,288,968,224,283,951,149,971,337,675,84,115,68,393,765,690,411,198,966,835,318,457,11,745,19,710,770,705,563,33,26,990,327,897,505,173,541,192,792,266,534,851,100,225,834,729,558,391,478,148,680,984,450,929,733,414,467,827,121,96,489,696,54,290,930,195,394,799,605,101,169,472,668,479,847,302,176,324,256,250,395,257,805,607,37,122,802,234,621,398,164,134,732,815,241,436,462,203,91,689,402,97,187,299,52,928,305,170,523,293,88,531,141,538,965,623,455,377,183,987,646,998,171,674,867,344,75,41,849,207,967,20,500,649,125,194,174,833,439,981,695,346,648,960,543,738,284,694,36,992,700,624,260,431,744,620,556,838,582,978,243,300,823,606,323,793,817,774,343,872,635,471,583,135,276,220,676,919,976,209,785,559,320,274,366,636,899,81,72,946,145,432,782,794,319,85,197,598,644,71,449,567,287,50,546,842,991,76,433,597,678,422,29,747,339,110,163,725,314,832,156,235,768,80,321,358,798,789,759,333,862,957,494,205,118,599,400,93,3,864,671,199,850,222,859,363,289,362,77,476,604,202,5,537,795,875,553,868,61,633,124,182,664,950,653,886,261,338,153,544,836,889,493,753,663,997,983,435,228,252,310,923,17,109,894,865,307,126,905,873,628,565,281,48,945,114,21,353,938,736,14,58,639,392,719,591,692,927,643,16,913,45,932,442,869,516,673,204,63,92,147,218,245,32,317,34,332,683,506,486,560,509,647,396,373,446,529,460,7,504,784,440,877,116,970,406,111,128,521,329,975,879,687,51,590,219,0,630,27,715,515,426,428,44,83,303,62,830,399,574,55,600,634,178,364,749,501,530,151,482,294,73,818,741,386,958,193,667,473,520,573,384,453,640,512,161,608,359,933,796,103,180,464,812,890,408,637,158,522,551,351,610,931,496,728,681,878,30,528,236,925,954,596,301,800,282,279,441,356,750,814,519,904,154,212,133,277,883,475,413,645,278,265,714,410,159,721,819,716,415,389,595,201,378,912,104,215,535,78,888,35,258,629,325,527,60,138,490,508,661,98,652,113,871,518,944,722,259,672,773,979,106,186,390,438,989,702,388,665,331,948,772,734,585,382,549,764,539,10,547,829,99,502,119,374,941,779,132,806,901,70,839,870,190,379,292,955,503,841,670,791,497,466,340,578,59,238,679,112,157,2,760,347,677,787,458,139,790,262,387,853,177,618,915,576,354,454,619,65,328,781,434,86,160,137,443,996,876,120,972,507,481,237,403,924,304,566,383,31,804,575,499,229,613,586,980,514,730,536,717,763,555,638,626,313,953,874,511,127,808,891,906,8,367,921,767,355,270,376,762,918,175,642,451,210,427,74,420,226,102,24,89,254,885,775,896,557,53,49,64,707,248,809,856,988,409,698,136,172]","arrowleft","true","1","2","267","1000","[""0082_N1000_K0267_CLIQUE"",""0089_N1000_K0267_NOCLIQUE""]"
"","","","","","audio-keyboard-response","77","146245","0.0-63.0-0.0-1.0","","null","audio_feedback/right/coin01.mp3","null","","","","1","2","267","1000","[""0082_N1000_K0267_CLIQUE"",""0089_N1000_K0267_NOCLIQUE""]"
"","","","","","canvas-keyboard-response","78","147750","0.0-64.0-0.0-0.0","","530","","arrowright","[400,586,522,43,479,364,178,201,182,864,274,675,846,530,6,541,319,101,78,906,955,222,4,996,623,203,157,938,839,972,366,521,999,923,352,589,92,488,246,234,170,771,693,264,709,523,865,685,84,442,360,186,644,548,900,830,605,416,787,236,877,511,377,514,911,337,914,872,883,723,630,15,414,126,483,563,261,608,175,712,142,260,561,17,725,183,241,100,637,951,645,326,411,275,464,347,568,904,180,133,76,214,595,752,992,356,0,77,947,934,660,922,988,763,169,614,835,527,597,441,966,843,403,545,23,342,574,136,433,161,823,710,930,121,331,876,724,462,468,799,437,733,560,278,704,929,784,397,205,33,544,547,471,967,174,273,34,150,492,116,151,284,850,86,913,863,587,593,613,231,519,294,12,722,302,412,881,398,611,977,721,671,269,954,228,866,680,554,362,440,553,383,7,143,849,220,466,610,896,88,334,832,211,265,438,80,54,198,625,154,893,349,746,715,796,396,177,20,591,32,895,381,575,292,19,61,998,551,774,439,55,233,535,309,353,985,390,372,798,248,37,105,654,717,60,256,734,546,697,681,98,485,315,871,110,129,340,11,571,907,627,845,542,702,993,167,691,27,463,924,221,49,655,426,176,367,65,602,42,616,171,618,736,848,290,679,570,85,71,301,145,640,415,58,926,204,307,854,104,981,821,766,99,961,622,22,726,711,235,921,814,888,436,984,918,555,404,899,682,942,317,181,539,606,478,728,119,809,537,343,686,646,838,855,194,890,47,515,703,480,159,941,505,826,642,109,69,683,193,149,102,889,179,727,354,457,459,834,358,213,730,59,130,708,40,718,794,559,882,73,48,138,936,792,486,795,643,355,83,306,898,635,756,283,577,81,525,767,494,700,777,987,706,173,739,127,507,564,504,131,991,836,14,328,345,529,385,239,868,670,8,948,409,431,35,289,665,424,62,720,410,518,365,729,57,713,36,902,758,754,153,5,664,118,508,392,840,825,287,168,974,636,25,520,97,95,10,94,484,612,124,199,158,120,509,959,391,487,473,108,932,162,82,781,842,196,695,469,164,662,453,251,495,320,829,841,267,303,465,323,566,46,223,650,634,707,920,114,276,245,528,940,346,166,878,89,827,956,894,481,886,592,369,206,649,375,26,874,632,50,638,576,790,489,382,242,449,51,762,939,321,379,750,249,669,192,209,536,405,448,684,690,716,117,678,429,789,749,692,308,135,572,668,943,979,980,957,912,780,949,747,202,191,601,805,490,506,775,540,470,72,115,413,828,325,626,552,847,811,879,852,250,556,272,210,212,66,417,744,187,624,268,772,628,524,338,698,741,476,299,350,137,259,580,885,298,652,598,31,373,93,969,903,833,41,731,806,983,813,748,125,240,341,280,689,318,172,769,24,803,184,419,305,219,927,446,386,853,935,786,474,348,195,363,226,802,393,995,963,243,579,330,70,227,687,451,844,336,359,946,263,333,28,374,502,513,247,277,773,965,931,770,189,434,742,975,800,869,740,388,288,53,705,225,498,132,3,140,1,253,461,858,190,237,581,619,970,569,653,230,163,207,266,779,29,402,512,428,677,517,793,496,30,279,314,218,329,423,445,831,399,532,928,776,757,751,91,200,112,674,467,557,778,197,482,407,21,229,759,656,910,156,420,165,90,395,499,631,376,558,578,107,291,696,641,817,953,238,820,765,87,13,791,901,862,139,973,788,856,818,216,295,699,454,111,860,797,472,944,113,582,875,543,304,584,607,18,456,384,406,232,361,56,39,475,897,64,621,785,761,188,755,450,387,497,639,477,128,401,824,782,52,526,491,215,976,458,905,657,455,880,867,533,837,435,75,633,594,96,810,244,565,408,252,351,500,134,185,609,760,103,732,908,313,531,155,859,146,945,421,801,694,510,344,585,152,549,427,596,661,764,208,917,44,123,322,870,378,990,603,286,937,807,672,997,141,224,658,254,822,271,667,74,887,971,960,968,79,316,962,422,432,550,573,815,371,293,768,394,122,148,534,447,615,370,648,452,63,282,67,339,493,38,310,425,9,925,735,444,538,430,783,357,562,297,659,701,982,600,285,296,257,368,443,719,753,144,217,617,804,258,663,738,919,281,952,588,714,986,300,958,503,891,673,389,324,816,666,567,950,873,262,501,460,620,743,808,255,915,964,819,312,270,380,989,737,418,147,994,327,688,516,335,16,884,106,604,68,933,160,2,916,651,892,851,909,647,311,978,45,812,599,629,861,590,857,583,745,332,676]","arrowright","true","1","3","267","1000","[""0094_N1000_K0267_NOCLIQUE"",""0095_N1000_K0267_CLIQUE""]"
"","","","","","audio-keyboard-response","79","148745","0.0-64.0-0.0-1.0","","null","audio_feedback/right/coin01.mp3","null","","","","1","3","267","1000","[""0094_N1000_K0267_NOCLIQUE"",""0095_N1000_K0267_CLIQUE""]"
"","","","","","canvas-keyboard-response","80","150540","0.0-65.0-0.0-0.0","","775","","arrowright","[176,540,389,979,227,155,353,599,381,247,248,377,320,749,513,491,502,746,771,352,991,873,824,384,960,474,319,17,881,980,655,665,150,659,983,658,139,915,829,290,514,295,245,93,70,791,581,435,797,296,53,605,22,686,64,369,692,934,600,63,674,497,340,814,943,154,644,336,522,614,843,529,866,372,690,140,653,283,783,428,539,643,604,675,841,8,603,837,855,273,629,486,730,735,357,702,437,407,972,2,479,568,918,743,639,981,858,517,617,681,280,809,393,467,438,107,695,465,76,905,94,850,71,831,338,425,297,298,346,457,355,973,165,277,19,616,92,365,233,44,108,719,707,557,733,609,807,203,917,62,364,870,237,657,512,222,689,424,452,523,754,848,543,172,197,276,579,480,857,575,556,995,816,849,596,133,822,35,421,261,541,588,331,128,471,729,478,877,619,462,433,188,114,740,598,531,510,311,758,601,86,451,348,526,266,626,710,520,58,397,862,647,288,708,786,612,785,476,912,3,363,666,351,291,262,151,349,422,699,876,951,734,564,185,326,221,125,178,268,999,358,37,144,38,535,302,989,211,98,231,738,134,264,72,74,664,230,985,580,975,757,504,784,826,487,544,292,947,706,120,83,751,548,650,667,965,536,955,189,731,874,10,249,932,490,417,693,265,727,164,146,566,466,856,527,46,661,992,571,219,391,606,834,88,5,713,823,924,54,236,68,879,97,805,117,337,515,537,152,39,55,204,21,627,956,130,419,728,242,149,175,542,441,477,344,549,863,820,840,57,170,448,190,453,405,210,994,29,679,0,375,892,940,819,383,717,570,899,839,50,705,406,244,825,628,192,339,18,26,399,181,974,836,235,200,59,812,572,304,420,229,739,489,632,51,20,852,345,402,715,621,173,321,987,533,33,509,528,459,927,460,779,585,701,193,430,790,928,861,147,869,25,871,335,925,891,323,503,162,508,993,48,374,563,166,45,654,631,217,84,284,308,464,401,761,159,104,243,198,455,394,562,913,434,239,847,832,602,516,226,880,309,582,737,14,716,184,80,77,223,803,241,649,742,318,356,400,485,129,306,418,896,496,109,122,103,842,208,73,893,246,260,447,660,15,948,958,85,937,867,953,530,931,594,878,354,119,908,804,946,271,498,333,9,472,398,634,449,110,700,802,259,961,341,521,656,883,254,906,413,763,12,860,269,811,207,214,646,28,618,367,376,143,507,329,141,220,160,886,215,126,685,799,187,683,305,450,263,52,637,366,60,921,607,99,124,168,577,101,6,930,408,67,954,224,186,996,669,897,558,567,113,547,898,454,427,592,768,950,959,818,392,586,314,289,294,584,709,559,795,27,696,429,889,388,554,255,380,720,765,272,121,798,969,423,936,300,767,499,645,343,941,774,624,611,34,41,676,24,875,766,36,443,844,118,199,202,410,390,662,95,885,461,179,303,673,30,334,468,723,494,483,253,482,569,851,732,725,105,597,835,171,506,815,511,31,373,127,524,142,888,997,82,500,806,794,411,652,622,218,744,945,615,66,330,75,909,672,714,670,587,555,642,238,736,484,347,595,753,942,240,911,131,456,651,396,416,132,976,745,81,313,111,853,694,439,762,225,574,677,678,518,232,551,56,209,546,505,984,534,640,116,328,565,11,691,821,902,463,469,90,770,608,968,316,42,282,216,560,778,808,764,926,589,342,191,933,773,153,317,312,759,183,446,382,359,680,432,769,781,205,859,106,752,431,801,986,123,633,990,371,404,403,501,251,538,325,724,23,796,444,100,788,252,4,894,414,775,136,258,409,935,362,846,982,964,750,838,872,929,703,620,267,887,145,40,789,436,977,174,726,638,920,212,412,180,161,102,772,561,573,668,845,593,385,671,827,287,315,755,361,792,61,938,78,234,322,625,963,777,903,228,324,327,525,578,910,748,470,590,89,445,741,386,163,87,196,630,158,285,882,895,636,281,194,756,900,532,922,182,96,201,919,379,488,760,49,787,817,415,426,213,332,458,721,115,492,641,310,481,813,864,793,576,368,69,944,747,360,914,553,704,828,810,43,1,833,970,966,718,698,782,440,473,952,923,156,395,167,916,135,169,293,697,635,545,687,250,962,550,684,177,387,904,890,256,711,7,663,519,495,350,957,949,780,610,157,800,137,712,378,688,552,967,79,865,148,257,278,682,901,13,988,275,301,47,591,998,32,830,279,884,475,206,286,91,274,613,493,868,776,112,722,907,971,65,195,138,16,854,299,270,583,442,978,370,648,939,623,307]","arrowright","true","1","4","233","1000","[""0096_N1000_K0233_NOCLIQUE"",""0076_N1000_K0233_CLIQUE""]"
"","","","","","audio-keyboard-response","81","151525","0.0-65.0-0.0-1.0","","null","audio_feedback/right/coin01.mp3","null","","","","1","4","233","1000","[""0096_N1000_K0233_NOCLIQUE"",""0076_N1000_K0233_CLIQUE""]"
"","","","","","canvas-keyboard-response","82","153241","0.0-66.0-0.0-0.0","","624","","arrowright","[978,594,471,373,734,973,34,168,459,307,3,495,617,399,178,451,624,603,587,802,49,928,612,472,754,94,445,301,84,674,562,913,871,529,33,283,605,310,394,797,673,30,214,268,943,311,109,274,262,304,613,368,409,854,982,382,88,701,725,106,362,81,24,959,182,48,510,743,735,554,801,255,481,289,572,470,491,539,39,631,396,682,166,604,35,689,958,357,785,918,427,807,454,933,721,670,288,363,597,647,570,706,514,461,337,975,695,254,499,195,103,105,736,703,755,66,296,895,829,588,667,26,901,679,223,748,371,846,787,745,930,549,158,610,458,422,778,174,341,230,137,620,456,436,198,278,935,621,41,17,632,93,406,869,842,853,774,702,996,87,699,245,561,493,23,150,881,532,151,768,863,224,468,161,606,321,300,908,354,639,638,347,961,43,196,92,250,876,233,417,102,530,791,641,886,64,799,488,139,690,172,794,359,957,113,629,176,446,507,994,485,419,947,589,338,358,55,147,677,986,543,909,208,153,487,827,441,107,85,849,964,508,847,927,892,907,999,492,317,867,384,732,227,320,922,65,316,62,811,651,524,764,120,476,547,393,194,882,984,789,619,993,936,858,938,976,42,915,609,265,383,669,7,738,626,559,608,746,22,121,856,192,407,893,949,82,851,179,655,122,666,72,348,585,653,167,40,478,364,591,828,477,878,720,308,623,336,77,15,536,555,346,693,78,437,235,697,190,861,685,369,960,941,398,118,855,684,410,9,259,537,556,229,8,258,714,164,664,465,475,979,700,129,817,25,805,432,11,260,771,812,696,544,498,467,61,305,313,622,839,57,108,546,965,832,525,54,241,880,68,576,825,820,541,340,228,28,747,249,663,329,403,51,126,326,724,187,944,526,110,173,816,448,263,391,749,324,199,683,140,873,240,160,177,857,715,865,298,322,992,447,795,704,429,59,189,822,974,951,770,115,163,397,558,581,119,997,12,837,763,53,779,916,114,709,269,351,633,710,295,578,757,372,533,744,862,634,836,948,325,457,985,636,521,67,923,990,926,798,905,203,940,889,803,890,412,758,185,45,540,637,630,206,971,500,271,344,782,845,484,598,727,98,692,566,148,786,345,5,246,141,315,780,253,872,75,552,414,37,117,969,395,281,522,981,649,648,73,954,4,242,506,438,564,361,318,83,128,616,767,884,896,850,29,548,563,551,111,252,275,766,405,942,379,931,870,293,124,52,665,367,668,932,297,401,516,390,349,691,290,335,796,534,430,239,830,16,560,154,919,1,831,844,264,136,962,652,934,273,848,425,505,47,243,132,193,287,38,611,237,920,662,162,469,963,614,188,601,323,474,169,416,902,772,302,676,356,80,843,285,730,894,60,183,97,442,966,977,306,76,504,565,270,197,408,718,945,885,328,989,131,550,731,201,567,58,991,96,280,462,987,509,502,824,266,314,330,955,661,331,675,538,728,750,63,497,123,31,643,2,769,277,46,595,815,156,866,583,279,577,773,20,741,579,428,366,282,784,463,146,27,733,327,309,753,998,226,100,89,431,627,911,618,95,860,21,400,133,717,171,421,952,473,569,756,209,659,291,101,590,553,404,707,142,303,482,333,267,231,573,914,170,868,819,593,574,376,823,793,924,535,352,712,713,342,165,159,70,528,775,402,418,127,219,826,527,783,602,968,899,557,810,835,411,804,515,520,99,752,238,759,479,838,660,205,821,370,6,646,967,149,788,705,813,332,415,211,592,503,420,272,18,531,213,91,681,44,294,200,257,13,841,953,435,879,19,202,523,152,751,897,496,864,135,134,343,937,625,883,635,79,90,360,186,859,143,466,217,387,887,86,925,792,650,50,350,586,276,256,464,939,678,413,777,180,74,760,628,980,501,582,687,644,450,125,130,339,929,642,711,216,596,716,542,389,891,512,900,112,392,761,910,584,575,568,378,236,765,906,292,312,818,104,452,423,181,207,71,776,615,808,380,875,970,809,218,983,299,833,248,571,489,519,680,138,781,210,912,719,247,220,353,232,145,234,658,903,607,443,424,440,995,0,852,518,453,657,654,729,261,175,640,686,455,494,814,517,740,545,433,426,950,221,645,988,874,806,490,511,251,222,365,737,286,921,157,898,10,32,722,723,708,762,460,56,672,377,694,155,739,656,355,513,184,319,215,244,480,69,800,834,434,381,671,144,284,374,946,698,688,449,334,386,904,204,956,790,486,917,14,483,888,726,388,36,580,444,212,375,972,385,600,191,742,116,599,840,439,877,225]","arrowright","true","1","5","233","1000","[""0042_N1000_K0233_NOCLIQUE"",""0043_N1000_K0233_CLIQUE""]"
"","","","","","audio-keyboard-response","83","154285","0.0-66.0-0.0-1.0","","null","audio_feedback/right/coin01.mp3","null","","","","1","5","233","1000","[""0042_N1000_K0233_NOCLIQUE"",""0043_N1000_K0233_CLIQUE""]"
"","","","","","canvas-keyboard-response","84","155902","0.0-67.0-0.0-0.0","","688","","arrowright","[666,879,927,135,346,291,437,18,472,108,851,677,813,965,486,741,15,319,104,177,590,136,378,327,204,289,238,729,798,464,859,303,543,455,287,779,908,667,406,719,975,407,640,632,518,523,100,745,262,462,922,649,441,21,210,479,760,979,751,468,674,629,548,415,84,701,157,549,554,822,250,22,753,891,888,95,352,264,537,577,733,780,583,748,51,689,774,787,676,990,363,786,131,920,505,750,279,846,648,869,704,207,202,127,427,861,237,876,340,430,336,605,941,328,575,48,782,473,144,122,259,25,639,147,67,647,917,379,585,302,646,463,145,172,272,270,154,500,381,137,634,247,189,985,133,113,88,520,934,241,830,720,314,572,260,70,331,244,332,292,725,896,834,453,116,277,123,425,835,866,574,223,890,357,138,663,457,601,660,494,971,883,884,978,120,962,242,560,806,807,885,173,307,57,151,474,75,465,45,937,46,955,356,702,598,889,708,654,812,817,808,140,533,438,212,220,642,791,258,507,573,709,345,558,1,673,902,933,169,276,87,477,683,726,37,618,842,958,496,863,915,541,522,911,446,800,282,678,926,118,296,174,711,899,10,831,72,184,216,165,623,847,606,168,948,315,286,856,470,178,341,12,329,449,816,854,348,906,295,52,215,777,248,404,853,451,617,727,512,569,443,843,832,384,579,947,246,652,886,364,343,827,43,737,849,801,313,658,347,887,945,881,497,668,230,187,997,597,54,426,797,218,672,102,156,265,622,784,508,29,376,772,337,960,96,637,703,809,478,556,2,732,85,389,20,431,952,873,502,715,814,570,385,81,126,39,693,369,604,300,63,447,763,240,444,59,680,551,670,350,950,874,161,802,804,880,82,860,611,910,471,160,547,129,461,694,692,403,882,992,967,615,532,28,399,439,40,781,608,650,515,166,603,974,117,531,239,698,30,397,143,387,538,432,433,681,4,200,957,766,8,850,402,475,764,900,738,897,498,405,408,221,818,968,375,580,339,321,659,301,13,805,252,858,78,516,467,688,180,539,925,592,306,845,324,42,36,371,79,977,312,935,24,33,550,454,987,106,553,894,752,747,728,382,641,795,878,366,261,31,841,398,416,225,60,628,89,826,587,718,317,517,362,401,245,109,706,49,511,448,206,111,377,857,631,929,898,973,394,359,644,568,794,953,771,509,636,536,796,746,429,682,50,596,128,627,544,5,232,298,64,163,951,243,197,563,607,836,69,525,946,506,578,734,932,297,489,983,334,193,38,687,124,744,290,909,421,954,114,868,342,773,819,338,93,811,893,584,410,227,600,335,414,91,837,619,984,657,3,199,589,555,609,901,440,938,255,823,94,916,253,722,661,485,170,155,651,164,524,877,614,460,249,487,988,105,799,871,217,989,361,491,552,285,115,713,365,391,167,895,699,86,662,330,872,635,503,521,591,130,148,625,939,310,351,229,90,400,602,770,671,459,519,392,280,717,749,867,132,450,466,828,152,778,456,848,396,266,686,101,742,493,308,236,821,412,74,251,162,41,481,645,943,27,153,790,112,844,480,235,275,759,34,214,923,71,9,267,504,739,712,271,769,783,195,370,986,14,134,690,176,323,892,66,758,452,201,278,142,110,829,349,793,919,904,305,557,6,386,263,205,62,499,513,65,283,903,599,35,567,684,188,581,231,914,918,956,322,707,288,546,7,740,970,257,56,458,633,594,656,630,490,815,23,423,875,976,355,445,696,825,299,482,344,624,358,484,320,542,360,862,417,905,186,998,419,762,209,526,514,789,353,928,767,562,586,139,535,318,125,393,685,588,211,103,695,281,16,428,840,373,714,97,367,907,924,959,994,501,743,566,121,839,995,755,368,219,372,159,158,721,83,964,710,390,171,68,972,792,422,192,326,665,754,913,325,58,194,492,788,616,413,723,724,175,540,980,765,565,963,77,420,966,626,424,761,776,852,98,613,655,268,561,53,595,969,664,304,653,996,638,269,999,981,254,434,621,222,309,530,961,179,864,233,442,921,865,383,409,756,226,931,80,224,76,203,705,930,26,545,576,731,700,213,942,912,256,855,234,150,469,182,19,991,820,380,293,55,559,388,11,32,294,190,534,785,675,107,735,436,119,593,757,274,196,564,679,311,510,824,92,691,208,44,949,730,488,99,0,528,571,418,476,838,284,936,768,944,736,620,495,141,73,870,354,146,411,435,316,228,181,529,697,610,61,775,803,333,191,198,395,582,612,993,940,527,185,17,669,183,149,374,483,643,716,833,810,47,273,982]","arrowright","true","1","6","217","1000","[""0090_N1000_K0217_NOCLIQUE"",""0068_N1000_K0217_CLIQUE""]"
"","","","","","audio-keyboard-response","85","156885","0.0-67.0-0.0-1.0","","null","audio_feedback/right/coin01.mp3","null","","","","1","6","217","1000","[""0090_N1000_K0217_NOCLIQUE"",""0068_N1000_K0217_CLIQUE""]"
"","","","","","canvas-keyboard-response","86","158737","0.0-68.0-0.0-0.0","","867","","arrowleft","[393,158,537,560,435,414,514,689,736,271,765,955,637,354,248,449,521,635,795,515,502,971,181,218,906,446,916,356,64,266,279,743,605,828,230,383,964,869,858,647,363,82,772,142,52,136,498,189,877,638,421,345,147,292,846,486,402,785,95,571,53,69,170,913,238,107,944,746,464,519,583,995,817,634,693,892,429,758,483,826,441,606,803,530,217,396,444,283,695,534,926,610,332,88,940,522,531,798,853,921,728,465,263,104,842,557,931,391,122,157,991,228,5,412,951,127,686,888,277,616,262,788,450,380,755,403,211,46,812,47,865,939,87,545,160,66,466,577,956,30,661,185,405,24,753,364,883,41,837,506,648,129,542,820,274,471,567,476,194,379,479,349,417,261,791,642,528,141,589,999,374,771,375,536,905,469,485,762,778,649,677,541,257,80,360,105,508,899,852,552,267,133,902,489,162,727,564,297,669,308,321,872,651,8,885,487,371,145,757,894,192,723,193,722,654,178,382,304,223,173,359,503,299,600,265,962,967,456,662,945,786,135,807,538,876,928,781,294,452,355,650,697,627,864,834,720,840,861,954,729,287,126,912,839,713,903,932,344,517,969,343,376,65,196,532,119,859,77,806,482,473,392,81,370,578,804,603,150,983,148,548,516,994,617,943,554,201,225,50,9,629,495,547,900,460,295,357,85,745,933,592,652,164,246,731,735,316,440,259,203,878,251,149,293,151,385,843,793,871,366,63,979,832,942,819,918,424,425,329,342,457,671,761,55,79,613,430,584,622,241,974,870,776,896,968,881,787,10,447,78,513,499,306,285,438,777,188,37,702,895,121,327,497,470,404,524,814,620,310,352,43,165,904,112,724,318,214,672,961,796,563,934,998,400,244,996,893,0,737,655,111,477,59,707,982,850,76,144,353,426,92,593,706,102,596,348,272,18,780,200,333,816,39,665,948,130,358,236,658,61,250,73,423,523,754,390,199,434,44,282,789,831,222,313,398,756,829,551,559,25,291,823,738,6,195,70,985,365,674,139,703,106,247,242,734,609,100,966,833,965,298,827,709,897,369,764,384,901,235,598,673,854,572,169,936,973,509,407,84,573,730,769,749,645,26,256,397,922,641,492,270,337,11,16,660,166,675,556,535,848,286,910,161,569,387,330,289,220,388,208,432,802,825,507,453,898,690,525,401,40,109,824,249,20,811,838,140,619,478,500,381,615,576,367,512,959,952,2,590,207,990,546,920,62,716,394,419,960,210,719,331,202,847,505,411,595,923,191,949,565,688,818,841,227,626,953,978,372,526,260,395,680,31,209,830,958,799,886,937,604,751,527,422,269,378,183,334,639,163,368,733,377,696,957,467,307,49,172,909,621,988,687,794,587,32,335,741,759,275,288,884,561,822,666,815,975,180,301,96,459,631,887,779,60,179,586,480,15,27,835,113,599,21,125,428,766,284,280,685,116,91,698,462,581,540,575,801,300,7,124,520,533,35,708,413,501,325,844,924,808,774,99,276,347,234,224,930,597,851,544,128,338,678,797,206,74,950,22,309,608,624,75,51,33,747,415,712,644,431,219,555,790,907,889,240,659,229,566,317,701,323,212,346,305,461,197,919,437,336,17,339,692,800,491,614,152,315,58,773,123,226,19,618,474,636,699,350,679,580,445,103,205,232,643,237,90,568,744,176,591,997,987,511,134,177,120,783,681,768,442,646,475,809,110,167,239,752,93,245,891,409,42,243,984,174,155,493,418,862,373,558,322,908,132,361,12,273,992,340,281,976,725,48,657,855,570,717,582,362,3,490,977,101,813,94,143,866,1,518,98,312,233,694,67,439,914,159,845,917,268,156,311,705,154,805,45,574,494,253,860,171,989,684,625,740,915,216,510,86,938,303,981,341,664,496,221,821,607,549,946,718,54,4,890,89,748,264,868,108,715,468,670,632,328,83,458,14,882,118,867,588,947,668,623,427,484,760,767,72,579,190,676,68,993,326,182,231,455,399,13,146,488,252,585,29,408,875,963,863,168,721,175,700,290,612,935,406,204,553,153,792,451,611,750,186,184,972,714,543,849,36,433,594,319,986,137,640,711,704,115,683,28,131,763,117,320,56,667,879,436,472,782,562,23,255,927,254,443,38,97,739,873,138,420,874,663,880,314,602,653,925,742,386,856,114,278,57,691,628,980,448,351,198,454,416,481,529,710,215,550,187,324,775,970,213,732,911,941,71,296,463,656,929,302,784,630,857,836,726,410,258,810,539,504,601,34,633,682,770,389]","arrowleft","true","1","7","217","1000","[""0059_N1000_K0217_CLIQUE"",""0096_N1000_K0217_NOCLIQUE""]"
"","","","","","audio-keyboard-response","87","159786","0.0-68.0-0.0-1.0","","null","audio_feedback/right/coin01.mp3","null","","","","1","7","217","1000","[""0059_N1000_K0217_CLIQUE"",""0096_N1000_K0217_NOCLIQUE""]"
"","","","","","canvas-keyboard-response","88","161339","0.0-69.0-0.0-0.0","","717","","arrowleft","[240,319,226,109,7,358,194,145,752,277,580,331,814,299,859,653,234,442,228,25,512,498,278,591,526,303,823,955,84,410,180,576,337,826,378,611,928,298,323,137,81,950,873,407,191,734,775,284,461,151,285,38,218,390,688,938,162,816,727,995,249,917,836,868,385,585,941,790,632,420,480,815,49,82,449,610,471,608,720,851,465,833,957,313,501,559,108,912,336,102,966,148,671,804,89,256,721,263,773,311,646,650,895,490,864,96,538,236,853,550,28,369,849,592,788,408,907,551,223,344,568,35,547,628,795,470,293,555,103,112,421,627,951,314,2,456,289,878,327,32,730,493,708,812,176,125,484,879,929,394,838,388,229,175,753,813,672,976,181,100,636,335,262,458,648,24,64,150,411,733,824,975,774,45,609,354,922,745,255,75,295,487,936,245,250,99,304,374,445,556,52,403,944,282,261,87,503,635,161,533,317,724,384,770,485,663,792,246,473,673,840,670,613,11,141,325,135,516,377,624,368,478,819,444,352,370,177,204,919,901,497,208,432,740,676,149,42,397,558,477,949,97,969,36,60,963,392,539,372,647,62,205,123,142,400,5,288,322,692,91,468,698,74,279,199,119,110,419,276,402,896,9,440,755,355,565,500,542,525,909,98,58,659,380,743,494,984,778,712,797,383,509,274,588,704,677,573,856,587,696,232,164,154,265,827,404,307,186,589,273,167,225,488,379,583,604,475,939,129,633,535,195,639,518,415,269,238,667,95,340,364,541,173,566,560,990,569,850,703,886,513,992,4,160,522,463,913,143,980,57,765,334,818,616,152,747,942,423,297,435,905,750,139,675,900,883,857,174,117,903,548,783,466,201,861,0,447,170,19,333,685,272,6,72,888,15,820,437,695,882,396,977,190,543,971,707,860,85,459,215,736,562,871,601,898,784,489,482,53,476,216,757,425,452,943,537,693,933,365,594,371,644,654,431,401,413,197,426,417,393,894,606,803,200,697,785,567,758,114,8,527,714,329,890,837,436,658,86,287,796,88,414,395,674,78,595,434,231,93,481,725,660,645,772,723,870,59,387,841,800,876,196,766,241,656,787,47,546,581,351,203,291,56,257,13,891,974,717,136,66,94,281,620,731,682,519,965,877,309,713,217,474,165,619,353,504,29,892,862,237,492,130,821,227,934,140,486,552,923,406,729,822,21,953,90,920,316,155,27,83,373,443,508,989,540,842,115,107,30,275,55,71,499,845,235,12,17,292,835,982,705,259,872,825,230,172,320,424,829,343,768,715,92,111,51,931,679,728,118,739,599,306,798,701,441,133,687,491,988,880,956,852,531,41,584,300,105,147,655,959,999,23,681,789,605,375,346,711,472,754,457,222,318,664,101,345,418,748,564,719,700,153,887,360,571,462,339,126,810,764,973,244,63,213,68,198,3,991,722,338,684,206,665,464,961,422,146,120,930,855,981,652,76,106,782,985,233,858,20,945,192,16,409,220,600,439,469,14,315,520,450,761,751,806,805,534,479,405,817,602,578,187,166,73,911,207,863,127,48,39,209,156,268,916,617,454,416,760,709,927,915,570,391,37,210,946,132,510,662,614,1,726,623,746,171,359,615,260,702,301,586,634,962,169,363,801,691,31,921,767,741,603,874,438,738,630,122,43,832,362,994,678,524,597,460,382,893,642,998,582,889,996,631,830,252,324,777,834,517,756,866,159,280,735,321,793,843,637,940,50,690,283,247,993,914,657,983,612,386,121,590,330,157,138,749,935,763,350,211,184,182,686,683,621,65,18,312,242,626,716,376,453,536,844,925,212,970,689,618,557,144,433,515,554,762,80,412,759,948,124,908,771,189,899,366,926,622,22,348,134,960,593,574,846,104,183,511,446,243,839,46,467,67,505,163,185,867,651,448,937,802,290,666,254,430,305,399,523,428,271,34,932,267,361,799,918,791,224,661,967,881,529,732,44,308,577,947,544,847,904,270,706,70,507,742,221,718,869,906,978,640,532,737,952,451,179,302,884,625,964,779,986,427,958,202,248,979,680,649,831,669,794,455,357,579,310,286,744,294,69,668,398,54,910,33,924,997,598,545,10,264,326,596,875,188,987,77,848,694,809,638,549,786,710,214,865,575,502,828,253,341,902,193,561,528,389,367,251,381,219,607,483,296,968,897,128,239,26,530,808,811,429,158,496,563,699,776,266,349,769,131,178,572,506,495,356,168,643,521,40,972,113,332,79,553,854,116,347,781,954,258,514,780,342,629,641,328,61,885,807]","arrowleft","true","1","8","200","1000","[""0076_N1000_K0200_CLIQUE"",""0040_N1000_K0200_NOCLIQUE""]"
"","","","","","audio-keyboard-response","89","162325","0.0-69.0-0.0-1.0","","null","audio_feedback/right/coin01.mp3","null","","","","1","8","200","1000","[""0076_N1000_K0200_CLIQUE"",""0040_N1000_K0200_NOCLIQUE""]"
"","","","","","canvas-keyboard-response","90","164154","0.0-70.0-0.0-0.0","","907","","arrowleft","[643,788,567,41,210,132,274,327,386,199,937,136,102,198,940,969,450,248,457,833,467,715,995,799,765,45,958,774,171,891,14,830,142,669,413,43,899,646,406,461,931,681,177,702,128,361,422,915,918,343,727,139,145,844,267,257,241,766,468,627,280,0,857,245,269,250,682,589,549,62,657,2,927,896,595,978,917,454,129,541,521,708,616,480,672,50,942,492,308,611,594,436,679,227,712,197,507,256,373,968,745,345,734,678,18,173,656,329,961,998,57,747,189,600,640,114,192,286,516,306,484,442,992,636,856,617,506,710,813,689,726,382,64,430,599,760,223,285,837,379,642,408,929,162,426,971,723,292,448,44,750,515,112,809,299,786,224,881,634,928,496,511,491,626,370,4,261,309,687,161,284,782,144,574,866,108,99,629,603,48,509,930,736,675,619,563,963,77,532,357,769,410,214,17,805,580,863,158,897,531,181,938,378,94,562,835,874,29,916,718,75,347,127,275,951,698,106,579,93,994,749,898,520,758,288,972,479,411,784,83,919,243,358,620,493,743,622,432,981,365,804,236,371,205,868,797,400,395,764,906,598,703,31,920,219,535,722,305,665,13,42,100,957,913,983,909,153,960,204,953,625,356,341,974,489,346,932,143,836,437,635,674,662,59,61,425,944,431,572,9,376,353,867,76,566,785,451,934,798,182,78,122,653,159,648,140,488,237,568,5,564,808,651,887,647,277,527,839,560,157,504,759,123,471,495,85,70,186,524,238,230,604,445,990,438,739,882,416,815,989,290,751,781,419,539,955,439,478,272,778,470,384,110,771,86,453,624,500,443,997,999,632,977,359,82,939,421,852,713,19,988,283,293,510,945,287,372,530,231,571,473,576,184,278,476,738,364,333,217,276,463,38,791,460,593,587,180,691,685,855,864,312,597,166,228,514,503,606,281,954,119,534,469,733,304,36,570,465,987,239,601,73,872,393,966,550,200,107,707,54,956,551,429,858,101,730,339,907,194,831,296,914,888,190,693,235,588,183,409,720,53,946,694,952,610,811,776,321,818,170,490,575,553,851,834,260,164,499,772,156,168,763,876,592,334,328,135,377,895,714,578,614,39,187,109,612,780,513,34,195,905,169,787,322,317,991,838,664,545,581,910,591,366,884,841,853,936,338,134,901,538,165,827,890,565,719,385,348,846,873,213,458,262,103,742,796,973,369,221,828,91,255,474,150,40,821,226,10,947,368,554,456,253,319,332,986,807,557,47,816,282,49,316,660,407,862,793,434,297,518,878,729,247,637,20,176,126,402,80,295,418,943,789,577,193,824,270,149,825,234,741,375,649,141,63,547,748,355,482,959,389,252,602,573,770,609,21,125,494,823,392,415,191,533,291,131,66,801,980,311,885,401,711,555,420,975,699,246,512,639,27,264,842,935,523,618,7,922,326,374,650,452,645,812,752,633,654,138,877,716,677,605,336,69,950,174,949,923,962,684,924,502,202,89,979,860,209,631,644,310,667,427,185,302,211,337,903,475,486,118,203,865,28,97,24,540,965,754,207,342,850,655,519,810,268,320,15,266,709,755,307,298,582,344,249,172,104,117,497,96,941,628,68,933,880,583,259,72,483,829,79,424,362,121,215,417,548,167,802,216,967,584,630,767,725,381,447,803,151,871,116,666,688,22,735,133,462,544,403,67,621,32,976,740,875,404,717,218,65,795,435,585,586,175,498,737,314,843,98,137,313,318,840,23,948,440,800,676,680,761,60,455,441,686,779,696,697,232,721,886,893,294,670,444,1,692,501,360,301,90,258,615,701,466,324,724,861,16,155,412,433,11,331,325,848,414,115,208,428,900,3,820,894,289,561,892,559,423,705,178,911,832,124,33,74,525,985,704,859,380,340,854,926,728,706,673,212,849,391,569,152,623,777,146,695,683,12,869,37,870,879,731,663,367,775,552,459,206,526,517,744,984,35,590,608,912,397,84,396,845,300,546,263,790,147,350,658,254,485,528,87,970,201,398,51,273,756,154,668,732,487,52,596,196,58,25,240,925,349,982,303,529,822,233,399,352,222,390,92,242,179,71,753,508,814,446,847,826,46,265,160,105,148,383,188,95,964,315,330,229,522,477,783,773,351,613,464,26,556,323,449,536,996,271,111,542,481,244,30,889,543,902,993,819,388,746,163,56,363,558,652,225,113,120,661,88,806,405,505,671,757,55,220,690,394,762,354,659,883,908,8,768,794,792,700,537,638,921,607,279,387,335,472,81,251,130,641,817,6,904]","arrowleft","true","1","9","200","1000","[""0097_N1000_K0200_CLIQUE"",""0074_N1000_K0200_NOCLIQUE""]"
