"width","height","webaudio","browser","browser_version","mobile","os","fullscreen","vsync_rate","webcam","microphone","trial_type","trial_index","time_elapsed","internal_node_id","value","success","timeout","failed_images","failed_audio","failed_video","view_history","rt","stimulus","response","nodes_order","correct_response","correct","block_index","presentation_index","clique_size","graph_size","graphs_names"
"1920","911","true","chrome","132.0.0","false","Windows 10","true","60.11","true","true","browser-check","0","1003","0.0-0.0","","","","","","","","","","","","","","","","","",""
"","","","","","","","","","","","call-function","1","1061","0.0-1.0","","","","","","","","","","","","","","","","","",""
"","","","","","","","","","","","preload","2","1088","0.0-2.0","","true","false","[]","[]","[]","","","","","","","","","","","",""
"","","","","","","","","","","","pavlovia","3","1303","0.0-3.0","","","","","","","","","","","","","","","","","",""
"","","","","","","","","","","","instructions","4","1890","0.0-4.0","","","","","","","[{""page_index"":0,""viewing_time"":282},{""page_index"":1,""viewing_time"":304}]","586","","","","","","","","","",""
"","","","","","","","","","","","html-keyboard-response","5","3283","0.0-5.0-0.0","","","","","","","","1392","By accepting to participate in this study, you confirm:
                <p style='text-align:left'>
                    - That I have carefully read the explanations regarding this study and the entire experimental procedure;<br>
                    - That I have been informed about the aims and objectives of this research;<br>
                    - That I am aware of the inconveniences, if any, caused by the experiment;<br>
                    - That I have received satisfactory assurances regarding the confidentiality of the information obtained from the examination of my own person; <br>
                    - That I am aware that I can withdraw at any stage of the study.
                <p>
                <span style=""color: #808080"">
                    Press [Y] to <strong>accept</strong>.
                </span> <br>
                <span style=""color: #808080"">
                    Press [N] to <strong>refuse</strong>.
                </span>","y","","","","","","","",""
"","","","","","","","","","","","survey-html-form","6","7674","0.0-6.0","","","","","","","","4390","","{""gender"":""male"",""age"":""23""}","","","","","","","",""
"","","","","","","","","","","","preload","7","8081","0.0-7.0","","true","false","[]","[]","[]","","","","","","","","","","","",""
"","","","","","","","","","","","instructions","8","19137","0.0-8.0","","","","","","","[{""page_index"":0,""viewing_time"":1200},{""page_index"":1,""viewing_time"":144},{""page_index"":2,""viewing_time"":112},{""page_index"":3,""viewing_time"":128},{""page_index"":4,""viewing_time"":128},{""page_index"":5,""viewing_time"":112},{""page_index"":6,""viewing_time"":113},{""page_index"":7,""viewing_time"":112},{""page_index"":8,""viewing_time"":207},{""page_index"":9,""viewing_time"":145},{""page_index"":10,""viewing_time"":160},{""page_index"":11,""viewing_time"":144},{""page_index"":12,""viewing_time"":144},{""page_index"":13,""viewing_time"":128},{""page_index"":14,""viewing_time"":144},{""page_index"":15,""viewing_time"":128},{""page_index"":16,""viewing_time"":144},{""page_index"":17,""viewing_time"":128},{""page_index"":18,""viewing_time"":128},{""page_index"":19,""viewing_time"":143},{""page_index"":20,""viewing_time"":128},{""page_index"":21,""viewing_time"":128},{""page_index"":22,""viewing_time"":128},{""page_index"":23,""viewing_time"":145},{""page_index"":24,""viewing_time"":144},{""page_index"":25,""viewing_time"":143},{""page_index"":26,""viewing_time"":144},{""page_index"":27,""viewing_time"":129},{""page_index"":28,""viewing_time"":240},{""page_index"":29,""viewing_time"":160},{""page_index"":30,""viewing_time"":127},{""page_index"":31,""viewing_time"":160},{""page_index"":32,""viewing_time"":176},{""page_index"":33,""viewing_time"":144},{""page_index"":34,""viewing_time"":145},{""page_index"":35,""viewing_time"":383},{""page_index"":34,""viewing_time"":176},{""page_index"":33,""viewing_time"":304},{""page_index"":32,""viewing_time"":1120},{""page_index"":33,""viewing_time"":176},{""page_index"":34,""viewing_time"":129},{""page_index"":35,""viewing_time"":111},{""page_index"":36,""viewing_time"":160},{""page_index"":37,""viewing_time"":144},{""page_index"":38,""viewing_time"":160},{""page_index"":39,""viewing_time"":160},{""page_index"":40,""viewing_time"":145},{""page_index"":41,""viewing_time"":143},{""page_index"":42,""viewing_time"":193},{""page_index"":43,""viewing_time"":160},{""page_index"":44,""viewing_time"":160},{""page_index"":45,""viewing_time"":160},{""page_index"":46,""viewing_time"":288},{""page_index"":47,""viewing_time"":160},{""page_index"":48,""viewing_time"":176},{""page_index"":49,""viewing_time"":161},{""page_index"":50,""viewing_time"":144},{""page_index"":51,""viewing_time"":111}]","11055","","","","","","","","","",""
"","","","","","","","","","","","instructions","9","20289","0.0-9.0","","","","","","","[{""page_index"":0,""viewing_time"":1152}]","1152","","","","","","","","","",""
"","","","","","","","","","","","preload","10","20641","0.0-10.0","","true","false","[]","[]","[]","","","","","","","","","","","",""
"","","","","","","","","","","","image-keyboard-response","11","20770","0.0-11.0","","","","","","","","127","tutorial/p_reduce/task_familiarization_images/part 1/01_N160_K90_cliqueRight_question1.PNG"," ","","","","","","","",""
"","","","","","","","","","","","image-keyboard-response","12","21250","0.0-12.0","","","","","","","","479","tutorial/p_reduce/task_familiarization_images/part 1/02_N160_K90_cliqueRight_question2.PNG"," ","","","","","","","",""
"","","","","","","","","","","","image-keyboard-response","13","21501","0.0-13.0","","","","","","","","250","tutorial/p_reduce/task_familiarization_images/part 1/03_N160_K90_cliqueRight_question3.PNG","arrowleft","","","","","","","",""
"","","","","","","","","","","","image-keyboard-response","14","21617","0.0-14.0","","","","","","","","116","tutorial/p_reduce/task_familiarization_images/part 1/04_N160_K90_cliqueRight_solution.PNG"," ","","","","","","","",""
"","","","","","","","","","","","image-keyboard-response","15","21810","0.0-15.0","","","","","","","","192","tutorial/p_reduce/task_familiarization_images/part 1/05_N160_K65_cliqueRight_question1.PNG"," ","","","","","","","",""
"","","","","","","","","","","","image-keyboard-response","16","21986","0.0-16.0","","","","","","","","175","tutorial/p_reduce/task_familiarization_images/part 1/06_N160_K65_cliqueRight_question2.PNG"," ","","","","","","","",""
"","","","","","","","","","","","image-keyboard-response","17","22274","0.0-17.0","","","","","","","","287","tutorial/p_reduce/task_familiarization_images/part 1/07_N160_K65_cliqueRight_question3.PNG","arrowleft","","","","","","","",""
"","","","","","","","","","","","image-keyboard-response","18","22370","0.0-18.0","","","","","","","","95","tutorial/p_reduce/task_familiarization_images/part 1/08_N160_K65_cliqueRight_solution.PNG"," ","","","","","","","",""
"","","","","","","","","","","","image-keyboard-response","19","22642","0.0-19.0","","","","","","","","271","tutorial/p_reduce/task_familiarization_images/part 1/09_N160_K50_cliqueLeft_question1.PNG"," ","","","","","","","",""
"","","","","","","","","","","","image-keyboard-response","20","22833","0.0-20.0","","","","","","","","190","tutorial/p_reduce/task_familiarization_images/part 1/10_N160_K50_cliqueLeft_question2.PNG"," ","","","","","","","",""
"","","","","","","","","","","","image-keyboard-response","21","23090","0.0-21.0","","","","","","","","256","tutorial/p_reduce/task_familiarization_images/part 1/11_N160_K50_cliqueLeft_question3.PNG","arrowleft","","","","","","","",""
"","","","","","","","","","","","image-keyboard-response","22","23217","0.0-22.0","","","","","","","","127","tutorial/p_reduce/task_familiarization_images/part 1/12_N160_K50_cliqueLeft_solution.PNG"," ","","","","","","","",""
"","","","","","","","","","","","image-keyboard-response","23","23586","0.0-23.0","","","","","","","","368","tutorial/p_reduce/task_familiarization_images/part 1/13_N160_K80_cliqueLeft_question1.PNG"," ","","","","","","","",""
"","","","","","","","","","","","image-keyboard-response","24","23761","0.0-24.0","","","","","","","","174","tutorial/p_reduce/task_familiarization_images/part 1/14_N160_K80_cliqueLeft_question2.PNG"," ","","","","","","","",""
"","","","","","","","","","","","image-keyboard-response","25","24003","0.0-25.0","","","","","","","","242","tutorial/p_reduce/task_familiarization_images/part 1/15_N160_K80_cliqueLeft_question3.PNG","arrowleft","","","","","","","",""
"","","","","","","","","","","","image-keyboard-response","26","24130","0.0-26.0","","","","","","","","126","tutorial/p_reduce/task_familiarization_images/part 1/16_N160_K80_cliqueLeft_solution.PNG"," ","","","","","","","",""
"","","","","","","","","","","","image-keyboard-response","27","24354","0.0-27.0","","","","","","","","223","tutorial/p_reduce/task_familiarization_images/part 1/17_N160_K40_cliqueRight_question1.PNG"," ","","","","","","","",""
"","","","","","","","","","","","image-keyboard-response","28","24529","0.0-28.0","","","","","","","","175","tutorial/p_reduce/task_familiarization_images/part 1/18_N160_K40_cliqueRight_question2.PNG"," ","","","","","","","",""
"","","","","","","","","","","","image-keyboard-response","29","24833","0.0-29.0","","","","","","","","303","tutorial/p_reduce/task_familiarization_images/part 1/19_N160_K40_cliqueRight_question3.PNG","arrowleft","","","","","","","",""
"","","","","","","","","","","","image-keyboard-response","30","24929","0.0-30.0","","","","","","","","95","tutorial/p_reduce/task_familiarization_images/part 1/20_N160_K40_cliqueRight_solution.PNG"," ","","","","","","","",""
"","","","","","","","","","","","image-keyboard-response","31","25153","0.0-31.0","","","","","","","","224","tutorial/p_reduce/task_familiarization_images/part 1/21_N160_K70_cliqueLeft_question1.PNG"," ","","","","","","","",""
"","","","","","","","","","","","image-keyboard-response","32","25362","0.0-32.0","","","","","","","","207","tutorial/p_reduce/task_familiarization_images/part 1/22_N160_K70_cliqueLeft_question2.PNG"," ","","","","","","","",""
"","","","","","","","","","","","image-keyboard-response","33","25601","0.0-33.0","","","","","","","","239","tutorial/p_reduce/task_familiarization_images/part 1/23_N160_K70_cliqueLeft_question3.PNG","arrowleft","","","","","","","",""
"","","","","","","","","","","","image-keyboard-response","34","25761","0.0-34.0","","","","","","","","159","tutorial/p_reduce/task_familiarization_images/part 1/24_N160_K70_cliqueLeft_solution.PNG"," ","","","","","","","",""
"","","","","","","","","","","","preload","35","26052","0.0-35.0","","true","false","[]","[]","[]","","","","","","","","","","","",""
"","","","","","","","","","","","image-keyboard-response","36","26627","0.0-36.0","","","","","","","","573","tutorial/p_reduce/task_familiarization_images/part 2/01_N160_K80_cliqueLeft_withFeedback_1.PNG"," ","","","","","","","",""
"","","","","","","","","","","","image-keyboard-response","37","26818","0.0-37.0","","","","","","","","191","tutorial/p_reduce/task_familiarization_images/part 2/02_N160_K80_cliqueLeft_withFeedback_2.PNG"," ","","","","","","","",""
"","","","","","","","","","","","image-keyboard-response","38","27186","0.0-38.0","","","","","","","","367","tutorial/p_reduce/task_familiarization_images/part 2/03_N160_K80_cliqueLeft_withFeedback_3.PNG","arrowright","","","","","","","",""
"","","","","","","","","","","","image-keyboard-response","39","27346","0.0-39.0","","","","","","","","159","tutorial/p_reduce/task_familiarization_images/part 2/04_N160_K80_cliqueLeft_withFeedback_wrong.PNG"," ","","","","","","","",""
"","","","","","","","","","","","image-keyboard-response","40","27585","0.0-40.0","","","","","","","","238","tutorial/p_reduce/task_familiarization_images/part 2/05_N160_K55_cliqueRight_withFeedback_1.PNG"," ","","","","","","","",""
"","","","","","","","","","","","image-keyboard-response","41","27762","0.0-41.0","","","","","","","","176","tutorial/p_reduce/task_familiarization_images/part 2/06_N160_K55_cliqueRight_withFeedback_2.PNG"," ","","","","","","","",""
"","","","","","","","","","","","image-keyboard-response","42","27986","0.0-42.0","","","","","","","","224","tutorial/p_reduce/task_familiarization_images/part 2/07_N160_K55_cliqueRight_withFeedback_3.PNG","arrowleft","","","","","","","",""
"","","","","","","","","","","","image-keyboard-response","43","28210","0.0-43.0","","","","","","","","223","tutorial/p_reduce/task_familiarization_images/part 2/08_N160_K55_cliqueRight_withFeedback_wrong.PNG"," ","","","","","","","",""
"","","","","","","","","","","","image-keyboard-response","44","28467","0.0-44.0","","","","","","","","255","tutorial/p_reduce/task_familiarization_images/part 2/09_N160_K70_cliqueLeft_withFeedback_1.PNG"," ","","","","","","","",""
"","","","","","","","","","","","image-keyboard-response","45","28657","0.0-45.0","","","","","","","","190","tutorial/p_reduce/task_familiarization_images/part 2/10_N160_K70_cliqueLeft_withFeedback_2.PNG"," ","","","","","","","",""
"","","","","","","","","","","","image-keyboard-response","46","28786","0.0-46.0","","","","","","","","128","tutorial/p_reduce/task_familiarization_images/part 2/11_N160_K70_cliqueLeft_withFeedback_3.PNG","arrowleft","","","","","","","",""
"","","","","","","","","","","","image-keyboard-response","47","28930","0.0-47.0","","","","","","","","144","tutorial/p_reduce/task_familiarization_images/part 2/12_N160_K70_cliqueLeft_withFeedback_correct.PNG"," ","","","","","","","",""
"","","","","","","","","","","","preload","48","29127","0.0-48.0","","true","false","[]","[]","[]","","","","","","","","","","","",""
"","","","","","","","","","","","instructions","49","30514","0.0-49.0","","","","","","","[{""page_index"":0,""viewing_time"":1386}]","1386","","","","","","","","","",""
"","","","","","","","","","","","fullscreen","50","33584","0.0-51.0","","true","","","","","","","","","","","","","","","",""
"","","","","","","","","","","","canvas-keyboard-response","51","39331","0.0-52.0-0.0-0.0","","","","","","","","4748","","arrowright","[274,105,19,56,842,617,214,661,387,102,511,124,997,816,259,216,117,174,895,505,886,834,607,211,39,721,728,321,496,446,670,589,297,574,627,552,441,177,504,192,964,766,152,481,77,8,952,936,262,711,332,118,710,175,50,785,406,818,252,570,460,951,137,495,639,67,40,33,696,367,300,378,113,937,93,396,74,99,692,261,44,829,762,881,874,223,561,767,168,815,796,309,678,340,611,737,428,694,315,311,463,12,243,907,624,560,46,595,66,547,327,888,824,768,213,644,522,604,355,204,287,743,431,202,377,109,85,436,79,466,757,514,913,81,634,366,361,831,593,655,194,575,802,310,733,326,480,603,89,167,820,509,430,322,699,10,875,555,742,996,835,5,967,850,382,691,415,748,688,159,706,203,139,437,453,713,331,51,438,876,990,736,488,293,409,746,732,265,704,772,13,718,977,389,225,72,359,516,542,800,695,982,393,594,804,363,330,295,451,556,610,770,893,579,348,275,151,677,343,500,613,134,449,470,966,452,144,420,726,419,666,60,659,565,934,993,557,421,751,650,55,531,232,187,302,890,741,339,9,53,375,638,176,143,416,429,588,42,959,809,21,909,693,16,807,59,798,544,454,353,836,462,892,195,640,298,752,32,148,980,537,553,308,606,769,328,411,342,840,128,931,498,608,703,253,832,811,368,705,814,307,953,185,234,524,289,740,549,63,739,965,424,285,580,20,499,476,880,684,825,760,682,37,597,465,571,486,207,628,280,217,933,906,468,983,493,221,47,427,230,249,457,671,673,267,38,536,380,526,573,305,707,170,938,656,169,200,346,356,27,417,156,538,410,278,985,636,865,912,131,354,347,773,100,805,474,602,870,512,434,312,260,251,849,529,503,698,154,533,961,141,765,440,318,450,879,776,364,782,991,510,860,675,501,530,244,668,157,407,920,930,49,248,859,747,161,649,999,794,545,702,845,971,350,1,181,821,3,992,320,681,233,276,345,352,272,863,528,30,915,68,548,197,423,917,955,492,205,873,942,98,279,405,519,877,80,642,647,224,862,926,687,780,64,256,651,843,84,208,242,374,803,190,585,623,697,494,456,129,166,853,444,385,75,583,273,577,889,153,379,581,727,632,86,227,433,313,455,57,637,822,303,2,337,758,527,970,981,357,31,521,257,392,665,788,941,620,795,939,11,701,255,140,78,946,914,587,52,403,598,238,738,316,652,14,826,601,783,717,653,900,625,709,90,812,878,414,543,165,271,178,155,910,48,954,371,793,219,615,97,851,725,564,662,563,988,497,855,333,690,984,958,667,116,708,171,735,43,978,584,683,605,489,520,658,712,994,162,136,335,130,404,18,281,899,96,919,201,932,183,299,71,950,61,291,87,88,799,789,928,518,987,142,515,376,998,458,448,246,635,401,778,237,432,554,872,388,619,263,750,24,215,517,777,973,774,722,111,277,191,790,29,400,532,270,502,188,566,323,884,487,484,523,370,193,633,995,145,925,720,490,135,808,442,112,69,94,569,896,771,472,754,467,551,839,306,943,714,590,228,269,830,26,108,837,240,443,730,394,679,817,882,220,82,844,351,290,621,186,288,264,846,781,7,898,869,871,883,266,801,138,284,902,986,911,779,956,231,887,847,663,968,916,572,478,827,103,558,283,107,654,473,147,324,922,974,867,559,459,787,908,286,660,439,104,969,95,15,391,115,296,540,6,775,715,631,806,358,724,744,630,435,413,65,73,198,402,101,753,813,34,336,247,618,616,475,36,614,120,160,338,123,362,126,184,172,854,319,923,373,838,491,669,334,150,164,445,294,856,629,975,239,384,91,948,122,957,245,645,646,578,341,828,381,482,199,810,250,218,317,756,641,596,897,550,125,62,648,962,507,369,23,947,929,390,133,258,864,212,372,229,719,600,365,469,418,106,745,546,784,506,685,222,626,483,386,513,383,70,4,180,979,282,609,541,901,676,119,622,397,963,643,426,344,399,132,349,823,891,857,158,329,797,325,534,412,729,755,189,395,894,314,852,763,408,110,905,591,858,927,535,791,210,833,976,464,819,163,479,236,425,35,764,749,664,28,241,206,761,945,866,54,292,989,121,716,149,848,182,92,921,924,76,0,235,209,114,949,304,173,25,885,254,734,612,689,45,940,582,17,471,268,568,525,398,792,672,868,485,599,657,461,539,567,179,83,841,196,360,680,904,22,477,41,903,146,301,447,861,935,759,226,723,700,944,508,562,786,731,576,58,686,918,586,674,972,127,592,422,960]","arrowright","true","0","0","300","1000","[""0012_N1000_K0300_NOCLIQUE"",""0082_N1000_K0300_CLIQUE""]"
"","","","","","","","","","","","audio-keyboard-response","52","40637","0.0-52.0-0.0-1.0","","","","","","","","null","audio_feedback/right/coin01.mp3","null","","","","0","0","300","1000","[""0012_N1000_K0300_NOCLIQUE"",""0082_N1000_K0300_CLIQUE""]"
"","","","","","","","","","","","canvas-keyboard-response","53","42306","0.0-53.0-0.0-0.0","","","","","","","","584","","arrowright","[797,193,183,460,597,442,75,880,22,546,750,147,736,560,52,17,32,351,870,829,551,960,927,489,852,214,955,728,705,342,631,875,18,451,592,127,826,39,377,43,715,673,410,172,323,768,87,129,171,368,525,291,851,658,834,159,519,74,526,653,195,174,448,346,821,464,85,859,65,547,858,902,454,798,529,189,155,644,735,8,694,917,823,248,371,328,978,325,194,146,30,811,356,541,322,480,309,79,909,415,316,700,166,646,824,766,367,530,552,627,607,136,333,943,713,363,327,13,297,669,665,438,96,502,860,51,564,807,430,208,890,237,167,558,391,50,19,23,931,373,131,34,45,746,924,940,689,274,937,594,842,769,303,601,589,463,14,217,606,44,876,459,138,157,569,292,107,392,509,796,609,409,184,21,692,731,115,428,176,972,598,739,180,883,436,861,935,929,162,651,628,312,688,381,444,9,957,329,636,934,951,215,263,659,696,178,676,60,153,120,722,457,27,825,125,483,77,604,160,776,878,202,108,11,605,949,847,886,3,350,170,744,124,26,999,246,258,970,874,877,954,380,794,976,566,773,642,745,815,119,97,576,704,280,395,135,556,285,913,270,411,686,260,496,145,105,903,810,510,968,518,240,16,319,106,801,53,375,777,499,641,181,522,752,508,286,894,545,969,512,933,904,559,267,255,243,158,73,991,469,439,533,400,487,86,31,481,152,1,36,866,242,741,458,770,251,730,532,497,6,565,205,144,740,570,804,177,977,117,488,542,974,29,690,706,228,833,71,831,310,668,716,226,474,962,374,997,754,253,507,908,919,703,482,332,408,352,707,897,625,670,727,399,154,406,709,197,818,839,718,479,975,99,772,996,104,468,47,827,990,403,615,781,290,216,710,212,35,269,485,959,249,994,621,405,733,340,307,840,582,198,585,973,383,28,872,349,272,699,132,753,869,813,282,188,364,281,664,932,67,305,666,791,484,268,498,967,335,966,550,588,33,809,427,293,264,113,501,681,424,503,211,873,151,465,407,149,793,423,338,538,906,795,4,687,915,191,134,61,40,639,296,94,521,748,841,233,445,953,345,822,247,856,231,0,331,418,808,396,672,265,895,726,623,678,849,577,308,539,956,88,867,490,175,2,887,755,275,200,714,743,475,724,775,361,37,466,583,360,187,654,277,46,549,369,358,553,749,757,578,767,893,790,199,843,156,555,441,417,771,643,684,143,920,865,414,986,805,830,82,857,182,814,536,48,742,359,965,871,514,440,64,68,581,760,398,276,723,432,49,910,137,921,283,348,81,557,640,314,879,140,12,306,747,456,905,756,25,238,950,366,357,881,467,236,219,429,759,782,662,848,435,691,493,24,114,245,378,235,63,179,84,250,534,850,914,603,462,337,645,379,279,984,983,370,76,515,389,656,83,387,388,116,844,185,121,561,101,737,222,779,695,783,326,161,164,449,257,838,324,520,620,633,888,213,241,437,225,981,385,224,294,721,78,587,572,401,961,273,622,679,685,109,386,971,165,964,511,626,110,477,393,599,431,836,452,616,133,223,446,634,892,580,261,979,926,355,150,708,98,517,344,803,473,802,173,100,505,925,210,206,528,667,402,190,635,244,660,624,719,300,812,447,916,302,554,567,126,579,649,123,128,985,422,806,353,544,657,837,524,256,227,141,988,230,661,382,899,288,680,992,232,311,41,800,295,611,787,596,220,774,789,912,413,584,898,362,472,80,763,889,663,42,426,717,853,942,196,698,711,5,612,784,318,169,284,846,602,792,590,982,845,91,420,513,339,575,341,93,334,650,835,593,148,111,799,701,254,725,617,207,758,738,102,425,330,762,573,930,907,209,204,610,57,828,62,817,785,336,168,416,523,980,365,591,682,958,92,317,70,372,494,574,720,614,419,901,885,118,693,938,278,506,936,203,697,201,455,443,229,486,729,252,778,531,941,66,989,470,461,59,947,864,186,394,939,923,287,674,946,780,453,922,89,259,537,471,239,321,675,218,516,952,732,618,58,271,862,491,751,683,571,527,891,911,764,993,948,655,568,884,944,648,819,995,15,434,712,647,928,421,289,535,608,492,56,234,543,677,586,820,855,900,495,863,347,562,600,72,548,868,504,139,103,262,638,298,54,882,613,112,702,619,998,963,433,301,354,90,221,343,478,412,816,786,540,7,788,69,384,761,563,376,595,95,450,652,945,632,313,304,629,854,130,397,404,671,765,320,38,55,142,266,896,476,315,390,20,637,163,987,500,192,918,299,630,734,832,122,10]","arrowright","true","0","1","300","1000","[""0052_N1000_K0300_NOCLIQUE"",""0078_N1000_K0300_CLIQUE""]"
"","","","","","","","","","","","audio-keyboard-response","54","43297","0.0-53.0-0.0-1.0","","","","","","","","null","audio_feedback/right/coin01.mp3","null","","","","0","1","300","1000","[""0052_N1000_K0300_NOCLIQUE"",""0078_N1000_K0300_CLIQUE""]"
"","","","","","","","","","","","canvas-keyboard-response","55","45153","0.0-54.0-0.0-0.0","","","","","","","","611","","arrowright","[176,419,62,805,930,74,589,691,404,148,677,317,689,302,154,925,491,520,963,684,710,489,410,658,856,567,246,298,172,443,400,345,169,705,248,186,952,999,340,25,553,791,961,894,47,884,676,566,363,648,311,323,161,407,901,935,694,113,88,558,159,316,509,641,663,383,652,184,123,574,970,543,583,16,178,835,921,776,415,865,825,623,693,438,954,836,71,267,542,590,812,976,346,911,424,759,723,915,874,441,294,437,804,207,781,425,360,539,44,983,100,898,32,937,673,59,986,308,981,987,560,65,806,387,880,973,651,575,942,270,550,612,474,890,256,3,815,997,984,446,28,736,879,307,801,873,533,79,774,914,103,587,234,817,621,68,912,579,428,528,686,665,862,358,549,859,645,206,813,732,709,613,883,466,582,374,430,726,194,251,725,701,175,866,333,189,854,173,51,87,766,703,258,932,377,127,578,758,1,657,320,536,326,829,596,134,782,23,222,636,69,182,164,58,350,126,22,985,389,314,356,843,52,628,494,382,933,372,162,231,20,31,482,17,977,140,66,704,4,818,569,185,328,903,586,771,571,12,275,540,37,24,668,547,484,671,394,957,327,678,852,85,887,362,119,274,319,330,810,490,481,266,943,117,837,524,50,464,120,369,210,131,840,617,785,403,523,951,601,842,488,495,2,230,229,521,498,730,201,91,939,794,968,502,737,576,287,846,682,770,291,217,940,309,680,228,798,449,534,384,953,439,814,432,572,170,36,599,53,640,57,7,45,751,909,168,473,152,624,279,329,283,927,146,831,29,107,538,557,604,848,931,875,941,717,585,149,886,819,511,67,242,122,476,828,928,646,368,920,860,808,944,992,348,904,754,335,570,581,463,733,312,990,434,445,789,515,858,755,90,864,282,851,318,381,41,193,820,324,243,254,611,245,84,731,422,830,980,849,411,592,365,26,179,513,597,608,95,106,871,662,892,949,722,743,73,166,747,86,240,499,305,786,440,749,144,910,142,11,301,584,130,609,5,809,427,380,72,396,507,252,896,744,480,349,297,714,688,416,470,993,492,530,304,602,150,501,224,660,81,203,647,249,780,435,850,420,503,460,342,338,517,706,561,450,938,877,929,811,554,795,888,238,388,692,950,393,707,135,337,745,322,405,650,418,241,211,878,218,136,577,959,826,76,760,834,452,614,675,13,696,325,573,465,56,762,750,718,78,964,376,191,674,778,429,821,618,615,412,487,721,639,392,269,61,630,708,14,996,354,163,919,516,143,355,290,740,563,975,738,998,156,863,48,979,378,847,556,603,478,700,82,247,458,55,753,698,956,748,991,8,208,101,157,42,232,664,75,469,839,697,177,631,876,220,600,739,33,622,746,868,278,988,97,255,906,962,764,310,212,421,594,426,401,945,116,974,729,568,219,889,531,225,885,262,741,204,638,844,605,772,626,334,49,462,336,43,635,250,454,147,506,364,321,788,595,385,545,687,96,215,125,838,398,139,299,655,965,535,453,787,447,716,332,872,205,923,27,151,552,111,823,399,370,347,654,666,286,409,331,93,128,129,724,303,946,265,467,293,775,800,46,397,202,196,187,155,995,783,625,273,118,195,629,653,522,761,263,114,784,38,296,900,408,634,537,711,138,619,548,379,735,845,112,832,497,216,767,661,188,64,461,483,292,496,796,6,472,514,504,734,359,477,214,712,108,109,905,295,486,475,375,237,773,742,227,344,607,593,620,221,40,471,284,918,277,167,160,10,627,268,181,644,777,994,763,727,244,632,280,799,485,190,70,0,702,893,180,917,899,564,769,580,926,802,479,417,271,824,200,667,841,102,683,99,803,18,198,526,371,551,339,121,390,468,300,233,197,870,529,110,982,261,259,643,598,616,30,433,174,989,276,882,183,685,971,239,565,493,357,457,610,562,606,34,132,444,934,544,60,779,649,924,367,77,719,967,908,315,972,637,153,236,642,525,855,797,679,39,936,519,881,853,958,63,960,591,907,916,510,500,413,94,518,137,288,895,728,133,822,165,306,672,213,436,351,891,505,827,272,15,352,588,158,695,361,105,532,192,341,756,633,768,792,555,89,715,431,451,861,456,757,527,669,752,966,713,80,83,264,281,765,659,546,199,235,948,124,145,816,414,541,402,285,699,289,343,656,969,54,104,226,141,115,857,459,257,253,98,807,955,373,681,790,869,35,867,423,395,19,455,92,406,353,833,508,223,690,913,171,366,448,21,922,209,793,313,978,391,9,559,670,386,720,442,902,947,512,897,260]","arrowright","true","0","2","267","1000","[""0090_N1000_K0267_NOCLIQUE"",""0046_N1000_K0267_CLIQUE""]"
"","","","","","","","","","","","audio-keyboard-response","56","46137","0.0-54.0-0.0-1.0","","","","","","","","null","audio_feedback/right/coin01.mp3","null","","","","0","2","267","1000","[""0090_N1000_K0267_NOCLIQUE"",""0046_N1000_K0267_CLIQUE""]"
"","","","","","","","","","","","canvas-keyboard-response","57","47922","0.0-55.0-0.0-0.0","","","","","","","","596","","arrowright","[741,112,316,22,354,115,984,407,327,544,656,835,119,715,545,293,720,550,235,125,289,828,938,836,871,856,567,270,24,243,761,6,50,497,318,968,580,995,971,903,712,713,670,598,529,579,809,35,198,148,541,627,557,388,445,251,554,254,907,516,769,195,204,234,724,628,214,347,815,788,617,85,368,897,896,663,800,572,634,200,170,69,672,431,508,364,593,710,499,371,604,360,96,635,40,650,236,965,3,396,991,558,399,838,127,262,711,411,906,612,451,611,310,226,877,197,997,350,992,957,868,92,256,842,929,945,671,577,164,512,156,463,181,52,485,576,58,173,752,106,32,765,644,231,799,757,102,257,883,427,960,609,16,978,821,767,845,748,45,803,867,437,743,233,922,807,818,472,307,331,882,646,237,762,763,542,104,273,128,602,29,44,320,321,950,988,15,88,615,776,753,124,669,325,569,989,391,801,110,993,265,863,260,846,843,674,553,959,398,636,162,914,973,136,889,478,34,754,797,810,95,406,559,276,816,182,103,402,246,976,899,255,942,64,449,232,395,244,322,108,565,374,534,408,424,76,249,496,848,172,739,27,315,435,19,186,405,782,90,440,470,161,796,63,939,858,802,827,122,685,221,812,434,31,904,732,61,338,511,217,0,560,865,72,564,591,447,851,721,330,266,987,764,192,393,958,737,902,101,281,854,490,947,624,891,190,517,792,118,520,940,677,735,640,176,682,381,372,302,469,918,689,759,633,620,998,964,389,357,953,954,240,418,785,791,153,365,798,227,637,466,202,275,630,514,923,369,184,814,982,455,300,592,578,895,614,536,563,105,855,723,820,963,150,133,582,912,744,693,727,55,857,203,986,183,13,990,527,250,925,137,824,618,518,662,380,934,951,890,10,245,299,169,288,20,528,581,653,73,489,279,587,936,83,613,126,781,36,353,401,913,533,458,676,745,223,975,384,339,549,503,476,93,319,422,132,261,483,305,898,143,412,113,830,131,47,853,920,771,530,500,654,621,228,464,722,303,474,225,38,390,109,734,283,230,332,375,306,840,355,28,884,887,786,972,794,924,454,377,30,14,158,134,861,187,222,595,410,346,212,84,660,655,428,87,268,247,847,194,62,123,107,79,344,421,341,415,600,139,74,486,777,429,562,850,400,111,59,263,145,77,168,67,147,149,619,174,180,900,480,313,610,647,919,631,522,423,120,979,376,492,430,901,2,806,839,795,25,444,719,825,450,666,370,277,349,498,129,487,568,985,98,927,7,116,442,294,506,944,787,328,426,588,337,999,491,41,205,658,616,730,917,768,387,832,725,280,23,590,894,678,209,274,532,603,154,130,493,573,121,208,589,507,638,641,160,643,37,605,215,793,505,778,575,213,42,165,481,359,515,460,117,278,555,659,952,39,888,199,75,348,652,433,171,932,686,155,509,343,379,736,409,334,252,510,789,135,667,566,783,324,547,834,687,311,585,623,597,53,706,33,89,1,432,690,742,473,65,915,361,967,269,859,242,648,908,48,926,323,962,157,758,880,642,750,949,704,661,416,501,521,193,543,872,703,356,220,813,51,342,326,539,969,189,138,317,608,382,304,453,717,876,494,684,866,756,584,378,956,822,970,66,583,71,12,774,336,443,726,707,645,80,285,314,484,571,366,524,351,819,688,931,191,457,298,264,695,961,755,179,886,751,664,875,144,657,295,94,870,681,700,909,43,570,556,414,974,312,607,438,345,694,159,99,97,740,639,708,301,841,916,210,823,760,81,383,207,502,218,253,385,188,651,185,531,68,241,772,57,928,282,673,977,5,211,696,340,955,394,860,4,937,837,692,731,308,9,596,701,373,11,996,905,852,773,849,885,878,625,420,632,439,746,606,413,805,177,833,844,459,921,284,140,477,749,142,831,8,465,452,980,698,910,981,702,26,864,697,808,441,561,166,287,488,329,784,729,151,599,879,18,114,471,911,436,425,869,718,333,538,141,259,152,519,779,495,201,358,966,601,238,403,419,54,728,680,196,417,175,513,56,941,248,178,352,626,775,526,86,930,397,862,386,49,219,546,297,691,309,362,363,504,826,100,286,404,224,291,535,525,622,146,446,552,271,540,943,216,699,948,335,747,206,548,649,292,709,790,479,705,892,367,679,665,537,167,780,17,817,629,258,448,983,468,296,874,523,78,873,946,467,21,70,675,239,475,82,804,586,893,392,60,829,461,482,738,163,91,766,290,716,770,267,881,668,462,714,935,811,594,933,272,994,683,46,456,229,551,574,733]","arrowright","true","0","3","267","1000","[""0017_N1000_K0267_NOCLIQUE"",""0062_N1000_K0267_CLIQUE""]"
"","","","","","","","","","","","audio-keyboard-response","58","48977","0.0-55.0-0.0-1.0","","","","","","","","null","audio_feedback/right/coin01.mp3","null","","","","0","3","267","1000","[""0017_N1000_K0267_NOCLIQUE"",""0062_N1000_K0267_CLIQUE""]"
"","","","","","","","","","","","canvas-keyboard-response","59","50769","0.0-56.0-0.0-0.0","","","","","","","","625","","arrowright","[541,265,85,512,565,513,819,190,630,661,16,820,232,286,775,566,393,572,641,485,703,940,365,344,959,651,698,253,992,14,15,635,798,109,852,401,465,449,997,859,674,810,845,963,453,540,64,61,364,50,838,741,192,472,185,889,740,574,521,720,896,223,231,678,186,817,890,92,967,175,914,28,132,191,558,202,88,575,422,806,957,736,744,404,598,735,377,335,417,809,966,380,996,142,24,415,237,391,477,30,652,59,595,413,524,933,378,585,168,357,833,493,955,522,490,975,897,301,21,804,124,276,851,321,167,976,259,189,305,427,912,977,182,980,252,710,618,832,617,894,644,724,10,758,808,145,970,654,458,100,446,311,734,893,634,505,919,938,822,627,408,49,784,646,463,721,436,87,531,205,780,455,564,126,915,38,475,177,411,137,39,241,484,18,916,451,949,762,274,562,138,81,847,895,514,298,434,345,738,680,383,273,97,284,677,77,72,56,731,603,384,906,483,98,356,974,592,982,303,956,647,610,461,601,448,442,581,760,794,328,683,580,555,55,950,266,43,979,281,751,793,887,911,103,538,290,300,828,60,953,879,803,759,621,868,554,275,226,313,864,239,606,785,336,361,196,467,713,877,948,159,74,725,327,823,319,532,856,348,170,799,376,719,650,509,978,761,983,773,264,293,255,807,406,104,199,385,144,95,662,12,746,400,622,206,632,395,834,267,536,386,160,456,553,146,278,924,476,801,19,866,208,716,567,370,818,688,545,123,533,117,898,152,280,4,366,714,48,337,148,318,353,501,766,510,8,995,717,346,902,638,655,407,325,29,445,287,127,863,840,197,261,844,971,69,130,534,681,429,772,165,520,254,452,666,360,213,511,883,151,839,499,83,211,44,880,105,203,667,405,133,41,236,547,878,849,35,649,128,653,45,473,58,296,626,412,767,333,285,928,478,589,850,381,131,423,2,154,707,786,546,943,673,70,853,910,570,939,596,701,219,527,876,291,937,529,539,706,257,702,936,829,711,708,561,733,972,425,504,390,593,932,846,670,776,664,363,672,517,489,764,800,559,323,619,368,20,857,830,843,587,339,543,230,608,500,582,954,945,686,754,528,179,82,235,569,633,781,359,108,947,433,403,294,421,697,769,609,262,169,288,599,685,620,141,952,11,207,637,591,763,176,874,778,343,238,583,571,220,334,625,480,913,188,994,63,89,94,537,612,797,502,118,352,676,660,870,399,770,487,372,551,692,101,156,568,125,173,149,962,113,862,899,222,426,157,460,951,752,542,920,831,791,147,643,181,869,789,0,36,696,420,871,379,437,47,306,430,682,183,918,535,614,96,358,150,699,742,153,32,227,549,723,86,369,812,503,198,969,782,552,71,515,246,903,317,495,860,99,115,777,187,234,792,755,881,709,304,753,926,642,506,548,78,909,26,787,743,277,679,9,444,494,861,648,279,748,935,1,233,195,885,557,615,394,432,739,900,218,158,245,611,270,563,668,354,331,5,439,519,491,732,824,658,675,135,469,440,308,771,802,556,984,250,747,392,944,438,251,873,37,507,693,79,765,917,694,486,991,155,362,62,194,212,457,656,326,497,901,282,640,349,387,443,665,410,942,27,907,605,999,283,6,68,482,579,13,172,934,161,985,691,375,872,573,687,590,75,470,636,174,91,882,588,987,289,248,584,65,795,122,93,814,988,930,466,46,416,371,663,297,271,783,351,964,244,22,750,989,492,215,695,120,577,90,163,712,23,639,260,162,865,904,690,998,200,508,816,544,249,34,396,315,53,981,389,496,116,302,813,965,481,310,613,140,768,525,659,727,757,886,993,447,645,17,31,474,221,322,594,578,815,602,488,398,295,258,523,921,756,112,67,973,854,657,119,468,341,268,33,57,367,121,550,968,464,107,923,586,623,961,388,530,836,718,166,84,307,479,136,42,805,616,958,498,263,373,607,960,111,700,867,229,628,749,858,796,52,841,139,209,342,106,312,54,730,715,600,110,788,66,340,576,324,848,629,382,891,414,419,80,201,256,941,402,441,946,837,309,925,927,424,247,892,704,908,25,240,518,228,428,835,217,216,243,471,316,180,705,418,884,888,73,990,671,171,299,3,134,332,450,330,459,129,164,842,931,329,790,689,193,624,40,827,779,462,604,726,855,826,224,272,560,350,292,143,435,204,409,516,314,184,51,875,225,178,214,728,374,986,669,210,929,397,526,811,347,905,242,729,684,922,722,338,76,102,7,597,431,454,269,320,737,114,774,821,825,631,355,745]","arrowright","true","0","4","233","1000","[""0040_N1000_K0233_NOCLIQUE"",""0034_N1000_K0233_CLIQUE""]"
"","","","","","","","","","","","audio-keyboard-response","60","51758","0.0-56.0-0.0-1.0","","","","","","","","null","audio_feedback/right/coin01.mp3","null","","","","0","4","233","1000","[""0040_N1000_K0233_NOCLIQUE"",""0034_N1000_K0233_CLIQUE""]"
"","","","","","","","","","","","canvas-keyboard-response","61","53554","0.0-57.0-0.0-0.0","","","","","","","","638","","arrowright","[749,873,461,92,890,242,936,83,791,504,889,90,857,324,987,169,487,641,694,314,462,550,781,514,320,488,827,180,721,772,344,424,479,186,272,553,273,453,154,252,583,799,326,782,473,686,997,950,293,974,275,280,785,60,107,536,754,898,647,54,896,446,959,166,581,580,607,710,872,249,455,285,665,989,423,714,18,245,208,864,42,127,312,927,147,793,159,893,88,831,360,91,111,43,982,370,664,1,816,112,206,803,582,259,528,728,94,12,67,792,953,826,869,261,672,366,400,460,682,231,89,547,454,386,961,829,988,750,942,944,257,99,958,329,770,972,268,975,578,50,281,457,167,886,903,168,561,283,188,612,718,650,86,52,338,616,656,327,223,572,401,27,251,511,315,420,717,757,340,484,659,881,0,406,833,558,920,445,687,735,836,179,13,900,980,335,943,388,34,870,191,789,193,983,888,677,156,207,922,766,821,78,197,93,733,796,538,458,615,452,337,822,76,496,71,693,184,264,843,382,362,842,137,226,531,189,704,330,690,858,570,350,644,739,332,813,527,276,57,860,930,108,524,622,25,737,287,36,19,838,579,909,438,598,139,418,61,302,967,15,7,646,918,841,834,620,117,425,278,609,241,65,917,152,466,931,163,343,661,993,666,969,310,548,835,133,46,906,470,271,851,902,3,852,328,354,391,9,802,443,706,752,355,192,985,361,874,502,134,456,4,758,883,744,68,109,459,586,255,767,549,604,439,692,878,771,683,246,589,79,544,250,449,658,755,59,26,711,229,619,247,963,743,823,801,503,689,334,512,702,162,173,663,128,591,135,632,928,158,850,464,996,590,291,299,24,182,919,157,934,256,698,884,501,478,701,323,21,990,797,410,364,584,709,557,262,174,535,759,921,136,489,777,235,58,196,187,676,588,307,216,64,17,481,431,62,448,712,311,227,880,200,680,599,190,866,540,863,911,787,568,236,469,353,940,372,730,221,212,110,45,976,651,374,741,999,541,937,867,351,5,201,679,892,654,738,309,75,183,725,910,95,828,551,258,929,118,684,47,640,627,20,491,573,120,526,678,610,480,516,812,214,601,80,506,602,396,703,670,673,41,723,613,346,426,282,376,395,507,624,358,322,56,130,956,818,800,383,849,378,232,304,539,417,2,552,697,142,385,298,316,292,389,760,263,645,402,534,295,696,566,217,70,964,471,6,814,746,675,720,160,126,485,393,427,199,761,798,363,970,854,476,638,623,885,899,441,577,542,784,371,859,968,29,237,521,995,574,905,565,614,442,318,409,146,435,434,375,215,519,810,379,856,265,933,131,523,44,763,611,119,625,685,28,824,336,657,319,115,904,546,844,294,239,960,839,339,992,10,141,848,941,778,408,845,939,105,144,978,908,563,204,688,840,102,347,32,699,513,149,380,477,440,667,916,633,774,493,808,674,447,820,38,901,225,962,765,606,138,773,662,321,240,560,947,178,875,817,894,414,373,695,148,16,648,433,243,81,895,876,621,82,151,492,286,618,897,209,84,669,39,636,923,790,830,495,837,716,428,185,69,529,384,575,297,106,783,882,210,952,924,500,123,508,729,811,626,562,518,520,556,515,253,806,140,177,525,505,430,23,634,510,517,935,345,537,377,731,359,155,145,172,35,747,63,164,279,732,635,887,176,691,671,87,349,788,855,8,97,977,194,413,605,631,125,465,912,965,954,700,411,73,33,463,907,708,780,497,331,412,269,945,795,300,853,254,277,769,317,31,436,596,877,403,37,101,734,390,805,195,998,637,53,143,668,543,397,40,238,762,865,122,303,705,181,587,600,205,768,753,48,499,267,381,153,289,740,369,861,392,973,825,30,722,862,161,230,809,871,233,266,228,719,966,628,533,244,532,419,971,655,915,891,368,219,415,77,66,260,103,545,593,946,868,571,165,925,653,333,248,308,325,986,313,981,224,639,365,129,357,727,348,807,288,234,955,270,608,121,649,398,555,96,642,98,421,198,218,932,211,367,341,736,451,707,11,984,713,652,416,72,74,490,756,597,222,114,751,938,468,779,742,509,202,494,284,51,472,847,352,444,660,948,483,815,437,595,951,387,22,949,559,804,305,585,116,486,629,564,85,594,957,726,132,776,290,522,49,203,175,926,569,100,342,55,124,576,979,846,220,724,715,394,301,306,592,617,14,171,498,113,832,405,404,274,432,786,150,554,474,475,399,356,914,530,467,879,567,681,482,994,913,745,775,748,630,764,429,991,213,819,794,603,296,422,104,643,407,450,170]","arrowright","true","0","5","233","1000","[""0080_N1000_K0233_NOCLIQUE"",""0027_N1000_K0233_CLIQUE""]"
"","","","","","","","","","","","audio-keyboard-response","62","54537","0.0-57.0-0.0-1.0","","","","","","","","null","audio_feedback/right/coin01.mp3","null","","","","0","5","233","1000","[""0080_N1000_K0233_NOCLIQUE"",""0027_N1000_K0233_CLIQUE""]"
"","","","","","","","","","","","canvas-keyboard-response","63","56146","0.0-58.0-0.0-0.0","","","","","","","","640","","arrowleft","[297,663,572,69,42,610,567,528,634,417,720,235,123,418,623,907,600,926,819,365,26,531,904,913,858,102,972,509,214,677,970,236,799,727,300,699,657,173,978,609,712,906,32,311,933,866,893,191,644,318,993,875,542,74,15,259,876,242,51,713,289,293,346,779,502,463,709,10,35,780,909,636,641,639,249,317,401,733,566,162,412,157,360,736,281,624,409,673,155,33,660,697,769,179,896,929,984,76,688,561,454,161,547,838,106,915,132,138,228,762,905,278,192,107,835,75,965,190,252,901,958,180,372,808,197,741,829,299,908,95,511,594,794,395,462,932,788,158,64,891,821,198,446,787,888,61,739,290,122,221,38,256,674,589,209,400,145,91,72,9,243,419,337,118,14,491,316,778,321,686,730,798,349,775,989,582,403,152,792,701,564,6,154,1,738,345,285,175,773,521,101,389,652,767,143,692,629,704,474,452,326,533,552,385,954,719,262,917,952,563,690,771,783,233,557,711,751,268,867,397,628,115,54,499,310,558,24,25,105,423,358,137,430,678,656,239,128,177,512,534,111,951,144,41,784,554,999,163,441,683,869,287,544,500,81,0,216,424,171,34,124,265,846,449,237,497,791,97,399,809,472,377,746,396,590,859,361,284,103,386,238,612,647,505,295,178,17,405,823,366,882,288,339,455,998,408,514,196,93,990,211,428,325,664,267,648,468,630,270,119,426,86,516,626,11,301,384,140,434,176,518,363,635,607,322,786,414,65,314,883,57,551,457,410,880,911,759,760,957,956,943,684,620,822,479,587,374,113,924,842,387,114,619,313,435,795,974,916,87,670,519,445,342,219,768,296,962,498,631,398,218,830,127,510,136,241,920,584,700,483,840,708,747,226,166,744,847,937,357,367,380,429,651,995,793,82,983,777,476,488,685,153,833,862,718,356,130,146,666,187,44,515,294,581,848,324,655,185,354,459,172,174,225,524,222,676,523,344,205,959,379,58,671,604,227,494,934,465,885,931,471,723,461,371,988,475,598,568,527,643,458,96,672,716,212,135,520,60,912,650,841,556,147,588,369,315,306,376,714,548,585,539,774,244,754,948,550,269,679,286,941,503,53,184,669,802,872,129,748,170,381,955,825,756,362,78,390,646,781,335,592,579,260,378,347,489,614,66,466,750,351,92,420,529,482,334,637,743,804,705,443,382,68,613,402,444,230,272,189,850,573,574,183,617,261,84,492,469,593,813,849,439,486,194,622,602,112,348,328,662,496,728,805,658,852,470,625,246,274,448,695,340,273,302,722,98,935,333,940,715,831,133,606,632,681,839,330,292,824,717,707,571,857,642,308,207,694,31,80,939,104,755,618,710,578,120,37,438,422,946,732,975,19,341,258,886,977,546,159,538,506,254,501,182,565,960,545,680,575,485,865,796,543,481,343,200,142,921,900,364,70,749,480,169,649,392,427,484,817,353,659,696,383,668,478,464,493,451,28,526,186,925,63,336,456,77,431,421,910,411,953,90,537,851,605,890,131,156,689,583,633,312,151,30,167,603,16,982,721,416,986,994,150,45,897,836,702,991,873,36,698,125,914,854,62,827,231,477,731,855,329,56,40,979,193,919,922,549,878,936,85,595,826,615,881,407,693,2,319,323,818,413,181,726,654,884,553,577,828,18,801,141,927,4,834,368,266,215,3,895,782,570,964,530,404,248,277,247,188,109,536,460,331,638,224,432,580,599,279,535,504,737,611,923,495,94,871,263,355,976,148,942,208,168,507,52,375,473,985,415,898,757,861,889,586,966,803,5,43,71,88,210,513,437,253,899,944,370,220,987,447,918,832,50,816,621,55,961,199,164,436,969,121,703,46,807,394,359,309,234,766,47,997,930,950,667,949,213,206,640,203,752,79,853,442,110,724,947,785,245,100,996,844,406,298,393,742,863,763,665,49,981,555,250,735,255,569,973,257,134,682,597,845,522,810,149,675,280,453,307,928,765,327,373,758,971,764,790,450,814,894,843,303,789,753,540,661,8,305,967,304,508,616,980,864,440,283,706,108,39,73,525,165,761,204,59,812,541,271,195,691,887,99,388,734,13,856,772,963,467,251,291,902,870,23,217,20,67,338,874,160,892,201,800,232,517,229,332,240,820,860,320,627,938,490,837,591,202,27,391,806,879,276,425,352,275,745,560,350,532,776,725,653,601,729,992,223,7,117,22,21,968,797,29,596,559,12,687,562,945,608,877,433,815,126,868,83,811,116,903,48,487,770,740,139,282,89,264,576,645]","arrowleft","true","0","6","217","1000","[""0035_N1000_K0217_CLIQUE"",""0083_N1000_K0217_NOCLIQUE""]"
"","","","","","","","","","","","audio-keyboard-response","64","57138","0.0-58.0-0.0-1.0","","","","","","","","null","audio_feedback/right/coin01.mp3","null","","","","0","6","217","1000","[""0035_N1000_K0217_CLIQUE"",""0083_N1000_K0217_NOCLIQUE""]"
"","","","","","","","","","","","canvas-keyboard-response","65","58994","0.0-59.0-0.0-0.0","","","","","","","","682","","arrowright","[967,94,879,19,474,333,10,756,960,117,934,584,80,869,586,353,152,880,557,944,185,558,122,57,544,752,829,37,640,953,215,924,359,46,856,550,250,958,410,822,298,690,409,741,393,190,745,830,825,497,492,974,594,373,222,297,561,159,834,194,576,234,693,44,560,789,766,582,304,962,424,698,99,729,95,72,931,43,580,241,41,727,591,14,940,362,22,854,537,952,502,764,658,473,642,269,490,29,508,90,280,208,31,197,966,676,605,688,34,521,621,111,837,277,712,515,334,397,886,532,525,154,827,887,647,592,564,156,932,30,524,847,383,69,182,607,660,425,590,801,242,528,432,955,348,356,723,654,464,780,529,394,614,342,233,777,308,536,420,662,387,562,248,328,851,254,157,866,140,835,307,675,178,482,961,63,285,209,191,608,458,972,740,192,988,20,153,125,58,702,448,79,158,938,230,840,365,833,617,296,788,105,167,804,997,805,815,859,730,169,427,795,295,101,999,15,857,56,232,951,396,578,255,735,832,203,211,252,551,110,646,405,187,947,314,527,707,495,434,511,535,726,994,417,181,430,985,205,678,238,853,306,650,910,652,171,452,922,802,624,717,260,876,472,272,709,679,875,877,377,386,422,533,266,672,636,193,754,651,40,398,768,68,510,415,318,358,311,900,282,771,625,88,616,846,55,70,243,930,267,347,864,916,901,155,817,170,27,844,265,130,341,792,657,674,104,720,268,945,433,921,539,12,414,186,239,633,98,927,384,574,799,784,769,632,11,467,188,664,253,317,982,976,703,121,933,144,918,478,326,732,273,995,773,287,498,904,483,376,429,357,202,17,216,451,48,132,644,42,545,965,602,370,404,905,819,504,258,86,484,380,327,247,849,218,66,968,779,831,783,102,775,516,455,127,96,671,939,25,53,119,786,431,184,301,135,385,168,219,77,450,501,630,2,751,115,670,699,637,200,246,811,447,971,388,718,438,950,724,235,629,161,315,655,133,902,381,114,575,289,293,641,978,402,139,585,666,683,274,496,992,908,271,221,256,604,395,555,166,244,136,147,549,261,991,881,722,573,444,349,692,142,82,418,134,704,460,794,189,138,891,419,91,160,375,35,755,344,648,3,975,631,279,554,781,609,883,126,757,436,914,339,512,546,890,67,319,872,329,123,762,803,437,500,906,150,917,838,685,809,340,714,909,288,612,33,374,423,742,162,981,787,739,109,228,816,538,695,443,411,596,454,59,649,175,476,345,71,820,613,793,865,23,324,62,262,519,165,797,686,708,694,363,770,796,926,180,174,721,638,18,106,673,895,911,39,697,700,257,669,321,275,355,351,378,878,229,569,231,195,813,577,941,294,210,606,566,848,711,682,507,518,626,615,782,969,391,382,449,284,103,935,731,956,925,983,957,461,453,567,959,706,52,89,736,818,868,749,360,923,620,898,312,332,4,316,689,894,468,73,912,530,8,466,493,759,767,176,259,428,442,619,214,369,807,603,445,120,371,748,520,870,361,399,772,343,47,915,283,733,753,680,738,441,462,913,790,212,60,50,183,5,984,701,204,858,919,322,563,100,973,791,440,199,477,331,850,389,989,728,240,21,149,131,579,236,855,486,251,337,278,26,480,0,172,225,942,570,325,264,622,513,124,691,986,13,601,401,836,553,313,747,408,896,737,814,627,597,598,107,85,897,9,600,993,290,863,860,812,705,403,583,541,936,392,687,292,862,581,559,38,487,475,305,227,871,996,226,163,763,263,76,758,220,36,639,589,116,928,198,421,841,223,336,980,937,746,93,164,92,24,893,595,610,390,977,522,556,593,998,852,237,471,750,196,710,435,335,270,628,547,634,948,523,112,28,97,217,744,494,506,61,207,681,873,587,810,78,964,491,531,310,446,800,463,892,552,665,842,903,367,734,929,778,920,412,987,249,623,406,889,526,990,611,64,459,177,84,372,346,774,806,949,696,75,668,684,716,87,426,457,16,884,481,823,118,571,808,656,108,179,146,49,485,505,713,379,488,320,364,888,145,979,113,843,470,456,350,821,499,51,719,201,416,845,540,618,785,798,83,400,907,599,874,299,54,828,543,74,635,899,479,352,465,677,548,943,338,128,761,659,6,963,776,760,542,661,568,65,151,323,281,276,143,245,503,534,667,885,354,300,725,517,826,588,509,663,489,148,407,286,824,129,839,137,206,643,743,715,141,291,867,645,946,572,330,173,32,224,303,514,954,653,302,368,469,765,565,45,213,861,7,882,413,970,309,1,81,439,366]","arrowright","true","0","7","217","1000","[""0046_N1000_K0217_NOCLIQUE"",""0084_N1000_K0217_CLIQUE""]"
"","","","","","","","","","","","audio-keyboard-response","66","60058","0.0-59.0-0.0-1.0","","","","","","","","null","audio_feedback/right/coin01.mp3","null","","","","0","7","217","1000","[""0046_N1000_K0217_NOCLIQUE"",""0084_N1000_K0217_CLIQUE""]"
"","","","","","","","","","","","canvas-keyboard-response","67","62001","0.0-60.0-0.0-0.0","","","","","","","","798","","arrowright","[928,161,657,295,958,981,540,682,227,679,461,403,766,289,663,222,843,550,321,728,150,912,973,506,427,401,89,669,505,940,526,184,996,791,3,630,522,666,674,366,987,860,214,691,549,74,21,745,643,293,532,519,762,171,463,756,87,561,297,121,956,707,752,894,472,396,2,124,34,656,24,183,698,412,967,585,864,287,61,386,534,270,453,119,846,474,714,738,957,684,487,677,30,343,869,88,976,278,898,133,5,23,576,93,583,137,368,344,438,776,54,509,779,937,777,893,361,500,369,744,840,511,751,252,416,28,670,399,727,660,685,353,799,629,833,77,531,86,729,166,721,930,434,581,391,181,167,781,562,305,11,288,700,92,341,592,865,458,638,160,874,138,338,245,217,467,304,910,108,413,538,719,462,925,339,154,15,494,579,514,814,704,693,952,951,533,904,710,743,156,997,621,665,822,261,104,100,103,255,260,335,842,525,191,518,653,457,768,626,218,142,984,560,206,488,559,64,648,6,46,972,547,468,551,326,357,564,991,852,554,298,803,207,668,319,144,895,811,632,838,145,715,773,922,664,10,750,947,323,327,994,716,625,39,276,118,456,253,789,891,802,209,542,342,763,311,376,152,33,333,236,941,718,504,290,969,250,868,683,792,225,201,117,192,553,71,819,755,286,913,896,578,889,818,85,200,862,613,999,603,892,162,689,513,362,31,772,857,308,263,55,243,528,871,591,254,219,120,602,82,855,646,471,974,489,44,313,211,601,330,975,350,80,13,4,628,667,713,157,835,731,711,29,557,190,422,722,392,882,798,616,445,441,558,242,387,676,69,775,651,622,199,828,955,95,759,14,479,908,914,306,515,486,985,964,141,449,203,70,66,410,960,204,866,988,736,451,235,593,701,590,881,508,99,430,174,502,460,845,294,927,307,437,234,931,175,839,60,611,35,906,824,885,356,78,380,637,38,440,47,365,807,232,268,980,58,351,135,572,450,989,503,324,102,465,140,723,942,946,901,636,277,607,848,995,7,965,284,724,496,68,301,647,880,537,535,949,932,692,36,556,159,830,821,761,248,490,322,189,299,787,360,212,544,455,786,309,320,780,726,186,495,582,406,770,424,59,408,180,634,586,164,859,354,935,998,48,507,443,112,493,177,155,539,426,873,929,696,231,812,491,195,595,256,566,658,795,429,246,328,76,521,545,454,619,754,53,986,498,888,315,303,867,850,933,125,746,394,348,771,198,501,841,400,916,785,178,570,481,98,900,644,244,436,220,466,22,541,635,699,389,381,476,709,950,431,919,697,510,223,273,417,336,659,642,681,567,890,444,139,805,739,953,543,405,661,224,926,749,173,823,808,73,464,67,921,346,332,358,251,49,384,764,132,379,837,741,435,45,147,282,281,923,655,587,978,65,40,345,371,106,568,170,26,806,517,363,397,673,571,694,52,25,415,404,817,492,589,757,512,520,240,114,876,596,831,292,920,546,516,107,610,274,459,148,990,482,432,314,285,414,238,374,193,548,19,702,844,652,706,623,318,334,809,372,813,265,917,897,977,325,130,608,228,423,618,588,733,258,378,57,641,123,373,421,485,230,116,530,94,909,639,810,165,425,905,573,609,720,924,748,737,188,390,680,948,966,574,131,12,272,168,827,484,569,555,784,797,536,477,316,597,393,800,470,96,127,767,237,529,187,605,671,113,903,172,478,575,442,870,695,149,146,347,740,271,18,210,213,395,983,233,790,302,979,688,793,690,208,847,448,163,742,654,329,834,433,971,801,708,115,37,815,861,580,202,129,875,72,280,982,849,678,732,63,883,497,829,878,604,599,0,56,662,42,1,8,577,407,633,185,134,911,111,331,452,614,686,483,300,151,853,825,816,760,527,778,257,796,364,249,97,262,730,216,16,565,594,229,788,934,615,886,447,598,887,317,954,226,783,75,794,375,153,20,650,758,266,782,279,84,649,836,939,194,735,355,241,446,600,899,367,439,612,269,196,428,907,169,91,856,275,62,820,858,938,734,712,79,717,832,523,993,90,725,221,863,961,915,936,918,9,409,158,388,420,959,385,475,259,370,128,197,41,359,944,105,377,109,101,774,943,620,239,81,879,552,340,247,126,617,672,83,264,382,631,291,283,640,705,675,418,703,645,970,687,398,179,473,968,627,296,136,143,499,312,769,826,963,854,122,267,51,215,176,402,804,624,383,17,182,884,27,43,584,205,337,32,524,877,110,606,419,349,962,480,50,469,765,563,352,753,945,747,992,872,851,902,310,411]","arrowright","true","0","8","200","1000","[""0044_N1000_K0200_NOCLIQUE"",""0051_N1000_K0200_CLIQUE""]"
"","","","","","","","","","","","audio-keyboard-response","68","62997","0.0-60.0-0.0-1.0","","","","","","","","null","audio_feedback/right/coin01.mp3","null","","","","0","8","200","1000","[""0044_N1000_K0200_NOCLIQUE"",""0051_N1000_K0200_CLIQUE""]"
"","","","","","","","","","","","canvas-keyboard-response","69","64802","0.0-61.0-0.0-0.0","","","","","","","","902","","arrowleft","[169,906,334,607,801,430,146,381,674,885,862,762,672,817,366,429,534,954,991,818,820,932,45,915,202,261,16,413,745,997,201,841,536,564,365,71,599,606,10,256,43,799,59,189,396,889,516,704,491,514,758,982,93,597,971,18,964,96,347,635,369,359,917,173,823,928,798,273,922,696,544,394,453,746,33,342,781,232,112,507,287,331,313,458,603,210,756,479,625,931,867,620,878,765,738,572,879,428,259,29,724,1,981,294,148,184,824,37,717,32,527,335,269,465,90,108,530,729,89,131,588,840,408,555,612,863,503,531,649,675,225,682,405,567,854,180,757,329,345,77,462,558,643,764,434,698,662,747,680,391,50,231,994,702,508,370,978,177,907,87,660,456,828,137,65,355,581,392,414,532,905,830,733,147,402,895,621,107,203,844,780,644,571,252,253,524,779,197,543,447,183,666,448,161,185,785,584,549,134,312,111,504,418,528,5,20,11,192,212,332,856,280,710,468,640,712,790,323,170,871,328,870,375,778,882,420,379,658,616,861,771,167,941,263,816,469,575,992,590,993,264,218,626,890,951,663,157,122,86,438,423,589,547,947,639,802,959,955,923,234,393,825,943,989,484,66,386,983,912,340,276,522,195,193,159,561,502,909,703,728,150,82,327,797,673,835,552,510,737,443,819,961,749,436,282,538,695,731,307,792,595,638,200,651,88,171,79,859,679,784,722,689,151,622,847,181,133,681,145,419,22,542,605,245,209,853,789,809,70,821,8,229,891,309,736,480,40,975,113,848,286,478,793,755,485,308,104,777,246,574,291,281,357,832,471,568,315,884,388,940,598,852,829,470,939,119,47,735,838,258,73,580,237,154,230,416,235,124,206,559,344,636,395,811,138,693,222,346,164,7,973,109,935,659,319,629,53,103,944,535,123,678,384,196,401,97,19,17,139,608,75,380,569,54,513,541,130,972,950,794,875,283,343,664,431,647,472,846,860,141,102,576,498,808,411,279,783,317,499,2,560,424,422,221,763,591,60,833,72,948,28,988,761,684,57,446,967,153,892,437,464,876,349,600,827,776,904,634,127,301,718,27,404,383,81,242,451,38,481,795,902,583,476,140,815,775,31,348,990,933,61,610,266,441,128,92,630,604,487,397,842,700,539,566,295,407,374,715,439,415,553,934,716,495,526,677,565,149,699,330,62,537,155,101,550,333,877,187,41,207,274,378,667,188,893,855,172,864,592,199,409,918,493,255,631,519,233,632,843,455,719,517,974,921,377,628,98,249,834,873,518,966,325,4,501,623,813,753,548,449,618,226,100,521,337,114,914,645,21,293,839,720,15,613,512,110,3,741,850,322,117,985,467,412,125,63,888,483,361,360,353,362,687,655,582,452,25,55,648,851,898,217,570,403,305,64,44,271,241,937,523,496,683,0,427,14,963,919,652,585,254,725,372,691,215,324,454,769,387,957,304,723,182,368,278,350,511,12,292,223,657,594,593,126,270,78,376,656,219,488,238,942,697,831,385,619,351,962,239,318,297,136,807,220,433,676,913,36,142,901,701,734,805,160,277,240,562,694,367,968,587,740,578,243,936,752,796,214,248,958,573,163,707,896,952,642,849,463,615,826,158,540,326,314,929,91,216,586,204,466,272,927,926,773,166,435,267,83,320,772,417,194,94,46,688,654,300,806,321,460,191,899,208,515,916,198,48,302,99,692,881,977,671,354,760,976,311,425,228,461,837,51,557,224,265,35,262,742,911,364,706,714,6,106,812,284,489,426,95,949,956,275,563,641,908,115,751,118,143,750,482,250,69,721,190,13,76,602,633,770,398,165,814,800,174,49,803,68,74,56,900,445,874,390,627,726,887,406,869,288,999,995,886,85,310,389,713,227,52,609,129,768,105,804,251,924,996,686,509,26,306,759,296,399,617,930,668,179,473,984,152,744,352,34,506,980,298,268,244,299,316,39,135,120,289,80,400,708,132,987,946,743,303,58,866,444,920,872,998,670,979,782,545,711,42,822,178,144,894,500,260,9,338,748,925,945,290,969,358,162,646,341,67,176,767,121,810,525,554,739,186,661,339,986,665,685,766,211,845,836,788,910,551,175,965,421,213,690,432,168,754,84,903,490,440,116,791,257,475,459,624,650,30,970,477,382,865,786,953,474,732,492,730,960,556,709,247,486,653,23,883,546,897,868,727,457,497,442,205,601,637,285,373,363,156,505,577,858,857,880,494,450,596,336,529,669,520,705,24,356,774,614,533,236,579,787,371,938,410,611]","arrowleft","true","0","9","200","1000","[""0073_N1000_K0200_CLIQUE"",""0083_N1000_K0200_NOCLIQUE""]"
"","","","","","","","","","","","audio-keyboard-response","70","65837","0.0-61.0-0.0-1.0","","","","","","","","null","audio_feedback/right/coin01.mp3","null","","","","0","9","200","1000","[""0073_N1000_K0200_CLIQUE"",""0083_N1000_K0200_NOCLIQUE""]"
"","","","","","","","","","","","canvas-keyboard-response","71","67697","0.0-62.0-0.0-0.0","","","","","","","","688","","arrowleft","[59,824,517,601,452,918,126,589,838,85,908,568,690,259,900,858,932,610,562,957,410,617,246,681,907,314,691,157,972,242,439,446,861,471,455,504,785,884,737,550,713,793,368,413,194,619,366,776,671,955,566,201,150,590,971,236,65,47,399,132,939,901,509,290,450,370,403,672,613,808,429,903,408,278,869,332,581,831,921,755,543,833,89,18,823,297,609,920,788,527,723,565,729,348,235,620,486,50,997,202,730,277,764,962,91,212,99,740,438,340,266,606,398,184,545,930,466,71,344,652,847,250,73,626,980,474,911,153,695,675,701,914,222,263,734,936,563,342,327,379,16,354,646,680,768,218,532,548,217,798,480,578,36,658,251,389,114,206,964,209,457,882,625,726,579,560,139,904,530,481,615,935,832,931,182,229,487,154,234,612,49,310,602,190,864,289,669,889,306,876,961,479,318,183,618,247,998,402,887,264,358,393,999,753,475,88,699,188,711,324,953,809,977,881,284,627,642,535,694,573,460,207,837,435,317,529,461,553,898,512,106,148,255,523,420,313,177,2,75,499,604,659,497,162,849,6,282,933,782,131,507,254,51,428,886,749,78,467,676,704,892,813,648,121,454,802,814,128,293,973,323,311,673,827,357,416,135,336,216,818,583,102,300,872,703,46,797,894,779,315,269,108,231,213,922,763,484,462,272,735,843,855,621,554,334,993,915,490,387,8,929,275,826,24,187,115,299,373,960,940,693,873,257,934,189,810,984,561,67,60,465,867,628,537,522,738,365,938,353,801,343,710,42,307,544,538,423,795,754,727,720,489,95,803,155,158,928,409,386,380,807,241,661,356,739,848,559,859,816,248,736,580,391,968,418,555,800,319,168,825,376,651,572,668,860,146,656,470,472,812,819,31,186,208,766,742,653,588,240,981,28,496,840,23,44,328,966,574,331,948,230,268,575,978,80,66,11,223,371,273,758,586,171,944,294,320,17,715,654,662,69,700,732,383,684,431,845,100,58,179,164,707,525,70,599,7,419,708,118,751,287,666,105,280,910,180,437,637,541,360,871,916,301,56,644,355,384,239,260,965,198,109,670,375,219,945,326,762,10,844,725,12,919,143,444,781,161,104,185,156,407,442,57,783,634,468,503,119,696,633,799,120,267,390,338,414,41,308,655,483,856,74,811,733,866,643,83,879,731,406,804,636,211,508,45,192,385,361,531,274,569,958,283,291,302,256,967,724,367,195,25,488,38,292,421,169,846,650,524,245,440,899,888,279,657,228,225,513,645,564,309,125,647,868,991,445,166,750,778,175,951,853,857,392,322,4,494,963,26,197,607,926,3,330,622,890,173,515,597,611,603,983,956,927,836,449,875,775,473,851,698,505,514,436,595,757,660,830,709,912,986,794,288,893,220,518,395,880,865,81,64,913,151,534,117,765,697,76,244,22,780,567,878,394,261,616,909,79,374,13,592,551,533,511,677,107,495,253,688,718,777,204,790,744,55,556,552,136,994,477,557,94,137,593,571,433,979,77,638,664,842,992,747,432,870,591,770,464,141,787,388,687,985,712,270,482,382,905,453,159,632,492,863,605,351,756,917,706,667,337,943,349,829,822,692,232,347,237,335,400,585,839,969,258,773,600,941,689,683,996,210,123,510,350,298,72,149,199,448,165,897,381,949,296,364,906,134,685,181,896,759,895,372,427,769,746,52,716,546,412,304,103,172,68,582,493,221,21,791,252,224,974,305,584,596,0,874,101,144,987,113,954,417,295,14,850,82,434,377,352,9,760,500,805,631,641,27,521,852,86,587,341,576,40,233,821,262,540,469,37,536,43,362,286,147,498,276,891,110,178,116,142,719,771,145,34,265,163,39,63,458,422,425,989,502,84,528,705,226,721,748,312,792,539,624,516,970,33,946,430,48,30,542,140,686,547,96,346,598,623,160,639,635,558,674,678,995,316,741,397,815,761,238,526,774,303,32,478,459,854,415,950,345,62,925,167,988,506,152,92,883,745,789,133,923,629,663,841,679,243,820,411,329,205,519,5,359,441,614,378,924,174,717,702,124,271,426,443,937,463,339,129,15,325,396,784,828,424,281,834,630,640,877,728,54,456,520,817,722,835,501,947,476,130,767,806,975,214,401,87,649,577,682,608,53,902,200,942,743,982,215,752,111,112,138,369,193,714,570,127,952,90,1,594,885,97,404,485,451,19,61,93,959,321,990,491,976,405,29,796,447,35,176,20,98,227,122,191,772,862,665,249,549,203,196,363,333,285,786,170]","arrowleft","true","0","10","183","1000","[""0031_N1000_K0183_CLIQUE"",""0078_N1000_K0183_NOCLIQUE""]"
"","","","","","","","","","","","audio-keyboard-response","72","68698","0.0-62.0-0.0-1.0","","","","","","","","null","audio_feedback/right/coin01.mp3","null","","","","0","10","183","1000","[""0031_N1000_K0183_CLIQUE"",""0078_N1000_K0183_NOCLIQUE""]"
"","","","","","","","","","","","canvas-keyboard-response","73","70450","0.0-63.0-0.0-0.0","","","","","","","","785","","arrowleft","[396,576,138,968,334,128,877,203,884,58,276,85,232,701,248,159,498,568,905,732,550,499,440,766,915,669,360,530,596,955,841,744,362,202,135,641,174,791,790,767,150,107,652,92,278,675,935,76,195,320,762,296,785,7,204,168,885,753,961,609,783,418,437,835,782,724,569,226,839,98,793,574,966,3,850,973,292,344,279,31,326,960,434,143,190,517,786,324,373,343,901,314,491,983,853,246,403,788,52,15,595,917,727,45,525,862,716,95,554,593,408,349,271,511,874,854,21,792,8,173,534,427,288,872,380,5,123,208,663,801,387,442,505,615,268,778,946,165,897,84,67,671,463,131,163,62,63,361,126,688,802,971,426,119,718,176,494,216,843,100,637,857,880,852,16,453,519,741,317,647,464,994,425,400,712,573,219,743,883,518,444,457,640,873,707,410,893,665,523,480,247,476,697,29,774,608,20,911,894,703,13,364,237,965,864,586,145,313,275,186,752,642,421,391,477,257,109,981,99,55,913,210,366,592,635,236,363,591,468,234,96,233,914,870,723,908,212,644,298,826,714,958,432,577,137,356,473,524,598,218,998,110,770,136,659,283,692,479,105,304,193,976,769,59,666,878,699,704,458,420,460,728,390,129,198,809,936,855,602,18,617,340,448,222,405,739,388,653,710,509,242,555,726,26,585,504,895,819,471,43,972,605,761,23,459,993,121,557,149,630,932,290,806,1,621,305,823,393,329,678,250,627,339,27,827,37,679,88,295,272,331,49,859,706,563,623,771,953,887,643,545,954,830,134,695,32,920,725,497,845,395,625,175,311,482,959,377,485,567,930,323,975,942,30,319,535,866,597,66,844,239,251,461,10,561,775,560,738,689,187,881,130,751,840,501,481,486,929,147,571,638,144,683,407,269,487,836,984,51,308,56,821,904,274,475,794,889,909,891,101,882,890,300,54,325,370,924,943,599,114,351,39,816,465,912,526,867,411,763,858,978,46,289,113,533,217,963,433,865,551,38,500,514,435,717,287,921,502,581,244,90,41,352,386,141,810,180,117,987,673,199,588,925,957,670,907,543,729,406,600,900,86,547,409,781,730,720,2,456,419,249,700,589,243,318,603,206,127,240,489,661,506,112,956,34,988,17,952,231,375,995,273,982,9,566,214,808,540,315,655,188,879,558,50,25,182,926,372,401,685,651,189,825,397,831,181,934,613,693,658,672,520,616,848,713,933,213,553,11,488,350,681,259,436,306,944,705,357,75,740,871,923,631,812,612,745,462,807,398,503,777,151,139,389,507,980,886,800,654,185,919,985,837,293,71,620,851,68,285,715,677,184,694,467,842,667,875,570,345,633,918,579,196,78,6,484,789,676,80,719,711,441,450,758,698,529,91,177,916,284,264,562,606,451,22,258,415,527,799,784,77,607,734,205,374,162,103,79,903,772,951,902,200,495,828,385,564,220,992,82,446,582,680,299,225,492,846,384,466,303,416,445,254,256,245,215,73,430,869,721,765,369,454,335,590,302,422,158,776,814,124,838,687,178,469,708,24,945,120,207,227,342,750,72,888,539,230,847,36,822,624,538,472,470,691,522,860,404,209,787,796,948,756,805,192,412,565,378,346,601,735,330,645,604,266,549,532,167,478,646,328,260,42,413,87,414,949,876,746,382,392,371,48,155,228,927,967,161,970,910,996,253,368,997,722,856,301,282,496,148,171,64,102,35,747,544,584,270,990,286,632,636,575,365,297,447,322,44,156,737,742,690,622,449,294,223,197,265,60,191,896,668,493,14,428,336,28,733,261,989,898,795,312,815,941,255,986,12,179,201,0,664,797,629,950,686,104,348,97,47,969,337,353,892,660,132,939,759,309,611,307,310,157,749,587,74,542,164,803,429,610,376,940,696,332,424,267,849,832,235,594,89,931,755,431,341,115,764,773,531,906,868,938,508,381,83,291,474,834,748,4,170,578,417,572,779,166,327,61,833,154,521,650,649,183,133,194,863,94,116,937,634,355,639,33,108,490,512,221,628,438,65,829,118,813,423,922,583,379,861,656,899,536,979,455,439,702,111,19,817,541,546,674,614,160,483,947,731,125,754,153,510,169,394,780,798,991,399,657,757,682,811,53,277,977,684,662,443,619,281,70,146,452,106,383,618,367,760,142,347,69,140,252,333,556,736,241,280,804,818,238,338,516,928,974,402,548,224,559,81,229,648,552,820,316,152,964,768,262,172,40,321,57,537,211,999,962,515,513,93,263,580,122,359,354,528,824,358,626,709]","arrowleft","true","0","11","183","1000","[""0055_N1000_K0183_CLIQUE"",""0052_N1000_K0183_NOCLIQUE""]"
"","","","","","","","","","","","audio-keyboard-response","74","71517","0.0-63.0-0.0-1.0","","","","","","","","null","audio_feedback/right/coin01.mp3","null","","","","0","11","183","1000","[""0055_N1000_K0183_CLIQUE"",""0052_N1000_K0183_NOCLIQUE""]"
"","","","","","","","","","","","canvas-keyboard-response","75","73362","0.0-64.0-0.0-0.0","","","","","","","","916","","arrowleft","[301,929,237,611,522,490,194,427,101,731,514,385,520,690,157,978,917,462,193,557,855,333,57,122,390,257,918,476,995,623,139,763,160,135,716,863,516,969,209,54,447,977,277,394,877,219,584,145,53,910,322,885,31,798,533,271,359,971,587,676,914,572,701,746,5,391,606,340,563,497,152,342,817,105,795,531,458,401,767,441,98,56,153,892,747,959,431,360,831,254,844,434,21,536,771,797,943,311,571,388,4,660,741,379,146,934,869,348,61,73,932,889,261,154,298,807,384,215,418,976,409,907,140,530,780,403,396,899,223,280,410,751,402,288,474,174,816,793,400,376,513,891,900,450,951,250,133,796,12,166,32,381,108,498,481,982,18,370,898,365,592,617,581,647,444,80,104,102,782,760,236,947,870,949,17,214,463,120,203,206,923,984,436,828,935,92,366,546,169,814,178,451,433,906,582,659,84,331,517,455,675,205,496,386,931,999,770,287,654,803,387,721,524,175,224,692,161,719,777,282,600,985,591,317,895,666,488,7,79,583,960,521,419,118,504,252,556,633,714,968,615,543,158,726,303,449,629,222,630,367,258,836,621,588,523,328,711,750,489,640,894,382,437,126,335,406,961,95,605,635,996,164,879,987,362,493,627,318,808,752,398,225,688,81,753,812,825,438,837,59,734,299,696,248,642,790,132,210,99,445,510,502,963,119,69,715,374,111,147,820,624,110,461,114,186,96,823,265,62,217,233,262,25,27,373,23,992,256,300,189,149,85,834,609,454,590,505,180,260,608,439,988,768,245,964,276,856,130,593,332,545,26,465,231,238,944,641,77,351,723,24,762,710,457,788,60,565,653,952,319,90,585,776,460,835,634,330,499,761,116,547,577,858,991,70,399,148,113,243,862,549,729,525,652,124,421,821,200,34,732,569,75,586,873,109,320,52,378,452,718,555,672,46,357,897,353,477,911,235,509,16,483,94,580,526,307,446,329,941,559,136,901,201,649,703,805,702,930,806,2,801,74,655,471,273,986,266,294,967,553,325,534,902,426,171,352,405,468,310,347,851,639,286,704,916,39,64,138,683,671,815,857,267,336,229,327,865,142,699,832,87,579,908,994,112,143,717,819,950,578,414,503,159,413,954,866,737,656,781,218,35,11,735,346,275,657,736,903,669,674,467,677,375,83,648,933,552,745,380,207,220,712,541,962,686,859,566,867,596,730,848,420,939,540,920,47,91,850,759,395,251,459,117,393,511,191,742,33,123,849,314,535,281,997,636,766,470,274,601,141,479,725,532,475,804,998,826,97,478,748,50,86,349,693,594,168,673,864,195,622,304,10,435,72,884,904,428,890,893,738,948,833,861,508,190,958,377,990,631,368,628,811,687,196,989,886,19,172,128,800,151,494,813,326,355,156,643,650,802,416,227,542,259,232,927,338,253,305,515,824,364,632,966,778,769,37,430,972,830,568,184,610,170,684,213,854,573,279,321,49,212,614,82,603,20,486,93,697,397,63,188,599,296,182,127,637,604,38,226,440,938,308,464,946,76,881,937,743,942,199,291,838,589,700,247,165,883,779,500,173,845,678,269,221,344,28,417,847,125,775,664,887,43,389,453,792,208,58,713,137,422,244,618,473,68,840,799,495,361,974,607,957,343,13,134,791,528,323,240,818,358,425,940,176,871,289,507,896,744,491,852,794,177,928,472,757,51,842,407,936,561,185,705,424,786,519,822,695,131,106,698,651,283,915,882,843,529,354,456,922,66,595,841,372,167,787,345,312,597,785,567,183,919,187,197,662,564,707,383,129,709,921,909,202,874,740,293,356,65,442,548,192,404,341,912,560,983,681,658,574,0,913,285,211,575,469,487,764,55,691,663,412,539,772,956,485,878,22,466,809,965,970,670,708,270,121,313,527,720,501,448,309,163,246,71,749,619,646,411,278,181,103,371,706,339,616,875,423,290,264,758,955,179,783,876,551,668,89,667,953,316,198,144,754,975,14,369,829,602,150,981,482,620,680,302,67,284,846,562,239,679,765,980,432,492,973,773,576,538,868,888,774,36,613,107,230,255,550,727,324,480,860,292,9,100,6,644,48,694,924,853,443,295,40,728,570,880,827,350,429,925,216,484,115,78,363,272,512,626,612,810,392,979,162,45,41,733,789,268,598,415,739,8,685,337,1,682,625,638,408,155,661,29,518,872,3,263,926,42,722,506,544,242,755,756,297,945,558,537,315,905,44,554,665,15,241,724,689,88,334,784,645,30,993,234,839,249,228,306,204]","arrowleft","true","0","12","167","1000","[""0064_N1000_K0167_CLIQUE"",""0014_N1000_K0167_NOCLIQUE""]"
"","","","","","","","","","","","audio-keyboard-response","76","74357","0.0-64.0-0.0-1.0","","","","","","","","null","audio_feedback/right/coin01.mp3","null","","","","0","12","167","1000","[""0064_N1000_K0167_CLIQUE"",""0014_N1000_K0167_NOCLIQUE""]"
"","","","","","","","","","","","canvas-keyboard-response","77","76370","0.0-65.0-0.0-0.0","","","","","","","","836","","arrowright","[534,579,423,883,76,300,54,768,759,31,583,626,439,146,194,249,641,84,195,475,453,278,405,981,72,939,573,296,958,470,996,427,65,33,847,238,150,833,730,743,47,741,960,461,934,395,139,832,965,304,653,260,773,556,850,740,332,766,169,698,285,986,839,493,756,264,557,543,308,930,794,63,783,172,922,224,915,647,489,30,404,656,274,230,290,335,566,817,565,613,196,660,385,245,988,622,652,509,892,80,952,170,40,816,474,73,736,674,528,627,482,760,838,888,615,789,396,866,665,574,983,636,633,581,972,621,860,79,612,315,386,466,828,267,255,920,232,109,158,655,897,586,977,629,841,216,513,292,522,435,189,588,877,584,907,549,467,70,696,548,517,662,166,455,400,949,750,856,450,87,148,889,664,378,174,992,99,784,790,714,884,858,978,793,77,976,478,436,777,894,183,950,401,829,968,60,374,204,152,376,160,541,610,398,825,762,787,564,469,247,675,218,852,49,449,719,705,438,130,265,941,905,349,302,69,804,729,942,221,735,359,102,778,597,748,836,961,908,6,503,61,571,540,524,598,707,975,144,822,956,539,957,71,669,869,231,256,333,275,964,575,547,781,775,687,179,870,48,155,558,499,220,343,325,823,253,936,771,974,298,993,864,11,657,676,910,855,92,880,984,233,448,212,577,429,382,391,121,282,490,157,419,387,422,319,711,697,310,103,1,492,271,724,686,890,113,921,672,812,457,251,326,929,7,35,886,96,397,57,433,682,408,428,550,118,413,764,710,100,788,545,679,734,559,506,314,623,904,747,944,46,200,538,842,133,219,98,609,902,175,555,940,519,683,366,125,110,967,309,782,67,911,989,966,695,368,677,206,318,432,276,587,722,800,97,807,108,437,58,21,785,837,186,23,94,805,239,901,18,214,182,861,145,531,246,107,728,134,64,508,294,932,13,916,88,180,8,355,350,690,244,867,484,258,268,849,15,357,473,738,213,831,691,523,589,42,982,752,222,445,479,717,317,316,356,795,472,595,190,358,857,746,913,283,792,544,159,0,505,938,417,786,286,369,223,29,361,702,706,226,25,685,43,16,769,903,348,199,757,739,168,334,17,390,37,868,203,715,327,601,416,891,381,671,112,101,124,803,995,630,2,658,184,594,572,228,815,262,946,701,353,28,441,394,162,452,338,843,824,4,321,352,454,95,5,236,431,576,430,123,281,851,862,914,141,554,403,481,811,456,616,853,991,465,354,291,345,215,709,591,384,287,138,313,602,927,360,10,38,248,420,197,532,460,132,293,947,299,763,806,495,529,39,136,562,755,819,261,243,59,201,205,237,209,370,483,342,654,393,504,887,257,898,643,605,684,498,83,923,167,3,638,980,477,446,919,217,511,459,635,185,640,399,329,813,234,561,119,91,24,414,625,599,727,380,563,451,872,776,19,388,53,865,624,164,732,962,753,745,129,128,501,363,918,131,415,191,284,678,476,733,791,516,104,937,266,667,761,955,593,447,389,328,600,859,979,487,500,840,713,425,704,27,494,463,896,774,305,526,82,176,496,708,885,151,990,289,9,882,373,712,105,694,943,553,202,873,645,875,953,801,367,279,637,663,412,659,322,845,514,45,421,135,137,928,254,799,32,330,337,814,611,879,649,881,578,272,997,240,818,149,906,900,34,444,340,878,497,512,680,551,618,20,893,970,580,143,912,688,520,681,14,89,754,392,156,521,90,263,364,277,603,834,198,620,899,973,56,187,619,723,211,931,826,552,590,116,442,821,371,462,871,617,418,924,41,779,295,592,668,471,863,193,161,537,770,402,351,127,948,689,426,468,848,235,744,926,703,614,68,844,208,346,259,142,820,207,336,188,742,808,673,642,140,377,721,93,153,767,488,114,797,725,546,987,765,527,994,830,52,718,515,440,306,22,410,181,26,917,502,951,324,117,758,480,959,229,379,751,375,639,311,716,585,525,661,731,362,507,225,570,796,74,331,458,533,909,424,560,518,178,241,383,726,670,802,485,693,568,55,954,464,772,154,969,971,749,312,810,165,846,985,798,925,720,106,36,646,372,567,651,998,933,443,700,280,666,273,569,407,835,120,288,297,44,78,692,634,606,648,699,411,339,406,269,491,252,631,827,323,780,163,737,999,510,409,81,62,607,303,307,876,608,535,111,604,227,854,85,945,301,173,270,644,320,51,50,935,344,963,530,347,809,874,542,147,596,177,126,242,434,122,210,536,171,250,12,650,66,86,192,895,632,582,365,486,75,628,115,341]","arrowright","true","0","13","167","1000","[""0026_N1000_K0167_NOCLIQUE"",""0012_N1000_K0167_CLIQUE""]"
"","","","","","","","","","","","audio-keyboard-response","78","77417","0.0-65.0-0.0-1.0","","","","","","","","null","audio_feedback/right/coin01.mp3","null","","","","0","13","167","1000","[""0026_N1000_K0167_NOCLIQUE"",""0012_N1000_K0167_CLIQUE""]"
"","","","","","","","","","","","canvas-keyboard-response","79","79009","0.0-66.0-0.0-0.0","","","","","","","","458",""," ","[538,517,576,738,814,258,125,610,55,435,640,848,775,631,312,422,801,910,906,605,241,192,494,73,29,853,823,15,147,566,474,856,92,630,307,613,37,83,131,436,977,753,88,31,858,800,223,148,783,402,761,82,116,726,394,987,17,992,963,201,495,601,626,212,44,382,806,632,118,467,329,438,2,261,321,811,284,513,185,159,268,443,144,408,151,486,617,102,797,66,642,618,432,163,496,941,101,231,742,154,365,117,646,867,501,308,327,287,991,615,544,53,984,444,723,485,926,254,237,947,111,150,371,644,318,36,206,434,264,26,796,903,472,994,943,97,989,181,948,493,599,667,229,372,359,546,112,33,122,956,591,995,188,67,767,701,184,18,296,140,696,656,894,619,203,824,249,541,751,153,965,392,46,976,788,878,588,257,561,885,953,608,648,457,221,219,108,850,391,789,424,460,792,743,639,276,896,582,710,563,48,908,251,412,852,492,488,384,473,711,625,175,458,176,357,887,421,535,528,868,386,189,575,759,508,913,683,13,732,306,20,754,804,612,915,417,841,932,670,440,333,353,157,23,235,167,482,879,590,895,676,940,250,982,812,598,477,465,156,550,461,691,43,537,882,342,50,281,628,186,259,547,341,299,614,540,338,597,680,389,81,114,383,304,883,93,469,673,557,226,337,346,481,273,809,503,695,442,744,502,132,709,877,780,708,19,729,373,91,551,313,22,267,449,165,937,260,5,832,42,56,859,584,607,636,752,173,65,525,441,988,768,40,654,633,266,803,855,418,21,429,862,773,345,798,645,214,515,860,704,331,77,433,662,489,80,177,998,59,69,113,641,406,510,85,187,702,706,863,135,180,98,326,222,650,104,604,96,825,0,448,60,204,721,686,776,736,395,274,480,818,174,270,78,820,916,679,305,580,543,765,124,844,158,996,682,58,138,699,622,30,74,997,784,288,95,129,368,649,115,693,909,529,390,450,629,718,592,548,410,579,521,872,847,572,103,4,401,62,949,936,355,407,739,674,351,589,690,827,426,942,555,756,362,209,921,451,698,454,658,414,236,110,428,179,762,178,728,815,549,684,664,559,772,871,634,876,247,322,716,558,71,904,794,11,545,522,427,899,233,777,638,808,893,207,959,155,411,969,624,912,602,514,484,920,694,769,34,294,851,740,350,764,295,64,733,239,731,974,225,106,240,875,90,973,819,972,781,377,836,688,191,952,831,955,344,196,748,238,846,213,195,420,483,358,279,169,309,927,509,611,954,123,99,320,330,340,497,713,919,671,583,869,526,243,697,68,352,854,901,446,271,277,51,361,816,692,146,45,635,439,471,398,962,24,864,595,660,145,507,470,343,934,376,61,369,94,381,758,152,562,12,705,86,245,621,468,217,833,957,348,419,993,366,205,647,938,657,300,884,360,464,829,834,594,452,133,843,253,565,224,518,415,75,763,447,750,933,16,160,560,898,27,922,523,332,839,840,121,925,900,760,724,161,166,168,388,498,661,924,586,316,574,139,889,620,409,600,842,929,914,722,734,403,120,375,385,272,210,347,170,838,57,463,782,967,821,805,41,265,198,292,511,194,845,462,323,669,328,404,675,200,770,367,968,76,946,892,746,866,72,127,787,336,785,980,171,627,314,380,530,334,431,966,280,719,681,142,874,778,603,531,453,655,730,666,570,263,128,47,532,939,918,216,49,107,979,958,479,252,301,606,197,134,466,735,807,542,747,425,149,737,445,659,63,700,873,325,275,653,315,505,491,971,35,290,527,232,379,199,907,7,215,437,668,741,663,917,822,487,568,687,945,890,935,689,396,137,983,581,552,164,109,248,865,339,930,399,100,52,397,665,143,766,828,715,244,891,516,269,577,500,717,218,230,923,554,861,54,519,119,975,774,405,211,162,172,725,130,520,459,830,771,950,39,25,677,105,87,303,126,637,400,837,911,616,678,262,234,755,242,286,817,881,84,524,1,285,888,9,298,585,141,880,672,795,506,10,799,136,324,38,905,278,504,712,374,813,8,228,970,981,255,478,512,928,826,246,413,986,931,283,183,623,70,802,490,793,416,539,364,6,387,999,3,990,835,220,578,533,282,423,651,202,289,534,564,571,745,356,749,476,786,28,573,593,378,302,293,870,886,779,349,190,727,193,256,32,757,208,609,227,556,569,317,951,456,587,499,182,354,291,370,14,89,310,944,985,978,703,335,720,363,567,790,536,960,857,475,791,897,902,643,961,810,596,553,707,79,319,311,455,714,652,964,849,297,393,430,685]","arrowleft","","0","14","150","1000","[""0054_N1000_K0150_CLIQUE"",""0033_N1000_K0150_NOCLIQUE""]"
"","","","","","","","","","","","audio-keyboard-response","80","80097","0.0-66.0-0.0-1.0","","","","","","","","null","audio_feedback/shuffles/shuffle01.mp3","null","","","","0","14","150","1000","[""0054_N1000_K0150_CLIQUE"",""0033_N1000_K0150_NOCLIQUE""]"
"","","","","","","","","","","","canvas-keyboard-response","81","81666","0.0-66.1-0.1-0.1","","","","","","","","478",""," ","[224,424,718,697,436,329,19,253,633,583,656,197,996,961,185,249,39,982,242,582,96,713,320,561,605,786,0,803,507,590,378,415,495,174,667,721,541,864,175,836,109,542,892,370,318,900,585,315,134,731,809,317,207,194,857,926,923,932,964,184,212,491,372,623,137,373,420,941,766,776,782,49,239,319,284,118,147,897,348,280,458,463,219,299,476,834,490,969,294,537,798,745,546,472,208,735,120,414,268,57,441,928,916,743,122,402,227,88,24,513,240,344,97,532,905,290,913,502,262,863,919,816,265,359,121,687,813,380,6,668,912,688,178,715,613,624,468,944,531,156,479,635,100,129,771,658,790,974,958,917,694,302,827,686,801,733,689,802,780,298,535,509,501,647,210,704,989,690,58,960,725,215,778,41,21,3,987,346,245,744,91,270,327,567,474,962,937,750,107,460,830,580,117,225,887,172,794,65,244,602,680,581,588,126,751,199,62,375,791,60,16,480,517,967,383,562,102,127,835,399,4,494,865,754,74,473,663,85,153,451,886,397,191,539,483,106,218,891,279,705,894,576,625,426,437,934,363,676,20,367,412,291,358,125,114,799,524,984,553,789,856,574,450,832,18,693,622,956,86,455,272,506,84,844,124,26,764,394,281,36,806,277,409,306,341,8,701,236,456,783,769,837,842,702,933,669,992,911,313,396,955,717,78,860,700,160,444,223,504,105,355,356,232,410,547,610,446,620,141,214,871,560,564,325,330,811,243,592,675,487,61,760,882,979,464,222,678,287,251,496,796,417,392,644,486,579,521,493,812,497,854,275,82,388,167,80,877,618,198,343,752,855,552,703,226,266,452,307,741,550,54,682,940,221,510,659,569,936,111,37,234,604,822,336,945,755,768,619,162,972,534,880,706,366,939,411,629,324,145,528,874,695,672,377,179,568,929,728,591,113,190,195,83,824,825,435,353,584,712,641,642,489,626,30,793,259,843,169,364,53,593,148,457,761,545,368,975,79,152,737,447,965,311,903,42,25,631,59,431,753,657,847,901,404,421,603,471,43,570,149,256,938,492,461,151,314,840,614,948,707,640,774,777,393,654,133,406,89,439,589,140,161,323,252,638,32,650,155,230,400,973,442,748,381,93,180,440,95,628,181,371,841,289,543,170,586,357,349,2,922,231,92,9,264,482,188,519,515,467,883,632,423,321,742,671,942,924,781,443,293,5,540,453,787,833,31,601,648,759,481,81,907,248,278,991,296,374,130,28,649,466,664,899,876,376,44,563,981,538,462,173,229,665,211,146,13,573,261,914,425,575,823,997,285,530,869,879,166,986,723,276,469,820,815,267,22,708,536,98,512,150,196,951,337,831,332,634,132,454,829,131,301,328,971,639,616,909,758,432,38,342,237,139,171,587,533,430,607,304,128,51,352,17,720,503,868,485,142,890,630,308,594,544,662,254,68,305,48,123,522,433,775,192,980,779,800,931,316,959,998,927,52,995,866,445,405,64,182,119,419,730,183,957,360,577,257,379,918,839,50,391,555,853,952,422,949,67,347,557,333,819,429,683,514,220,438,362,859,908,763,390,767,112,163,413,600,976,14,465,679,164,282,101,966,740,33,247,615,168,385,500,902,300,202,685,386,765,714,90,187,350,382,201,312,87,428,40,11,526,747,826,838,792,612,950,845,189,852,609,661,611,228,1,807,258,292,893,817,621,925,104,345,870,873,213,692,571,804,828,896,295,395,565,459,12,943,525,930,867,954,884,499,434,448,727,985,418,177,209,205,643,384,698,255,518,963,699,408,7,677,269,165,983,529,47,910,286,238,756,734,606,204,559,885,858,354,263,953,548,684,110,154,773,158,772,848,322,527,369,558,72,770,45,511,785,549,709,554,274,889,749,681,762,738,988,849,566,235,35,246,407,193,398,200,670,115,724,653,505,736,572,691,814,627,56,746,861,186,365,334,361,144,416,872,338,176,271,403,217,645,116,599,523,788,77,288,516,846,108,241,898,651,878,666,351,76,387,875,990,655,34,556,138,850,596,29,719,784,608,335,216,660,401,449,70,303,10,157,389,947,551,63,340,805,310,55,729,977,23,27,135,595,935,722,818,283,597,15,968,326,470,915,103,578,233,710,206,906,993,484,637,797,711,716,273,726,475,427,810,339,508,646,143,673,851,99,821,732,674,862,994,652,66,75,617,636,598,159,920,260,498,895,808,297,999,136,757,904,46,478,203,921,978,970,946,795,477,488,309,69,888,73,696,881,71,94,331,739,520,250]","arrowleft","","0","14","150","1000","[""0054_N1000_K0150_CLIQUE"",""0033_N1000_K0150_NOCLIQUE""]"
"","","","","","","","","","","","audio-keyboard-response","82","82798","0.0-66.1-0.1-1.1","","","","","","","","null","audio_feedback/shuffles/shuffle01.mp3","null","","","","0","14","150","1000","[""0054_N1000_K0150_CLIQUE"",""0033_N1000_K0150_NOCLIQUE""]"
"","","","","","","","","","","","canvas-keyboard-response","83","84609","0.0-66.2-0.2-0.2","","","","","","","","825",""," ","[477,609,164,417,880,864,161,979,207,922,703,125,252,765,989,680,935,32,309,758,391,231,90,342,421,761,377,857,606,956,486,953,554,414,448,788,26,394,95,303,166,393,292,144,422,787,508,456,668,719,681,172,489,230,844,228,974,542,912,893,22,113,780,905,840,529,250,690,930,528,936,199,283,48,620,184,68,888,635,382,718,154,874,831,229,951,877,580,173,336,579,6,64,425,881,78,820,796,96,94,465,608,859,16,686,503,926,91,837,764,338,105,147,445,773,36,302,353,211,753,349,73,210,432,408,495,235,499,541,471,906,638,878,815,507,340,165,25,637,999,917,869,223,984,306,76,648,13,53,740,106,281,37,267,743,131,243,567,848,767,304,902,213,852,774,665,355,145,976,468,347,971,317,717,700,124,876,426,694,589,488,964,345,289,683,395,603,919,505,440,62,981,114,256,531,535,575,371,800,813,879,461,738,15,590,443,896,678,640,74,177,757,941,140,360,737,803,69,481,462,966,242,310,299,957,618,493,798,494,93,366,886,168,182,451,842,744,149,938,193,321,739,990,372,769,699,167,657,86,516,669,558,747,940,802,474,219,116,44,903,142,23,967,49,540,373,996,368,581,533,385,661,188,754,969,556,847,527,713,423,433,907,708,226,585,328,442,498,853,808,994,630,884,127,939,112,43,101,945,824,467,454,331,370,537,972,476,692,318,616,150,59,605,641,39,89,398,944,337,392,56,487,418,238,180,660,316,545,611,364,158,785,369,807,654,435,424,978,296,257,72,701,357,782,965,441,470,613,619,799,752,954,20,576,714,664,258,768,656,51,867,818,621,731,655,300,632,460,707,564,858,386,75,117,625,313,519,716,786,255,626,931,305,943,190,181,586,71,623,947,77,143,986,688,887,352,693,584,67,192,723,825,781,727,850,628,776,928,453,444,756,30,80,224,762,130,836,682,322,929,751,536,823,599,41,895,856,11,100,841,667,666,924,513,490,279,361,171,463,791,650,358,676,34,115,514,801,814,502,958,549,697,148,334,962,253,975,271,327,272,968,653,689,574,573,733,212,197,828,284,646,324,153,624,297,376,949,265,868,582,763,634,833,407,401,31,710,457,459,344,652,222,333,565,427,636,245,521,617,169,0,553,247,741,695,236,81,587,28,559,704,472,293,411,202,766,27,963,961,524,102,835,500,629,810,97,872,712,485,104,804,42,61,346,196,195,735,711,186,662,955,885,970,285,687,290,58,894,659,416,419,3,997,702,146,865,950,530,208,627,913,189,511,458,198,849,569,822,522,992,730,794,141,839,270,87,594,170,1,685,341,14,50,834,942,266,520,232,438,985,772,260,705,562,383,866,578,721,496,5,156,10,544,362,209,65,381,918,215,259,452,729,904,47,325,273,152,428,633,775,2,473,420,561,777,987,890,571,216,365,784,240,135,46,663,937,315,539,509,914,977,889,829,45,312,439,403,728,598,916,706,871,631,204,159,12,684,870,132,925,523,615,948,597,446,826,9,191,308,431,745,380,973,35,911,875,138,246,593,234,478,792,742,88,909,70,282,748,610,596,60,819,218,910,672,604,709,998,409,927,497,175,378,900,406,434,261,134,17,679,915,237,899,137,722,572,447,384,390,63,225,588,206,128,816,546,450,375,277,838,645,52,187,538,79,122,388,121,332,526,771,54,269,275,262,783,241,479,622,934,674,691,932,111,29,817,862,251,512,504,38,491,83,314,363,991,517,892,399,163,861,845,430,343,298,254,119,789,185,429,220,323,162,264,7,897,389,560,405,126,946,595,855,843,651,484,396,614,923,268,410,670,249,469,797,612,583,400,291,214,591,123,92,404,482,151,326,133,99,696,288,952,221,832,649,66,183,555,809,673,795,110,607,107,330,179,40,98,563,350,518,286,348,863,725,367,501,176,475,779,203,139,174,811,980,982,33,274,898,830,548,415,770,4,846,644,677,359,547,356,543,178,821,201,532,882,568,534,639,379,715,339,413,746,103,483,720,732,988,778,8,319,466,120,294,983,995,129,436,525,320,577,851,278,759,227,464,160,602,873,21,244,570,601,827,933,157,812,351,724,295,643,155,993,805,901,402,200,354,118,658,642,698,552,960,551,760,276,510,263,600,387,84,449,397,671,891,248,921,194,515,374,557,287,85,329,860,233,205,55,301,307,726,311,82,883,854,412,959,335,755,57,592,217,790,437,108,24,734,920,455,19,793,506,18,136,675,480,750,736,492,647,749,566,239,280,806,550,109,908]","arrowleft","","0","14","150","1000","[""0054_N1000_K0150_CLIQUE"",""0033_N1000_K0150_NOCLIQUE""]"
"","","","","","","","","","","","audio-keyboard-response","84","85677","0.0-66.2-0.2-1.2","","","","","","","","null","audio_feedback/shuffles/shuffle01.mp3","null","","","","0","14","150","1000","[""0054_N1000_K0150_CLIQUE"",""0033_N1000_K0150_NOCLIQUE""]"
"","","","","","","","","","","","canvas-keyboard-response","85","86804","0.0-66.3-0.3-0.3","","","","","","","","2",""," ","[90,153,235,629,163,129,317,703,513,935,831,422,626,977,446,501,555,772,169,926,327,309,362,857,682,552,322,536,496,92,45,444,128,880,112,319,276,576,428,430,161,783,251,69,675,649,11,271,147,125,866,231,487,579,984,257,813,332,919,938,267,406,510,146,208,133,402,999,22,643,621,482,236,565,572,94,584,263,590,143,603,89,186,630,252,172,140,606,558,583,33,814,200,910,893,958,274,204,533,329,224,870,957,700,529,923,743,288,180,521,690,624,808,38,963,794,934,434,79,762,710,27,993,511,766,390,145,9,432,985,736,265,575,59,148,81,717,781,2,120,93,827,184,544,205,258,431,784,484,250,30,124,884,77,74,455,582,531,196,461,885,308,171,871,164,475,662,361,221,560,503,751,868,228,538,942,417,512,713,289,553,254,540,623,530,42,299,953,245,968,550,725,937,360,490,87,260,386,110,619,459,421,114,887,586,628,861,84,46,24,368,856,534,728,625,780,973,800,905,748,466,838,689,445,240,443,843,6,505,593,350,849,297,266,795,707,138,174,705,389,979,331,347,376,767,839,142,394,889,293,532,809,117,720,924,969,936,462,336,948,566,763,704,139,91,194,922,341,39,744,894,349,638,574,820,674,961,469,939,52,877,191,352,215,340,773,154,80,426,165,353,141,232,356,959,314,410,442,902,585,36,489,517,836,98,201,597,601,333,527,367,408,387,100,665,416,316,978,600,282,686,956,334,995,991,277,377,796,545,817,130,613,173,834,901,41,881,967,655,642,526,622,683,199,328,76,647,108,372,645,85,865,747,481,750,596,673,31,374,786,559,952,523,26,873,706,759,412,732,275,872,448,587,450,28,468,570,398,477,483,213,300,930,605,891,667,452,671,82,858,54,965,499,920,860,151,816,464,864,270,774,118,456,769,449,789,687,768,485,351,264,847,364,618,840,291,429,989,0,467,617,823,805,407,179,997,7,819,854,640,616,348,494,562,614,10,23,83,4,454,423,202,867,811,695,651,658,661,281,183,688,396,425,295,692,248,304,607,810,321,107,754,106,355,652,554,210,359,32,261,913,115,64,888,996,514,718,111,659,933,627,752,131,755,666,453,104,391,599,155,951,470,945,506,20,502,13,611,874,286,964,285,556,815,739,296,479,734,144,109,833,211,471,988,206,976,16,268,698,699,397,777,631,801,21,229,804,778,676,409,375,123,641,71,243,602,279,782,189,420,896,451,775,841,474,609,591,776,753,478,859,898,157,792,564,51,217,524,798,500,711,34,435,793,439,307,492,320,535,608,983,670,60,47,982,546,366,907,812,908,253,95,722,821,802,656,29,612,441,966,166,19,879,209,203,648,436,709,994,44,197,799,302,697,159,70,195,946,12,981,393,842,787,75,844,845,749,214,837,262,242,900,680,740,950,284,344,415,473,401,418,850,771,371,116,8,909,731,745,358,543,323,547,239,50,757,943,931,929,928,765,818,65,855,298,790,437,343,508,660,57,742,438,357,35,287,167,733,395,337,413,498,382,760,136,712,940,312,636,917,127,342,828,557,78,679,345,563,685,681,911,259,737,741,832,992,495,519,702,764,569,379,72,826,187,914,383,156,848,419,791,906,233,758,290,385,998,381,73,516,227,573,542,715,219,876,561,497,878,921,18,941,43,578,639,346,440,121,399,548,504,788,668,738,724,520,53,177,594,581,198,234,726,846,654,40,103,987,392,721,955,634,882,330,58,237,694,954,509,604,306,980,168,949,185,797,256,869,241,851,779,273,701,975,488,269,735,756,835,568,664,61,365,318,971,916,278,522,539,207,825,335,294,181,863,990,433,122,932,230,37,598,944,915,170,411,134,56,315,892,119,588,303,216,218,272,249,313,632,101,577,672,378,222,970,986,175,730,223,63,403,537,137,696,719,729,178,424,212,912,960,708,447,830,404,875,785,1,102,190,541,669,746,247,220,132,25,472,899,15,595,246,3,325,67,904,589,551,96,515,105,886,188,162,650,615,465,897,460,663,678,97,549,927,644,716,646,635,691,405,824,380,925,86,480,66,126,727,890,363,354,947,829,693,48,14,962,226,903,427,193,283,373,414,5,49,723,152,55,633,384,17,88,770,803,657,528,192,280,301,338,476,68,486,974,580,620,853,149,807,457,806,463,491,339,852,244,822,160,862,113,388,255,895,238,305,507,918,592,370,310,518,150,714,525,324,637,158,567,610,135,99,182,62,883,458,493,653,677,225,571,761,311,972,684,400,176,326,369,292]","arrowleft","","0","14","150","1000","[""0054_N1000_K0150_CLIQUE"",""0033_N1000_K0150_NOCLIQUE""]"
"","","","","","","","","","","","audio-keyboard-response","86","87877","0.0-66.3-0.3-1.3","","","","","","","","null","audio_feedback/shuffles/shuffle01.mp3","null","","","","0","14","150","1000","[""0054_N1000_K0150_CLIQUE"",""0033_N1000_K0150_NOCLIQUE""]"
"","","","","","","","","","","","canvas-keyboard-response","87","89090","0.0-66.4-0.4-0.4","","","","","","","","189",""," ","[166,73,819,210,673,468,721,362,835,777,117,742,347,6,648,396,523,795,416,544,386,101,209,745,860,700,649,713,657,619,802,799,110,679,801,447,557,268,537,957,234,629,903,440,816,397,398,194,940,902,379,84,105,345,187,702,241,279,162,309,893,602,283,130,725,93,770,933,419,829,830,999,80,737,477,340,950,956,282,655,895,364,143,849,329,613,530,425,352,169,976,59,916,409,79,153,39,958,490,427,553,300,393,857,375,837,250,433,349,223,125,160,906,733,112,0,628,890,744,348,200,988,617,872,921,11,840,684,205,240,238,768,535,792,225,680,644,436,699,302,663,269,18,353,251,10,928,864,769,65,272,884,23,55,41,454,794,485,793,131,575,706,630,720,582,141,693,298,506,178,303,599,888,696,759,52,317,156,464,647,179,496,923,36,821,382,165,451,285,72,287,275,603,316,3,462,142,732,461,40,236,595,989,512,670,146,643,959,161,797,235,566,929,507,838,270,94,132,484,229,494,808,488,24,513,407,900,459,31,408,458,554,577,291,545,469,614,948,668,140,632,327,866,482,388,227,532,230,64,286,441,57,257,262,8,862,572,526,277,449,82,341,12,420,20,171,135,754,255,414,355,758,307,346,305,776,53,852,96,66,281,536,314,123,931,489,726,885,83,51,452,918,755,252,318,152,806,56,912,973,313,311,354,909,91,366,54,224,476,762,37,622,321,149,983,970,33,410,736,714,330,564,779,214,256,763,76,174,764,383,517,855,442,813,589,136,113,199,608,964,450,805,788,963,138,334,226,71,703,922,856,491,925,147,781,445,871,901,741,13,810,472,406,914,750,688,708,586,387,467,664,606,834,604,206,312,320,790,861,89,689,247,315,181,924,943,509,115,173,510,190,487,495,969,478,587,615,803,616,831,233,121,481,563,538,609,207,550,650,588,292,641,719,783,116,917,328,159,118,88,62,911,81,843,119,853,2,570,399,232,749,518,836,294,932,846,77,977,167,967,516,678,273,639,1,978,701,791,980,21,102,338,122,339,743,756,785,539,974,634,910,993,569,875,520,263,659,528,280,289,75,571,203,192,374,541,904,561,642,879,994,640,886,735,151,274,926,248,463,479,155,14,692,222,809,653,221,624,164,898,475,439,979,127,50,960,946,937,894,486,878,46,290,598,751,429,667,63,992,899,665,186,435,111,525,498,176,753,623,438,245,97,774,432,365,189,344,326,107,812,765,951,674,851,971,371,411,651,824,58,965,457,995,239,997,60,986,218,782,515,385,204,996,61,310,170,942,266,945,483,228,820,863,417,927,45,552,889,114,185,15,961,212,395,822,213,627,373,367,841,584,95,962,361,259,798,579,551,424,370,636,869,939,503,258,38,887,695,658,384,954,815,301,402,767,324,568,126,804,947,158,9,499,90,377,444,662,559,70,231,86,870,453,208,907,784,403,466,511,859,211,413,739,987,981,48,897,497,505,465,394,982,246,369,972,611,710,69,542,342,502,778,944,404,683,363,686,698,592,953,828,508,800,966,908,766,635,145,652,771,521,380,473,533,646,492,470,605,677,306,626,319,618,98,675,722,620,565,358,87,580,740,527,389,839,423,556,106,567,760,104,581,842,789,941,761,858,177,244,638,16,519,578,325,474,676,184,707,368,738,847,32,332,401,633,772,549,30,78,560,163,576,845,654,934,882,265,825,193,746,786,28,201,49,590,276,775,877,892,293,480,731,826,876,390,500,880,920,796,243,92,391,717,867,671,431,747,773,297,883,42,183,514,343,335,594,242,172,4,202,936,188,434,540,418,727,198,7,985,323,998,817,182,672,428,128,191,874,372,601,85,237,5,446,501,29,780,718,524,574,350,35,217,197,68,253,631,299,522,216,844,690,850,137,704,150,304,421,43,716,157,267,724,807,823,254,905,47,17,103,448,811,455,712,562,955,412,356,949,705,669,868,827,308,728,833,331,694,359,134,426,748,818,100,666,19,44,360,984,734,548,133,34,220,175,681,139,168,99,723,814,991,154,264,848,415,437,691,711,351,607,278,757,405,621,529,543,555,504,685,637,935,284,108,938,215,975,865,593,531,249,296,261,124,534,196,148,378,460,656,333,752,322,129,709,471,180,25,400,583,109,596,120,376,558,919,896,968,443,573,357,288,881,873,660,144,730,26,661,697,67,787,74,729,547,687,422,381,715,913,456,952,612,195,591,27,610,546,915,295,625,392,219,260,337,600,990,493,597,832,645,22,854,682,930,585,336,430,271,891]","arrowleft","","0","14","150","1000","[""0054_N1000_K0150_CLIQUE"",""0033_N1000_K0150_NOCLIQUE""]"
"","","","","","","","","","","","audio-keyboard-response","88","90157","0.0-66.4-0.4-1.4","","","","","","","","null","audio_feedback/shuffles/shuffle01.mp3","null","","","","0","14","150","1000","[""0054_N1000_K0150_CLIQUE"",""0033_N1000_K0150_NOCLIQUE""]"
