"success","timeout","failed_images","failed_audio","failed_video","trial_type","trial_index","time_elapsed","internal_node_id","view_history","rt","stimulus","response","nodes_order","correct_response","graphs_couple","accuracy","block_index","presentation_index","clique_size","graph_size","graphs_names"
"true","false","[]","[]","[]","preload","0","133","0.0-0.0","","","","","","","","","","","","",""
"","","","","","pavlovia","1","525","0.0-1.0","","","","","","","","","","","","",""
"","","","","","instructions","2","30827","0.0-2.0","[{""page_index"":0,""viewing_time"":2194},{""page_index"":1,""viewing_time"":28103}]","30297","","","","","","","","","","",""
"true","false","[]","[]","[]","preload","3","31605","0.0-3.0","","","","","","","","","","","","",""
"","","","","","instructions","4","160028","0.0-4.0","[{""page_index"":0,""viewing_time"":1670},{""page_index"":1,""viewing_time"":1606},{""page_index"":2,""viewing_time"":1073},{""page_index"":3,""viewing_time"":1733},{""page_index"":4,""viewing_time"":2784},{""page_index"":3,""viewing_time"":573},{""page_index"":4,""viewing_time"":556},{""page_index"":3,""viewing_time"":383},{""page_index"":4,""viewing_time"":584},{""page_index"":5,""viewing_time"":2332},{""page_index"":6,""viewing_time"":961},{""page_index"":7,""viewing_time"":1234},{""page_index"":8,""viewing_time"":2094},{""page_index"":9,""viewing_time"":2291},{""page_index"":10,""viewing_time"":1551},{""page_index"":11,""viewing_time"":1095},{""page_index"":12,""viewing_time"":2275},{""page_index"":13,""viewing_time"":1495},{""page_index"":14,""viewing_time"":1733},{""page_index"":15,""viewing_time"":897},{""page_index"":16,""viewing_time"":1022},{""page_index"":17,""viewing_time"":1400},{""page_index"":18,""viewing_time"":1189},{""page_index"":19,""viewing_time"":2961},{""page_index"":20,""viewing_time"":1379},{""page_index"":21,""viewing_time"":2225},{""page_index"":20,""viewing_time"":429},{""page_index"":21,""viewing_time"":437},{""page_index"":20,""viewing_time"":509},{""page_index"":21,""viewing_time"":746},{""page_index"":20,""viewing_time"":725},{""page_index"":21,""viewing_time"":629},{""page_index"":22,""viewing_time"":1915},{""page_index"":23,""viewing_time"":2382},{""page_index"":24,""viewing_time"":1037},{""page_index"":25,""viewing_time"":1430},{""page_index"":26,""viewing_time"":1852},{""page_index"":27,""viewing_time"":3128},{""page_index"":28,""viewing_time"":1697},{""page_index"":29,""viewing_time"":1723},{""page_index"":30,""viewing_time"":1712},{""page_index"":31,""viewing_time"":2442},{""page_index"":32,""viewing_time"":6854},{""page_index"":33,""viewing_time"":1932},{""page_index"":34,""viewing_time"":1194},{""page_index"":33,""viewing_time"":1450},{""page_index"":34,""viewing_time"":2996},{""page_index"":33,""viewing_time"":388},{""page_index"":34,""viewing_time"":489},{""page_index"":33,""viewing_time"":373},{""page_index"":34,""viewing_time"":619},{""page_index"":35,""viewing_time"":2593},{""page_index"":36,""viewing_time"":1782},{""page_index"":37,""viewing_time"":2317},{""page_index"":36,""viewing_time"":428},{""page_index"":37,""viewing_time"":554},{""page_index"":36,""viewing_time"":483},{""page_index"":37,""viewing_time"":690},{""page_index"":36,""viewing_time"":508},{""page_index"":37,""viewing_time"":1541},{""page_index"":38,""viewing_time"":1960},{""page_index"":39,""viewing_time"":3646},{""page_index"":40,""viewing_time"":765},{""page_index"":39,""viewing_time"":947},{""page_index"":40,""viewing_time"":1078},{""page_index"":39,""viewing_time"":1001},{""page_index"":40,""viewing_time"":2055},{""page_index"":41,""viewing_time"":2236},{""page_index"":42,""viewing_time"":2553},{""page_index"":43,""viewing_time"":5634},{""page_index"":44,""viewing_time"":3349},{""page_index"":45,""viewing_time"":4265},{""page_index"":46,""viewing_time"":1557},{""page_index"":47,""viewing_time"":1370},{""page_index"":48,""viewing_time"":1736},{""page_index"":49,""viewing_time"":1316},{""page_index"":50,""viewing_time"":1263},{""page_index"":51,""viewing_time"":2618}]","128423","","","","","","","","","","",""
"","","","","","instructions","5","166599","0.0-5.0","[{""page_index"":0,""viewing_time"":6570}]","6571","","","","","","","","","","",""
"true","false","[]","[]","[]","preload","6","166942","0.0-6.0","","","","","","","","","","","","",""
"","","","","","image-keyboard-response","7","197398","0.0-7.0","","30446","tutorial/task_familiarization_images/part 1/01_N160_K90_cliqueRight_question1.PNG"," ","","","","","","","","",""
"","","","","","image-keyboard-response","8","202276","0.0-8.0","","4877","tutorial/task_familiarization_images/part 1/02_N160_K90_cliqueRight_question2.PNG"," ","","","","","","","","",""
"","","","","","image-keyboard-response","9","210796","0.0-9.0","","8518","tutorial/task_familiarization_images/part 1/03_N160_K90_cliqueRight_question3.PNG","arrowright","","","","","","","","",""
"","","","","","image-keyboard-response","10","212699","0.0-10.0","","1900","tutorial/task_familiarization_images/part 1/04_N160_K90_cliqueRight_solution.PNG"," ","","","","","","","","",""
"","","","","","image-keyboard-response","11","215719","0.0-11.0","","3018","tutorial/task_familiarization_images/part 1/05_N160_K65_cliqueRight_question1.PNG"," ","","","","","","","","",""
"","","","","","image-keyboard-response","12","217326","0.0-12.0","","1606","tutorial/task_familiarization_images/part 1/06_N160_K65_cliqueRight_question2.PNG"," ","","","","","","","","",""
"","","","","","image-keyboard-response","13","218379","0.0-13.0","","1051","tutorial/task_familiarization_images/part 1/07_N160_K65_cliqueRight_question3.PNG","arrowright","","","","","","","","",""
"","","","","","image-keyboard-response","14","219210","0.0-14.0","","829","tutorial/task_familiarization_images/part 1/08_N160_K65_cliqueRight_solution.PNG"," ","","","","","","","","",""
"","","","","","image-keyboard-response","15","221747","0.0-15.0","","2536","tutorial/task_familiarization_images/part 1/09_N160_K50_cliqueLeft_question1.PNG"," ","","","","","","","","",""
"","","","","","image-keyboard-response","16","223369","0.0-16.0","","1620","tutorial/task_familiarization_images/part 1/10_N160_K50_cliqueLeft_question2.PNG"," ","","","","","","","","",""
"","","","","","image-keyboard-response","17","224809","0.0-17.0","","1439","tutorial/task_familiarization_images/part 1/11_N160_K50_cliqueLeft_question3.PNG","arrowleft","","","","","","","","",""
"","","","","","image-keyboard-response","18","226455","0.0-18.0","","1645","tutorial/task_familiarization_images/part 1/12_N160_K50_cliqueLeft_solution.PNG"," ","","","","","","","","",""
"","","","","","image-keyboard-response","19","228298","0.0-19.0","","1841","tutorial/task_familiarization_images/part 1/13_N160_K80_cliqueLeft_question1.PNG"," ","","","","","","","","",""
"","","","","","image-keyboard-response","20","229306","0.0-20.0","","1007","tutorial/task_familiarization_images/part 1/14_N160_K80_cliqueLeft_question2.PNG"," ","","","","","","","","",""
"","","","","","image-keyboard-response","21","230579","0.0-21.0","","1272","tutorial/task_familiarization_images/part 1/15_N160_K80_cliqueLeft_question3.PNG","arrowleft","","","","","","","","",""
"","","","","","image-keyboard-response","22","231431","0.0-22.0","","851","tutorial/task_familiarization_images/part 1/16_N160_K80_cliqueLeft_solution.PNG"," ","","","","","","","","",""
"","","","","","image-keyboard-response","23","233590","0.0-23.0","","2158","tutorial/task_familiarization_images/part 1/17_N160_K40_cliqueRight_question1.PNG"," ","","","","","","","","",""
"","","","","","image-keyboard-response","24","234981","0.0-24.0","","1389","tutorial/task_familiarization_images/part 1/18_N160_K40_cliqueRight_question2.PNG"," ","","","","","","","","",""
"","","","","","image-keyboard-response","25","236072","0.0-25.0","","1090","tutorial/task_familiarization_images/part 1/19_N160_K40_cliqueRight_question3.PNG","arrowright","","","","","","","","",""
"","","","","","image-keyboard-response","26","237166","0.0-26.0","","1092","tutorial/task_familiarization_images/part 1/20_N160_K40_cliqueRight_solution.PNG"," ","","","","","","","","",""
"","","","","","image-keyboard-response","27","238711","0.0-27.0","","1544","tutorial/task_familiarization_images/part 1/21_N160_K70_cliqueLeft_question1.PNG"," ","","","","","","","","",""
"","","","","","image-keyboard-response","28","240352","0.0-28.0","","1639","tutorial/task_familiarization_images/part 1/22_N160_K70_cliqueLeft_question2.PNG"," ","","","","","","","","",""
"","","","","","image-keyboard-response","29","241410","0.0-29.0","","1057","tutorial/task_familiarization_images/part 1/23_N160_K70_cliqueLeft_question3.PNG","arrowleft","","","","","","","","",""
"","","","","","image-keyboard-response","30","242388","0.0-30.0","","976","tutorial/task_familiarization_images/part 1/24_N160_K70_cliqueLeft_solution.PNG"," ","","","","","","","","",""
"true","false","[]","[]","[]","preload","31","243183","0.0-31.0","","","","","","","","","","","","",""
"","","","","","image-keyboard-response","32","251054","0.0-32.0","","7870","tutorial/task_familiarization_images/part 2/01_160_80_cliqueLeft_withFeedback_1.PNG"," ","","","","","","","","",""
"","","","","","image-keyboard-response","33","256149","0.0-33.0","","5094","tutorial/task_familiarization_images/part 2/02_160_80_cliqueLeft_withFeedback_1.PNG"," ","","","","","","","","",""
"","","","","","image-keyboard-response","34","257327","0.0-34.0","","1177","tutorial/task_familiarization_images/part 2/03_160_80_cliqueLeft_withFeedback_3.PNG","arrowleft","","","","","","","","",""
"","","","","","image-keyboard-response","35","259059","0.0-35.0","","1730","tutorial/task_familiarization_images/part 2/04_160_80_cliqueLeft_withFeedback_correct.PNG"," ","","","","","","","","",""
"","","","","","image-keyboard-response","36","262629","0.0-36.0","","3569","tutorial/task_familiarization_images/part 2/05_160_55_cliqueRight_withFeedback_1.PNG"," ","","","","","","","","",""
"","","","","","image-keyboard-response","37","266381","0.0-37.0","","3752","tutorial/task_familiarization_images/part 2/06_160_55_cliqueRight_withFeedback_2.PNG"," ","","","","","","","","",""
"","","","","","image-keyboard-response","38","267740","0.0-38.0","","1358","tutorial/task_familiarization_images/part 2/07_160_55_cliqueRight_withFeedback_3.PNG","arrowright","","","","","","","","",""
"","","","","","image-keyboard-response","39","271965","0.0-39.0","","4224","tutorial/task_familiarization_images/part 2/08_160_55_cliqueRight_withFeedback_correct.PNG"," ","","","","","","","","",""
"","","","","","image-keyboard-response","40","280485","0.0-40.0","","8518","tutorial/task_familiarization_images/part 2/09_160_70_cliqueLeft_withFeedback_1.PNG"," ","","","","","","","","",""
"","","","","","image-keyboard-response","41","283175","0.0-41.0","","2689","tutorial/task_familiarization_images/part 2/10_160_70_cliqueLeft_withFeedback_2.PNG"," ","","","","","","","","",""
"","","","","","image-keyboard-response","42","284242","0.0-42.0","","1066","tutorial/task_familiarization_images/part 2/11_160_70_cliqueLeft_withFeedback_3.PNG","arrowleft","","","","","","","","",""
"","","","","","image-keyboard-response","43","287409","0.0-43.0","","3165","tutorial/task_familiarization_images/part 2/12_160_70_cliqueLeft_withFeedback_correct.PNG"," ","","","","","","","","",""
"","","","","","survey-html-form","44","293140","0.0-44.0","","5729","","{""gender"":""female"",""age"":""23""}","","","","","","","","",""
"","","","","","instructions","45","302818","0.0-45.0","[{""page_index"":0,""viewing_time"":9677}]","9678","","","","","","","","","","",""
"true","","","","","fullscreen","46","305697","0.0-47.0","","","","","","","","","","","","",""
"","","","","","canvas-keyboard-response","47","309938","0.0-48.0-0.0-0.0","","4143","","arrowleft","[105,21,31,85,253,7,141,192,116,128,65,258,94,211,295,53,219,206,184,125,34,159,1,264,131,241,294,187,28,170,235,204,236,180,290,115,213,185,15,101,22,293,182,225,82,139,87,207,47,102,62,226,197,287,220,78,96,117,275,216,166,251,83,282,272,126,146,163,169,202,217,193,262,263,269,95,121,179,26,259,218,59,70,250,25,189,90,23,39,134,273,11,71,183,64,242,195,42,299,288,76,133,198,158,222,66,9,67,223,237,107,201,277,145,92,98,14,124,238,103,118,108,265,13,276,196,4,239,91,114,44,244,278,99,74,56,32,172,50,75,230,289,292,210,147,271,18,240,135,291,254,43,19,97,106,164,40,274,283,150,176,247,127,208,24,155,267,190,89,6,188,132,61,112,296,30,268,224,191,69,194,46,38,37,142,212,228,41,100,79,5,143,136,152,156,144,286,10,157,153,256,200,214,266,243,0,171,58,35,20,88,27,215,245,229,246,51,120,109,221,149,168,54,205,232,209,148,260,123,48,8,165,279,186,173,252,151,231,73,36,17,57,80,174,86,12,29,3,161,227,49,138,137,178,162,261,270,249,111,281,33,255,81,154,181,177,45,248,284,2,60,16,203,167,77,298,55,113,233,63,175,160,110,130,122,52,84,297,68,104,257,285,129,234,119,93,72,140,199,280]","arrowleft","","true","0","0","90","300","[""0021_N0300_K0090_CLIQUE"",""0065_N0300_K0090_NOCLIQUE""]"
"","","","","","audio-keyboard-response","48","310568","0.0-48.0-0.0-1.0","","null","audio_feedback/right/coin01.mp3","null","","","","","0","0","90","300","[""0021_N0300_K0090_CLIQUE"",""0065_N0300_K0090_NOCLIQUE""]"
"","","","","","canvas-keyboard-response","49","312249","0.0-49.0-0.0-0.0","","1590","","arrowright","[198,18,4,146,50,169,65,148,285,164,165,22,150,64,266,42,13,74,179,78,241,105,199,291,262,11,23,248,124,84,103,109,160,75,46,88,234,297,223,178,2,298,106,41,242,72,225,255,104,263,237,73,15,12,253,31,16,218,144,131,238,116,54,35,128,296,132,226,91,275,222,20,217,239,259,45,229,154,244,171,177,215,95,203,140,200,219,133,197,6,47,172,228,151,102,57,189,82,287,87,48,258,193,112,161,38,170,181,243,92,122,186,168,85,211,58,201,135,69,19,273,208,145,236,5,271,299,130,101,294,277,36,113,188,14,252,279,121,149,155,254,30,204,196,59,182,44,118,108,83,282,260,141,71,268,34,94,247,115,120,267,49,202,233,205,232,162,284,156,269,250,53,163,10,195,114,139,27,292,183,235,123,138,61,129,127,39,32,289,240,77,147,157,136,176,264,257,96,68,143,40,100,231,66,126,70,206,98,214,43,274,80,180,227,51,90,246,25,213,81,191,166,192,251,99,278,212,286,288,56,76,28,173,125,67,207,153,9,249,37,3,7,270,55,281,134,52,210,272,152,89,261,8,209,175,111,221,190,60,159,93,142,283,295,1,245,110,224,280,119,62,290,256,17,63,0,276,220,97,174,230,187,265,185,33,21,194,167,26,79,158,24,86,293,107,29,216,184,117,137]","arrowright","","true","0","1","90","300","[""0036_N0300_K0090_NOCLIQUE"",""0040_N0300_K0090_CLIQUE""]"
"","","","","","audio-keyboard-response","50","312668","0.0-49.0-0.0-1.0","","null","audio_feedback/right/coin01.mp3","null","","","","","0","1","90","300","[""0036_N0300_K0090_NOCLIQUE"",""0040_N0300_K0090_CLIQUE""]"
"","","","","","canvas-keyboard-response","51","315142","0.0-50.0-0.0-0.0","","2394","","arrowleft","[58,142,252,266,126,267,230,91,42,180,78,105,265,155,97,30,77,47,212,254,16,206,188,223,112,7,197,70,298,107,179,56,158,233,241,55,156,140,87,76,102,75,231,117,244,118,13,65,103,192,203,104,218,99,284,89,219,43,19,204,81,164,293,98,168,5,181,161,119,14,151,129,290,201,176,26,146,174,57,121,54,261,41,48,242,215,262,153,35,238,137,106,145,182,25,34,214,0,22,279,110,94,190,170,29,67,148,4,222,83,257,92,144,82,281,123,52,122,205,152,196,260,130,72,268,273,271,95,195,221,27,245,263,295,236,216,250,272,28,213,237,157,162,128,227,59,120,177,66,208,37,127,138,225,125,12,109,33,211,141,24,61,256,134,166,200,278,189,228,74,291,44,147,10,287,296,202,49,51,45,274,160,270,255,8,69,64,191,85,280,9,40,21,253,198,258,116,247,199,80,187,114,60,139,133,165,132,210,32,172,297,283,1,240,234,131,36,277,39,249,171,46,2,232,68,282,224,285,73,6,243,62,136,53,101,207,178,71,63,294,159,108,186,135,209,88,50,38,226,275,154,239,276,185,220,169,90,79,288,183,217,259,175,18,264,235,93,115,3,173,248,100,292,150,246,17,269,167,149,111,23,11,86,20,113,31,143,163,96,184,229,193,299,124,286,84,15,194,289,251]","arrowleft","","true","0","2","80","300","[""0014_N0300_K0080_CLIQUE"",""0050_N0300_K0080_NOCLIQUE""]"
"","","","","","audio-keyboard-response","52","315548","0.0-50.0-0.0-1.0","","null","audio_feedback/right/coin01.mp3","null","","","","","0","2","80","300","[""0014_N0300_K0080_CLIQUE"",""0050_N0300_K0080_NOCLIQUE""]"
"","","","","","canvas-keyboard-response","53","318212","0.0-51.0-0.0-0.0","","2589","","arrowleft","[130,115,216,7,119,236,106,123,263,270,98,138,182,62,253,237,63,212,74,14,272,53,69,231,228,285,174,202,78,48,42,157,292,93,77,293,58,200,213,204,254,170,156,274,66,72,131,167,11,8,273,149,141,36,120,91,112,176,271,19,71,142,68,29,38,96,290,193,94,139,194,145,188,30,124,17,279,99,222,187,262,143,234,118,258,126,197,203,164,54,296,109,259,89,100,134,125,155,82,15,286,135,146,251,9,260,43,46,150,59,87,16,261,32,144,27,83,281,80,233,242,56,291,198,85,148,117,250,108,161,64,241,218,244,105,269,136,190,152,168,264,282,246,159,227,76,95,0,195,295,257,175,173,121,101,51,90,122,97,179,163,196,25,57,181,299,166,79,103,223,70,267,158,65,6,52,220,26,33,133,208,165,278,225,20,283,137,256,239,297,248,226,215,2,162,18,277,140,255,110,102,47,24,249,191,86,41,92,252,13,219,288,104,128,186,45,276,55,73,192,177,209,44,39,1,266,268,22,287,3,88,169,31,189,210,206,61,280,201,298,211,245,153,238,247,37,10,34,23,132,67,265,114,28,224,214,151,81,180,221,172,35,12,5,111,183,116,232,289,107,184,4,294,243,154,60,129,160,235,230,127,147,217,49,21,171,284,84,113,207,178,205,240,185,229,275,75,50,199,40]","arrowleft","","true","0","3","80","300","[""0065_N0300_K0080_CLIQUE"",""0034_N0300_K0080_NOCLIQUE""]"
"","","","","","audio-keyboard-response","54","318629","0.0-51.0-0.0-1.0","","null","audio_feedback/right/coin01.mp3","null","","","","","0","3","80","300","[""0065_N0300_K0080_CLIQUE"",""0034_N0300_K0080_NOCLIQUE""]"
"","","","","","canvas-keyboard-response","55","321237","0.0-52.0-0.0-0.0","","2536","","arrowleft","[292,262,147,187,94,128,183,159,71,200,99,237,161,28,141,284,287,131,221,254,149,11,119,100,142,73,208,209,280,52,226,281,251,86,7,272,44,265,210,50,18,20,215,89,98,137,107,235,76,64,195,122,57,203,110,296,67,164,295,8,155,173,31,51,172,117,140,228,199,126,96,105,116,239,102,268,189,75,146,59,92,283,227,15,184,274,14,218,234,278,63,156,158,118,231,23,78,245,186,204,91,253,248,19,224,269,16,32,236,53,130,276,68,42,196,206,27,194,193,55,93,21,133,201,178,80,0,163,10,297,250,175,79,282,114,260,69,154,127,138,179,5,120,211,225,34,174,153,81,37,125,129,258,230,165,180,242,134,33,160,95,62,121,88,246,6,207,214,40,270,293,267,106,101,279,205,157,216,169,111,60,213,290,17,182,72,26,144,298,9,112,1,83,170,261,77,84,192,285,54,197,45,291,65,151,294,39,177,219,113,30,136,43,252,108,286,22,41,247,171,289,70,38,181,115,145,255,132,90,139,58,46,97,150,13,190,35,229,47,166,12,202,240,233,85,217,198,148,2,241,82,4,277,275,244,167,257,249,152,87,288,220,48,273,36,103,259,263,256,299,176,271,223,185,266,56,74,168,188,135,104,124,109,212,162,66,24,222,243,123,264,49,238,232,29,143,25,61,191,3]","arrowleft","","true","0","4","70","300","[""0011_N0300_K0070_CLIQUE"",""0080_N0300_K0070_NOCLIQUE""]"
"","","","","","audio-keyboard-response","56","321648","0.0-52.0-0.0-1.0","","null","audio_feedback/right/coin01.mp3","null","","","","","0","4","70","300","[""0011_N0300_K0070_CLIQUE"",""0080_N0300_K0070_NOCLIQUE""]"
"","","","","","canvas-keyboard-response","57","323432","0.0-53.0-0.0-0.0","","1713","","arrowright","[200,43,199,252,87,287,138,245,187,102,277,20,18,225,71,203,260,189,141,128,3,210,176,125,147,2,293,42,241,270,292,229,204,279,231,275,230,286,161,21,28,280,262,250,17,47,126,237,37,22,142,94,177,296,232,112,118,268,108,91,41,134,271,104,261,205,249,46,178,215,105,195,111,198,82,258,85,259,63,227,146,274,174,58,153,121,96,238,196,182,11,117,276,214,40,98,164,179,242,295,193,284,192,89,197,140,38,86,156,39,56,14,234,36,83,150,53,103,272,253,221,120,76,217,114,130,162,144,255,222,101,267,263,113,12,4,34,31,169,216,223,152,74,32,27,135,109,92,124,188,288,115,143,158,228,1,243,16,119,35,137,202,50,66,172,6,298,256,77,151,184,264,299,236,80,68,157,246,70,291,129,55,90,15,97,84,5,244,175,123,107,61,190,159,183,136,194,110,239,211,257,181,73,24,226,29,59,297,191,160,19,57,145,78,219,251,290,235,273,65,132,167,116,220,49,254,166,155,25,165,154,69,62,64,213,8,7,93,88,224,285,48,52,10,248,168,75,201,294,72,13,281,171,207,278,100,51,208,185,163,131,127,240,23,148,180,26,0,67,30,206,209,9,54,173,99,139,283,60,186,45,218,265,122,95,44,33,133,233,282,170,266,149,106,289,247,79,212,269,81]","arrowright","","true","0","5","70","300","[""0008_N0300_K0070_NOCLIQUE"",""0038_N0300_K0070_CLIQUE""]"
"","","","","","audio-keyboard-response","58","323848","0.0-53.0-0.0-1.0","","null","audio_feedback/right/coin01.mp3","null","","","","","0","5","70","300","[""0008_N0300_K0070_NOCLIQUE"",""0038_N0300_K0070_CLIQUE""]"
"","","","","","canvas-keyboard-response","59","326505","0.0-54.0-0.0-0.0","","2580","","arrowright","[285,72,198,136,90,278,276,186,148,238,193,273,118,165,154,251,242,237,289,157,286,247,152,123,151,60,155,161,54,43,194,27,222,197,298,203,252,190,240,199,105,20,86,169,288,257,246,14,220,21,50,284,141,30,84,89,126,187,77,258,4,228,204,16,233,267,173,95,0,45,24,7,176,18,93,200,79,219,223,35,58,33,68,221,113,211,28,53,57,189,127,145,261,99,88,31,41,191,6,277,146,129,10,78,2,210,248,253,9,42,17,46,217,196,290,44,5,137,250,150,70,96,299,135,294,81,116,56,249,279,119,171,292,287,297,12,254,224,49,114,100,120,268,181,144,205,153,143,124,180,40,109,66,65,112,34,63,214,179,115,138,11,269,140,296,291,91,55,212,202,266,280,275,139,265,23,106,182,149,235,263,110,172,61,1,295,271,230,256,188,69,125,166,283,167,226,245,162,73,80,15,282,111,178,262,32,75,121,206,108,272,132,19,164,227,183,67,264,142,231,260,107,92,22,122,134,163,293,36,159,38,241,47,51,104,156,175,133,243,62,94,97,177,29,128,101,37,234,192,39,170,259,103,71,158,270,274,208,13,52,102,87,216,85,229,98,239,215,236,131,82,130,59,207,201,174,26,225,255,117,195,209,48,184,281,147,83,185,218,64,3,76,8,168,160,25,74,213,232,244]","arrowright","","true","0","6","65","300","[""0002_N0300_K0065_NOCLIQUE"",""0003_N0300_K0065_CLIQUE""]"
"","","","","","audio-keyboard-response","60","326928","0.0-54.0-0.0-1.0","","null","audio_feedback/right/coin01.mp3","null","","","","","0","6","65","300","[""0002_N0300_K0065_NOCLIQUE"",""0003_N0300_K0065_CLIQUE""]"
"","","","","","canvas-keyboard-response","61","329082","0.0-55.0-0.0-0.0","","2079","","arrowright","[105,147,85,255,174,280,90,158,93,171,209,13,145,191,192,43,31,149,194,259,245,98,102,269,150,19,49,161,214,116,199,84,10,142,60,238,152,37,148,170,240,264,4,154,248,258,181,263,286,35,139,120,115,114,208,230,169,117,159,22,140,188,193,74,202,99,5,184,281,262,40,153,78,275,127,198,292,46,268,76,51,197,251,44,271,177,58,118,227,134,241,25,132,244,29,16,223,276,265,87,55,289,111,17,106,146,67,92,80,216,14,260,70,88,104,201,277,81,261,130,242,65,164,190,125,215,71,298,196,186,63,180,257,20,79,121,283,21,288,12,34,64,66,86,23,187,107,39,185,119,100,183,112,95,207,256,75,109,237,189,178,296,179,175,45,195,143,133,33,52,59,295,182,266,165,61,7,91,94,221,225,254,96,162,167,126,166,42,56,97,122,239,11,9,224,284,62,54,234,203,6,229,137,41,53,220,246,273,28,231,291,279,212,30,1,144,297,3,136,18,232,108,235,270,141,82,272,26,36,110,290,138,250,200,233,287,213,172,32,89,236,124,27,157,69,217,293,48,206,274,129,103,155,8,0,113,128,168,73,50,278,123,253,163,173,38,204,218,267,228,135,151,57,299,77,252,101,156,226,131,72,176,247,83,205,219,222,249,160,24,68,211,47,294,243,210,282,2,285,15]","arrowright","","true","0","7","65","300","[""0041_N0300_K0065_NOCLIQUE"",""0017_N0300_K0065_CLIQUE""]"
"","","","","","audio-keyboard-response","62","329489","0.0-55.0-0.0-1.0","","null","audio_feedback/right/coin01.mp3","null","","","","","0","7","65","300","[""0041_N0300_K0065_NOCLIQUE"",""0017_N0300_K0065_CLIQUE""]"
"","","","","","canvas-keyboard-response","63","332396","0.0-56.0-0.0-0.0","","2826",""," ","[172,255,245,237,150,187,27,32,61,298,193,178,25,228,149,57,177,77,58,103,83,78,287,211,130,239,108,240,185,253,124,203,138,92,157,273,16,268,41,208,271,74,241,181,68,136,291,202,56,248,222,264,110,176,242,90,52,81,114,238,154,195,102,140,123,189,10,169,65,8,75,31,109,216,277,198,0,21,134,117,116,199,55,252,299,115,48,275,165,119,209,190,29,37,258,86,97,180,145,213,101,282,34,14,153,232,224,88,276,82,120,113,22,7,139,155,67,84,289,184,295,204,170,280,141,122,12,13,17,151,270,183,261,73,279,125,288,44,217,214,174,2,112,137,218,128,205,231,235,91,100,162,296,250,19,229,104,168,99,4,175,5,80,221,38,227,263,281,220,194,219,210,72,200,297,98,147,49,256,272,260,53,144,293,111,133,33,294,135,66,234,79,62,59,285,152,54,45,131,42,186,196,95,207,106,23,192,254,46,64,89,266,40,70,274,161,85,284,142,246,159,292,126,69,167,249,223,290,243,286,15,257,173,225,164,236,212,233,182,166,71,267,129,26,262,132,197,24,278,63,96,188,94,60,230,76,47,259,3,35,158,118,93,201,18,51,191,146,105,179,20,50,6,87,283,9,269,215,11,171,244,28,163,30,39,251,226,43,1,143,206,247,265,121,160,156,36,148,107,127]","arrowleft","","","0","8","60","300","[""0006_N0300_K0060_CLIQUE"",""0019_N0300_K0060_NOCLIQUE""]"
"","","","","","audio-keyboard-response","64","332989","0.0-56.0-0.0-1.0","","null","audio_feedback/shuffles/shuffle01.mp3","null","","","","","0","8","60","300","[""0006_N0300_K0060_CLIQUE"",""0019_N0300_K0060_NOCLIQUE""]"
"","","","","","canvas-keyboard-response","65","336789","0.0-56.1-0.1-0.1","","3725",""," ","[229,207,174,11,279,197,99,278,126,166,244,292,164,132,57,2,129,88,30,190,137,119,89,61,105,34,131,210,298,185,39,93,63,82,118,223,114,24,291,64,179,67,187,274,283,139,165,13,153,41,201,9,180,8,90,7,117,239,106,103,269,231,238,192,79,155,272,195,142,170,150,264,25,52,0,162,44,29,282,1,158,110,295,286,218,26,107,297,70,209,235,234,280,241,200,71,177,178,37,10,193,47,204,273,148,96,23,3,248,36,163,27,232,160,268,91,100,253,176,284,263,214,157,261,281,21,290,265,289,221,250,102,242,74,159,188,213,121,133,116,191,277,76,59,20,233,80,60,72,75,199,196,109,19,226,55,53,285,293,51,202,33,271,259,18,181,173,15,83,169,151,217,143,299,46,249,194,167,189,275,140,104,203,16,296,127,262,120,12,43,270,287,95,225,276,228,14,94,161,267,124,68,113,254,247,123,130,42,216,40,147,206,227,182,136,31,84,205,5,4,112,66,56,138,115,98,258,294,266,184,111,81,87,69,255,240,288,86,219,134,215,38,78,6,220,251,243,54,246,17,211,252,77,62,28,230,73,156,149,85,186,65,144,172,237,122,22,208,212,257,135,145,125,222,260,32,152,175,97,256,48,58,141,35,128,92,45,101,146,224,154,183,236,168,49,50,198,171,245,108]","arrowleft","","","0","8","60","300","[""0006_N0300_K0060_CLIQUE"",""0019_N0300_K0060_NOCLIQUE""]"
"","","","","","audio-keyboard-response","66","337369","0.0-56.1-0.1-1.1","","null","audio_feedback/shuffles/shuffle01.mp3","null","","","","","0","8","60","300","[""0006_N0300_K0060_CLIQUE"",""0019_N0300_K0060_NOCLIQUE""]"
"","","","","","canvas-keyboard-response","67","338499","0.0-56.2-0.2-0.2","","1060","","arrowright","[220,21,80,33,95,167,7,287,150,239,146,130,68,160,32,214,37,44,274,276,200,84,159,169,264,118,207,131,191,263,62,88,25,19,93,34,134,17,13,89,196,251,284,194,281,69,178,65,16,165,114,87,105,271,295,242,58,173,297,15,53,41,248,267,293,27,66,47,113,269,218,285,0,275,164,186,238,79,30,259,148,116,64,215,168,109,126,286,188,49,18,107,120,171,156,51,221,108,52,227,183,161,245,71,20,74,224,91,85,42,152,10,142,182,100,127,29,35,291,226,122,3,61,45,222,234,119,213,147,177,151,8,211,233,132,283,136,290,201,199,143,209,176,82,257,189,5,12,38,210,197,237,180,99,208,154,231,104,54,204,125,60,174,212,31,253,77,246,258,202,23,98,217,256,254,268,2,179,243,140,141,55,240,4,225,262,230,81,184,124,46,97,181,72,78,175,28,298,232,236,101,162,193,229,216,299,219,43,277,50,172,63,247,56,110,135,235,6,24,296,250,261,205,102,294,244,121,255,185,94,115,76,36,288,117,133,137,198,249,252,128,83,203,70,139,278,163,11,112,67,96,223,111,75,273,92,26,73,228,266,195,241,14,138,48,86,59,282,166,153,106,9,149,292,57,280,145,22,192,1,187,279,155,157,190,129,270,144,123,260,289,39,103,90,158,206,265,272,170,40]","arrowleft","","false","0","8","60","300","[""0006_N0300_K0060_CLIQUE"",""0019_N0300_K0060_NOCLIQUE""]"
"","","","","","audio-keyboard-response","68","339108","0.0-56.2-0.2-1.2","","null","audio_feedback/wrong/error01.mp3","null","","","","","0","8","60","300","[""0006_N0300_K0060_CLIQUE"",""0019_N0300_K0060_NOCLIQUE""]"
"","","","","","canvas-keyboard-response","69","340669","0.0-57.0-0.0-0.0","","1490","","arrowright","[183,184,289,201,252,157,159,30,151,203,253,295,32,193,251,162,224,179,18,176,19,166,61,28,182,141,107,226,161,52,158,293,216,202,78,77,234,257,73,180,244,89,51,125,45,5,72,62,261,146,21,39,95,134,240,233,153,284,12,194,225,108,190,228,81,121,215,44,242,220,243,120,221,249,237,160,2,33,122,270,163,204,123,131,48,136,174,238,97,281,128,14,273,65,46,259,256,10,63,181,278,232,209,119,71,24,50,110,11,254,197,167,92,140,47,217,85,82,69,29,31,130,96,88,199,132,70,129,250,74,98,245,175,178,230,116,83,168,25,229,101,139,3,239,113,124,84,41,76,105,196,185,282,207,148,66,189,263,235,264,258,142,35,291,246,27,210,227,60,23,292,80,186,22,43,262,59,144,192,294,173,150,267,171,67,104,34,126,112,172,274,127,188,117,16,90,115,222,298,109,149,75,133,1,198,100,111,94,266,241,236,118,290,13,297,87,280,286,191,299,155,7,56,279,147,213,114,103,283,93,255,15,58,164,0,135,57,106,154,275,195,6,211,296,277,143,99,248,218,288,17,156,231,54,206,260,9,40,38,37,79,68,247,212,205,64,53,42,177,8,165,269,200,265,145,208,169,91,102,55,4,152,268,219,49,276,86,187,138,20,271,36,223,287,170,214,285,137,26,272]","arrowright","","true","0","9","60","300","[""0014_N0300_K0060_NOCLIQUE"",""0065_N0300_K0060_CLIQUE""]"
"","","","","","audio-keyboard-response","70","341089","0.0-57.0-0.0-1.0","","null","audio_feedback/right/coin01.mp3","null","","","","","0","9","60","300","[""0014_N0300_K0060_NOCLIQUE"",""0065_N0300_K0060_CLIQUE""]"
"","","","","","canvas-keyboard-response","71","344098","0.0-58.0-0.0-0.0","","2933","","arrowleft","[103,201,104,46,61,131,172,273,288,289,195,42,127,55,256,221,226,245,287,159,114,6,85,43,258,54,121,106,189,297,28,86,160,155,170,29,74,291,44,280,33,63,116,173,233,120,264,198,49,56,275,137,81,224,151,295,68,97,158,182,156,183,269,171,84,259,207,109,174,188,122,211,163,99,194,261,251,57,89,117,87,267,60,107,59,162,199,257,72,187,237,10,123,153,164,19,70,285,293,254,260,2,168,52,138,0,30,141,79,83,252,53,271,78,82,180,268,112,115,16,262,210,265,220,132,143,243,8,299,227,90,175,161,290,64,216,5,67,65,21,134,18,91,47,17,294,119,241,178,126,154,11,3,25,24,203,110,101,196,205,113,191,213,292,95,212,298,234,34,167,250,128,76,9,39,15,62,20,236,286,263,93,140,139,223,105,4,239,232,150,35,200,69,192,242,100,281,142,146,51,124,77,102,266,118,50,181,135,219,40,149,80,190,231,152,215,88,26,23,36,22,193,177,32,230,248,58,296,185,283,279,276,282,165,45,148,228,111,75,169,235,144,179,218,255,225,272,240,41,92,98,253,284,157,66,130,202,166,274,13,277,37,7,14,1,229,244,147,209,125,133,73,38,145,247,96,48,176,249,136,208,270,222,71,206,12,238,278,217,184,204,246,94,31,108,129,186,214,27,197]","arrowleft","","true","0","10","55","300","[""0088_N0300_K0055_CLIQUE"",""0061_N0300_K0055_NOCLIQUE""]"
"","","","","","audio-keyboard-response","72","344508","0.0-58.0-0.0-1.0","","null","audio_feedback/right/coin01.mp3","null","","","","","0","10","55","300","[""0088_N0300_K0055_CLIQUE"",""0061_N0300_K0055_NOCLIQUE""]"
"","","","","","canvas-keyboard-response","73","347291","0.0-59.0-0.0-0.0","","2709","","arrowright","[138,46,91,68,125,59,14,28,253,201,142,189,24,116,98,10,30,81,235,204,7,106,224,100,109,210,152,123,298,144,181,215,65,20,42,135,55,19,27,75,200,207,236,270,74,193,39,227,131,248,264,218,197,37,97,38,67,35,245,143,162,299,263,78,228,62,282,238,111,128,176,267,136,216,103,96,50,83,169,274,212,80,132,179,163,209,168,53,272,16,177,85,89,160,154,280,5,66,34,2,198,283,231,284,56,277,211,12,157,23,73,113,259,288,31,147,104,13,244,273,9,188,173,32,88,72,237,226,36,90,47,243,279,25,108,246,137,234,11,0,44,149,22,286,133,172,195,114,278,287,184,82,156,222,180,159,21,95,118,221,107,292,153,260,290,127,70,202,122,99,121,1,164,6,79,76,71,170,171,94,194,26,52,61,242,140,208,3,251,124,213,239,8,145,18,214,285,165,297,40,281,57,265,196,295,275,240,155,63,86,175,257,183,15,166,134,268,293,217,233,148,139,17,276,294,102,266,190,150,232,126,92,130,4,187,161,229,146,178,255,54,252,254,269,230,115,203,206,296,105,250,258,223,69,93,110,185,64,158,199,29,101,167,241,48,225,112,119,129,117,192,291,51,220,58,33,77,174,261,219,289,151,256,182,247,120,205,84,262,45,271,191,43,60,186,87,249,41,49,141]","arrowright","","true","0","11","55","300","[""0005_N0300_K0055_NOCLIQUE"",""0053_N0300_K0055_CLIQUE""]"
"","","","","","audio-keyboard-response","74","347708","0.0-59.0-0.0-1.0","","null","audio_feedback/right/coin01.mp3","null","","","","","0","11","55","300","[""0005_N0300_K0055_NOCLIQUE"",""0053_N0300_K0055_CLIQUE""]"
"","","","","","canvas-keyboard-response","75","349577","0.0-60.0-0.0-0.0","","1799","","arrowleft","[158,292,239,249,205,245,153,256,132,213,16,272,119,103,72,182,218,151,18,112,7,127,260,70,35,11,149,283,293,181,45,220,33,58,211,144,242,4,13,167,111,105,225,101,262,98,237,155,12,191,146,273,194,196,180,189,15,280,50,123,2,255,75,268,208,143,250,216,60,135,234,299,116,177,150,278,24,235,109,199,131,66,139,39,54,184,20,162,276,152,99,42,165,44,48,49,84,114,56,156,64,193,22,120,169,8,229,294,271,247,130,89,93,126,118,286,267,142,28,87,263,19,113,147,243,209,61,240,129,46,23,80,198,74,219,159,265,217,187,174,36,269,110,175,31,295,117,34,47,10,140,65,26,173,108,230,252,30,214,200,3,168,285,192,38,17,232,274,122,259,163,296,290,233,76,297,97,227,178,40,88,55,68,62,78,275,246,236,83,215,254,102,264,202,210,188,281,176,94,289,125,1,190,95,91,128,124,134,203,257,179,137,86,261,96,71,9,121,141,32,59,138,37,157,221,73,201,253,226,183,29,277,145,241,104,14,133,53,6,41,107,77,172,0,69,115,238,27,270,279,251,100,160,207,171,204,21,223,282,288,212,5,248,90,228,170,224,197,298,195,136,222,63,82,284,185,57,266,51,43,291,154,287,25,106,206,186,52,164,166,92,85,79,67,258,81,231,161,148,244]","arrowright","","false","0","12","50","300","[""0031_N0300_K0050_NOCLIQUE"",""0024_N0300_K0050_CLIQUE""]"
"","","","","","audio-keyboard-response","76","350168","0.0-60.0-0.0-1.0","","null","audio_feedback/wrong/error01.mp3","null","","","","","0","12","50","300","[""0031_N0300_K0050_NOCLIQUE"",""0024_N0300_K0050_CLIQUE""]"
"","","","","","canvas-keyboard-response","77","352260","0.0-61.0-0.0-0.0","","2012","","arrowleft","[77,216,279,43,257,176,29,44,158,233,86,11,156,134,243,57,100,229,230,177,209,237,189,297,217,190,246,83,274,227,197,249,12,138,128,31,244,127,266,34,39,282,67,61,112,114,173,221,261,32,60,85,260,239,208,53,298,271,120,88,166,171,144,45,89,285,262,26,106,102,25,122,22,182,123,129,151,181,195,293,165,296,240,51,143,284,299,71,135,111,224,146,78,93,247,259,10,13,73,270,273,2,198,38,168,153,258,5,231,14,68,124,245,90,136,185,24,161,214,272,69,59,206,199,104,41,263,94,159,110,36,228,184,269,84,203,267,101,194,192,223,250,277,248,211,62,16,287,21,137,116,28,193,140,131,70,145,40,109,204,255,202,207,220,291,148,20,164,139,150,201,232,242,241,72,9,236,6,35,292,4,99,294,154,252,19,49,125,235,256,276,212,48,265,55,108,157,46,64,118,142,180,7,215,126,133,3,281,103,295,290,37,288,81,23,163,58,213,251,218,178,52,160,155,1,42,289,65,210,162,119,107,268,75,97,105,18,141,117,95,98,200,278,174,87,205,226,56,149,91,238,280,0,47,196,130,147,191,167,17,222,187,175,27,15,253,74,96,179,225,170,79,275,264,219,33,234,132,30,54,121,152,80,63,76,115,66,92,254,8,188,186,169,286,50,283,113,82,183,172]","arrowleft","","true","0","13","50","300","[""0041_N0300_K0050_CLIQUE"",""0076_N0300_K0050_NOCLIQUE""]"
"","","","","","audio-keyboard-response","78","352668","0.0-61.0-0.0-1.0","","null","audio_feedback/right/coin01.mp3","null","","","","","0","13","50","300","[""0041_N0300_K0050_CLIQUE"",""0076_N0300_K0050_NOCLIQUE""]"
"","","","","","canvas-keyboard-response","79","356173","0.0-62.0-0.0-0.0","","3429",""," ","[69,89,197,118,261,196,218,51,70,239,129,88,173,206,127,248,245,238,217,241,1,180,55,286,232,41,130,138,45,117,178,171,132,38,83,90,247,72,135,146,142,116,50,255,289,230,253,73,4,263,272,14,32,281,76,125,269,275,185,182,0,77,58,231,216,177,39,276,71,43,106,34,59,37,82,285,56,44,21,68,136,143,8,26,79,210,121,86,46,181,126,256,209,104,63,145,168,228,155,57,23,264,159,268,257,252,30,149,47,183,298,87,141,78,22,95,271,20,297,48,153,17,92,250,172,174,101,165,270,280,94,133,102,215,96,260,62,164,205,186,224,287,147,237,120,282,74,35,244,157,123,246,33,111,67,166,103,124,194,259,6,262,191,99,19,170,134,187,192,208,60,299,64,161,158,214,105,53,222,203,139,288,188,293,115,91,140,122,162,279,225,107,151,265,233,274,42,204,212,112,249,108,291,12,193,236,176,11,258,152,2,243,16,251,273,156,98,81,36,5,227,150,7,175,113,40,234,18,211,75,9,3,110,254,240,31,148,242,229,213,25,292,295,84,80,169,100,189,200,85,198,278,267,235,131,24,190,294,27,128,61,97,277,219,199,13,10,179,207,54,144,163,184,15,195,109,49,284,290,65,296,221,226,29,201,223,119,266,154,52,66,167,160,283,114,202,28,93,220,137]","arrowleft","","","0","14","45","300","[""0005_N0300_K0045_CLIQUE"",""0027_N0300_K0045_NOCLIQUE""]"
"","","","","","audio-keyboard-response","80","356768","0.0-62.0-0.0-1.0","","null","audio_feedback/shuffles/shuffle01.mp3","null","","","","","0","14","45","300","[""0005_N0300_K0045_CLIQUE"",""0027_N0300_K0045_NOCLIQUE""]"
"","","","","","canvas-keyboard-response","81","360141","0.0-62.1-0.1-0.1","","3301",""," ","[31,250,157,122,269,279,53,125,0,268,228,123,270,75,104,223,62,134,254,52,41,36,191,107,212,205,18,150,236,188,111,51,78,121,114,19,105,284,91,180,221,34,110,185,244,4,128,183,187,174,201,118,198,280,248,258,88,291,297,285,6,211,272,163,29,217,145,238,179,47,210,2,94,274,57,247,299,77,172,138,243,5,22,182,81,142,17,241,245,48,42,38,214,261,206,184,171,30,229,85,159,289,50,287,67,100,14,232,92,293,251,8,259,10,181,136,271,175,252,141,262,282,55,143,194,219,265,190,156,84,288,54,220,277,161,80,12,195,44,113,124,98,296,40,242,167,99,117,178,16,43,70,164,160,116,208,292,177,231,239,158,204,115,286,200,58,60,256,15,225,7,96,120,87,146,102,154,3,169,213,224,168,294,290,130,202,68,149,106,26,90,71,199,131,69,275,249,173,72,253,133,246,83,132,37,59,165,13,295,152,197,49,127,147,276,35,215,155,61,209,273,73,76,74,162,23,86,108,218,230,266,89,126,148,97,39,222,227,109,129,234,103,95,226,139,233,186,151,82,192,176,112,20,170,93,240,255,153,207,283,144,21,32,28,33,216,267,281,66,45,46,9,260,64,24,203,27,135,56,263,235,63,257,193,298,189,119,65,25,137,1,79,140,11,166,101,278,237,264,196]","arrowleft","","","0","14","45","300","[""0005_N0300_K0045_CLIQUE"",""0027_N0300_K0045_NOCLIQUE""]"
"","","","","","audio-keyboard-response","82","360708","0.0-62.1-0.1-1.1","","null","audio_feedback/shuffles/shuffle01.mp3","null","","","","","0","14","45","300","[""0005_N0300_K0045_CLIQUE"",""0027_N0300_K0045_NOCLIQUE""]"
"","","","","","canvas-keyboard-response","83","363594","0.0-62.2-0.2-0.2","","2810","","arrowleft","[78,86,232,82,236,79,230,168,90,231,87,160,88,261,62,21,113,50,277,133,162,2,38,66,103,12,19,184,197,225,222,140,59,221,46,14,175,65,58,170,128,51,40,145,41,137,281,263,283,100,15,202,219,81,284,226,265,242,132,36,276,183,174,56,159,3,150,291,92,22,278,139,118,27,270,131,252,8,104,98,275,196,35,45,156,213,112,57,195,214,200,34,96,149,254,67,294,42,178,171,203,163,52,23,80,89,4,172,60,207,13,267,115,253,7,165,20,272,287,258,28,37,298,117,185,182,148,123,10,122,201,155,44,239,125,93,188,158,208,95,63,227,238,157,176,5,153,257,161,18,235,154,211,53,85,61,187,26,146,111,70,212,186,246,126,16,297,273,241,39,204,166,84,237,25,30,32,110,144,206,106,192,114,134,167,210,129,109,164,218,105,288,102,217,135,233,107,74,180,0,83,293,209,75,97,190,229,119,279,255,224,234,130,199,250,43,173,169,194,101,136,285,216,299,11,223,71,116,77,47,289,177,256,48,260,127,9,220,247,94,295,73,1,189,121,54,274,33,240,76,24,249,152,251,179,108,282,69,245,191,292,91,55,262,268,138,280,143,244,271,259,215,286,124,6,290,151,243,99,147,193,49,266,228,120,142,64,269,296,205,264,17,248,198,68,29,141,31,181,72]","arrowleft","","true","0","14","45","300","[""0005_N0300_K0045_CLIQUE"",""0027_N0300_K0045_NOCLIQUE""]"
"","","","","","audio-keyboard-response","84","364008","0.0-62.2-0.2-1.2","","null","audio_feedback/right/coin01.mp3","null","","","","","0","14","45","300","[""0005_N0300_K0045_CLIQUE"",""0027_N0300_K0045_NOCLIQUE""]"
"","","","","","canvas-keyboard-response","85","368264","0.0-63.0-0.0-0.0","","4171","","arrowright","[271,113,11,24,252,115,298,101,276,95,93,20,261,8,25,206,177,142,153,41,27,196,283,36,233,247,90,50,35,251,135,221,92,274,121,241,243,141,157,55,1,291,225,138,126,179,66,21,201,33,181,67,38,200,81,40,71,253,150,159,110,282,268,83,72,285,295,219,237,62,114,104,100,248,278,82,187,78,26,5,88,180,58,198,75,273,12,94,175,264,249,244,229,166,202,59,147,103,182,263,240,57,232,222,293,231,19,226,216,42,290,289,74,168,140,272,214,53,185,154,85,6,269,218,31,163,257,238,267,170,39,119,99,136,46,183,69,105,129,43,259,287,299,98,32,230,80,246,97,161,137,107,284,86,190,125,108,145,22,91,191,217,234,34,195,173,68,118,49,212,17,0,188,279,204,109,209,7,207,262,270,178,258,15,151,152,156,199,172,265,297,54,16,189,77,18,203,56,37,223,167,2,277,215,174,281,3,61,213,242,228,211,123,275,127,148,205,133,139,14,51,165,294,266,256,10,63,260,146,89,9,236,164,184,120,169,4,160,48,171,193,47,60,132,124,176,186,30,245,111,239,29,208,144,197,134,131,210,23,106,280,84,65,158,235,254,192,130,28,128,292,255,250,122,87,162,227,76,13,96,224,70,117,44,143,79,296,194,155,45,52,220,288,286,112,149,116,73,102,64]","arrowright","","true","0","15","45","300","[""0080_N0300_K0045_NOCLIQUE"",""0017_N0300_K0045_CLIQUE""]"
"","","","","","audio-keyboard-response","86","368668","0.0-63.0-0.0-1.0","","null","audio_feedback/right/coin01.mp3","null","","","","","0","15","45","300","[""0080_N0300_K0045_NOCLIQUE"",""0017_N0300_K0045_CLIQUE""]"
"","","","","","canvas-keyboard-response","87","371290","0.0-64.0-0.0-0.0","","2536","","arrowleft","[142,73,182,290,69,15,227,31,2,170,149,166,269,74,139,226,67,44,21,205,50,158,206,70,35,174,14,40,134,250,101,261,24,177,239,37,225,125,299,94,187,108,278,196,184,162,193,18,99,282,80,234,264,51,39,4,85,129,109,180,84,281,252,34,57,114,3,54,36,271,63,76,138,213,117,256,25,86,175,172,167,89,192,90,276,60,229,279,154,22,64,241,243,222,179,189,130,217,231,103,52,16,5,218,238,212,17,75,91,296,173,27,100,188,41,131,104,286,232,284,183,270,95,106,178,93,71,79,255,194,297,191,92,121,98,262,123,77,126,132,216,228,186,201,163,153,289,72,240,145,159,267,254,190,32,208,150,87,251,260,294,28,113,280,88,124,273,293,148,248,291,146,151,176,59,107,214,185,265,62,105,115,8,242,96,55,143,230,141,83,275,259,257,224,236,237,43,118,209,268,244,169,247,12,220,112,164,249,48,20,161,283,116,221,140,210,181,120,235,49,128,223,7,26,203,33,30,97,68,135,6,1,122,202,29,66,198,211,277,0,147,133,111,195,288,127,219,272,285,171,215,19,245,287,58,168,10,38,200,45,204,157,78,46,61,199,53,298,47,263,160,136,110,246,81,155,258,197,266,156,9,295,56,292,82,207,23,253,11,233,137,42,102,119,165,13,65,274,144,152]","arrowright","","false","0","16","40","300","[""0035_N0300_K0040_NOCLIQUE"",""0001_N0300_K0040_CLIQUE""]"
"","","","","","audio-keyboard-response","88","371908","0.0-64.0-0.0-1.0","","null","audio_feedback/wrong/error01.mp3","null","","","","","0","16","40","300","[""0035_N0300_K0040_NOCLIQUE"",""0001_N0300_K0040_CLIQUE""]"
"","","","","","canvas-keyboard-response","89","373158","0.0-65.0-0.0-0.0","","1164","","arrowright","[221,235,73,209,142,263,191,65,90,15,3,177,166,171,20,95,57,55,151,27,92,282,243,283,46,121,93,240,134,25,10,280,45,75,83,254,77,42,153,60,169,53,224,91,31,125,249,281,188,198,186,59,210,247,154,236,293,115,56,105,208,214,262,100,184,299,132,298,290,32,112,86,24,108,84,194,99,17,277,116,226,133,167,70,185,28,279,141,285,4,104,68,40,275,276,183,213,251,12,161,50,179,168,114,289,149,135,85,7,144,250,195,201,230,164,94,269,203,9,227,296,117,232,219,124,52,260,123,63,111,58,98,150,80,248,67,200,196,244,127,220,18,174,101,130,278,118,119,96,206,180,257,238,202,23,274,21,265,193,87,272,78,30,6,228,197,74,38,113,147,110,36,259,216,69,5,266,165,242,13,146,107,62,148,173,72,122,237,79,271,261,128,284,49,152,2,51,287,204,295,157,176,288,258,267,162,81,129,294,241,138,158,205,264,1,76,212,71,187,246,136,207,239,139,29,170,54,189,159,26,160,89,34,37,43,217,245,223,82,140,16,22,182,270,126,120,211,218,44,106,39,199,8,225,156,233,172,103,47,222,145,163,64,97,61,41,175,14,88,137,143,109,231,297,252,178,190,234,102,181,155,19,131,66,286,255,268,253,273,192,291,33,35,229,48,256,11,215,292,0]","arrowright","","true","0","17","40","300","[""0023_N0300_K0040_NOCLIQUE"",""0017_N0300_K0040_CLIQUE""]"
"","","","","","audio-keyboard-response","90","373568","0.0-65.0-0.0-1.0","","null","audio_feedback/right/coin01.mp3","null","","","","","0","17","40","300","[""0023_N0300_K0040_NOCLIQUE"",""0017_N0300_K0040_CLIQUE""]"
"","","","","","canvas-keyboard-response","91","377357","0.0-66.0-0.0-0.0","","3711",""," ","[188,280,148,151,263,34,30,62,7,116,106,158,54,238,6,29,230,262,288,245,129,72,36,156,76,270,251,208,19,15,0,31,134,96,143,110,117,52,204,93,216,173,215,258,295,249,196,70,138,185,107,128,264,169,218,159,157,233,23,103,187,73,22,150,37,75,223,146,92,64,207,47,292,35,200,87,227,255,48,5,50,234,71,237,20,17,152,246,199,283,281,114,80,131,9,121,240,181,14,142,225,53,260,212,132,55,279,51,252,195,224,220,183,197,99,189,254,61,149,57,231,95,272,228,140,293,275,222,120,145,112,130,83,8,94,11,209,166,85,267,77,226,28,46,127,217,42,274,18,4,39,41,273,60,175,176,194,144,167,247,299,13,198,192,104,160,276,219,100,137,25,193,2,58,33,177,211,86,1,123,171,49,180,168,91,133,27,78,256,201,122,136,125,141,105,139,68,229,98,118,63,124,56,269,244,242,10,79,182,297,250,184,190,67,84,271,102,277,59,248,163,74,202,172,284,265,115,285,205,154,111,147,24,282,12,161,191,126,179,286,278,235,289,164,287,90,294,213,21,174,43,97,268,241,291,162,257,82,89,45,44,170,253,203,88,210,153,135,109,290,266,236,66,186,65,16,214,32,119,232,69,108,296,155,40,3,239,113,243,298,101,178,206,259,26,221,261,38,81,165]","arrowright","","","0","18","35","300","[""0091_N0300_K0035_NOCLIQUE"",""0009_N0300_K0035_CLIQUE""]"
"","","","","","audio-keyboard-response","92","377927","0.0-66.0-0.0-1.0","","null","audio_feedback/shuffles/shuffle01.mp3","null","","","","","0","18","35","300","[""0091_N0300_K0035_NOCLIQUE"",""0009_N0300_K0035_CLIQUE""]"
"","","","","","canvas-keyboard-response","93","381879","0.0-66.1-0.1-0.1","","3883","","arrowright","[151,18,110,191,35,232,70,57,144,104,50,292,196,15,9,65,30,280,20,199,77,159,168,148,255,7,281,228,279,290,54,291,223,247,60,239,73,69,180,163,59,278,241,96,254,173,39,175,274,10,140,237,220,149,121,154,273,297,80,129,153,265,5,40,141,157,8,233,119,225,251,179,215,243,182,245,109,90,238,55,211,249,108,82,192,227,107,105,64,283,0,78,270,161,116,288,146,188,176,266,272,164,132,236,6,120,38,284,184,25,28,160,94,100,23,101,128,186,244,224,139,61,95,12,263,296,17,235,158,125,286,89,22,264,262,205,45,209,219,76,126,83,87,133,115,99,58,258,166,21,246,221,44,74,198,226,197,138,183,71,204,276,174,216,34,135,81,1,24,51,213,181,189,268,171,234,14,53,167,217,36,195,52,33,165,66,271,3,19,62,147,102,202,201,214,2,282,177,31,85,275,16,93,193,47,134,287,293,63,285,260,137,13,294,117,145,49,240,131,79,56,98,261,248,122,136,124,230,46,142,127,118,113,289,72,43,111,75,27,206,218,4,143,84,172,259,155,190,194,222,203,37,208,269,92,103,26,91,152,86,150,178,242,130,200,88,277,185,114,252,48,97,207,169,250,298,29,257,253,231,187,67,156,212,32,106,41,295,162,68,267,112,42,229,170,11,299,256,123,210]","arrowright","","true","0","18","35","300","[""0091_N0300_K0035_NOCLIQUE"",""0009_N0300_K0035_CLIQUE""]"
"","","","","","audio-keyboard-response","94","382288","0.0-66.1-0.1-1.1","","null","audio_feedback/right/coin01.mp3","null","","","","","0","18","35","300","[""0091_N0300_K0035_NOCLIQUE"",""0009_N0300_K0035_CLIQUE""]"
"","","","","","canvas-keyboard-response","95","385288","0.0-67.0-0.0-0.0","","2887","","arrowright","[292,118,105,115,38,249,25,173,210,14,98,260,126,95,202,12,238,110,46,165,24,199,94,234,217,75,279,146,216,179,246,83,151,35,257,145,43,15,91,103,293,203,17,267,273,37,138,270,114,62,33,136,117,59,142,299,161,88,160,172,286,131,283,297,187,191,294,295,60,20,106,181,227,291,262,255,212,276,130,261,213,219,132,193,42,266,22,184,204,157,39,263,215,274,111,265,252,253,65,58,141,211,180,144,143,49,288,189,277,44,278,82,156,87,8,194,64,186,102,206,240,258,223,164,55,222,129,127,81,148,137,36,18,264,235,90,296,272,285,168,242,134,214,280,256,176,16,159,73,183,209,290,269,198,0,244,289,123,154,228,175,287,120,155,153,63,226,27,109,67,233,21,86,121,177,250,45,4,166,23,251,167,56,30,54,112,207,162,230,93,275,170,104,205,284,139,225,208,113,40,53,92,158,47,72,5,236,99,66,11,248,220,174,70,71,29,259,116,84,232,51,7,169,3,26,2,74,149,197,281,100,28,77,218,229,271,50,10,152,135,196,13,122,241,57,147,282,80,79,247,243,31,298,125,52,239,68,6,108,171,69,150,76,61,185,231,221,85,101,200,201,41,237,224,178,78,195,124,1,190,9,32,268,107,163,254,188,96,140,89,133,48,182,119,245,34,97,19,192,128]","arrowright","","true","0","19","35","300","[""0047_N0300_K0035_NOCLIQUE"",""0065_N0300_K0035_CLIQUE""]"
"","","","","","audio-keyboard-response","96","385708","0.0-67.0-0.0-1.0","","null","audio_feedback/right/coin01.mp3","null","","","","","0","19","35","300","[""0047_N0300_K0035_NOCLIQUE"",""0065_N0300_K0035_CLIQUE""]"
"","","","","","canvas-keyboard-response","97","390893","0.0-68.0-0.0-0.0","","5065","","arrowright","[14,182,23,1,273,58,172,100,103,219,84,212,75,2,88,41,148,90,289,165,288,61,192,25,13,204,194,56,105,60,265,269,263,255,169,73,282,137,237,276,154,140,208,159,151,295,187,142,39,153,131,275,31,226,206,244,119,128,33,92,166,189,53,175,74,284,55,264,294,89,125,200,217,256,85,287,196,45,0,9,183,80,260,110,5,106,82,52,116,59,40,12,177,280,251,285,293,132,220,98,179,267,76,298,136,65,86,209,122,253,115,215,78,297,11,127,225,243,274,129,21,95,203,205,149,250,160,10,252,224,296,67,258,91,207,123,259,230,240,32,266,48,38,77,236,43,271,254,233,167,245,281,133,72,20,79,202,211,109,62,229,277,201,170,36,180,152,50,210,46,161,242,87,104,93,290,24,102,94,3,57,130,141,134,241,97,162,143,112,22,185,176,16,231,199,113,7,268,156,213,223,118,17,261,197,69,144,155,114,68,147,257,181,138,227,96,195,248,186,19,191,283,44,124,135,188,42,235,120,15,270,286,49,81,126,299,71,146,292,193,51,150,111,108,157,101,238,26,34,184,107,190,163,168,139,28,214,272,232,262,173,178,164,54,27,278,246,83,249,222,291,145,158,99,66,29,47,216,239,18,171,174,221,4,279,218,234,35,121,6,64,228,117,30,63,70,8,37,198,247]","arrowleft","","false","0","20","30","300","[""0042_N0300_K0030_CLIQUE"",""0013_N0300_K0030_NOCLIQUE""]"
"","","","","","audio-keyboard-response","98","391508","0.0-68.0-0.0-1.0","","null","audio_feedback/wrong/error01.mp3","null","","","","","0","20","30","300","[""0042_N0300_K0030_CLIQUE"",""0013_N0300_K0030_NOCLIQUE""]"
"","","","","","canvas-keyboard-response","99","394150","0.0-69.0-0.0-0.0","","2567",""," ","[201,298,265,58,291,215,14,282,163,70,263,25,166,243,211,267,285,188,183,204,104,261,45,0,18,102,170,147,69,48,103,153,191,245,79,296,131,262,64,212,75,122,109,288,299,71,1,74,241,134,5,150,67,231,222,234,174,228,47,87,287,56,17,7,38,126,37,217,28,169,26,91,120,31,233,97,42,83,268,123,3,98,16,213,221,259,181,266,278,206,135,195,186,246,39,165,149,258,118,205,161,73,192,281,157,82,8,164,260,138,142,34,216,151,162,132,66,12,218,235,253,15,198,172,144,94,238,297,274,202,78,232,194,223,295,178,200,175,154,137,53,133,290,105,236,294,273,270,46,256,143,4,35,225,36,177,237,106,145,185,158,249,148,33,20,10,29,203,76,32,189,168,280,57,11,43,88,77,293,252,180,100,209,227,101,86,115,229,110,197,129,128,112,182,127,159,62,72,92,50,63,264,113,117,96,156,250,140,179,160,193,121,155,239,176,292,85,89,6,226,90,68,22,152,251,21,52,141,247,108,125,187,219,41,240,9,136,146,242,173,111,119,99,269,27,55,93,224,207,124,51,255,13,257,275,2,283,167,208,230,244,272,49,65,114,60,23,19,54,184,59,107,44,248,289,80,277,95,139,30,254,214,199,284,286,171,81,116,196,210,276,130,84,271,61,24,220,190,40,279]","arrowright","","","0","21","30","300","[""0046_N0300_K0030_NOCLIQUE"",""0051_N0300_K0030_CLIQUE""]"
"","","","","","audio-keyboard-response","100","394728","0.0-69.0-0.0-1.0","","null","audio_feedback/shuffles/shuffle01.mp3","null","","","","","0","21","30","300","[""0046_N0300_K0030_NOCLIQUE"",""0051_N0300_K0030_CLIQUE""]"
"","","","","","canvas-keyboard-response","101","396316","0.0-69.1-0.1-0.1","","1506","","arrowright","[144,163,13,285,259,55,11,39,114,215,200,199,288,120,186,203,265,236,230,227,294,72,247,61,195,212,121,140,6,119,182,229,27,254,232,225,78,241,270,48,115,51,28,137,228,238,272,136,20,180,172,103,189,210,168,160,130,21,211,99,234,185,49,277,1,107,127,128,44,77,109,47,75,193,177,150,123,41,164,196,94,18,38,235,293,37,246,17,31,156,126,190,83,205,155,264,4,242,173,3,240,171,275,260,74,52,65,192,102,29,179,181,12,134,100,188,296,85,135,35,110,287,24,66,152,289,197,104,50,138,159,132,266,218,53,274,40,178,292,252,201,141,167,139,220,239,122,59,194,91,23,243,101,263,273,250,170,80,166,149,0,79,25,286,282,57,255,88,112,68,63,98,16,207,256,125,283,216,95,147,131,276,84,87,70,15,105,45,148,92,233,183,248,284,142,8,162,14,249,108,191,32,26,290,118,133,36,176,251,124,96,56,82,158,161,184,43,64,62,58,86,169,54,224,198,219,297,30,157,93,245,213,2,206,204,111,67,258,34,154,257,223,278,7,117,76,271,261,267,237,299,113,71,209,208,151,129,19,244,73,33,298,145,10,106,214,280,231,81,279,146,46,5,253,262,175,143,221,291,153,222,202,295,9,116,268,89,60,174,90,281,187,22,165,226,217,42,97,69,269]","arrowright","","true","0","21","30","300","[""0046_N0300_K0030_NOCLIQUE"",""0051_N0300_K0030_CLIQUE""]"
"","","","","","audio-keyboard-response","102","396728","0.0-69.1-0.1-1.1","","null","audio_feedback/right/coin01.mp3","null","","","","","0","21","30","300","[""0046_N0300_K0030_NOCLIQUE"",""0051_N0300_K0030_CLIQUE""]"
"","","","","","canvas-keyboard-response","103","399100","0.0-70.0-0.0-0.0","","2296","","arrowright","[174,25,71,175,106,220,125,287,188,91,2,27,52,118,70,109,239,264,74,4,87,37,271,66,185,48,292,161,298,223,251,88,190,184,96,285,1,121,28,168,277,151,197,227,159,176,117,213,39,103,172,209,291,173,20,252,46,81,60,143,47,205,192,286,77,50,179,35,262,100,293,250,279,33,204,258,199,138,122,5,288,260,42,157,217,170,153,225,248,0,13,167,237,207,98,61,177,163,79,268,255,129,214,84,186,244,65,228,147,282,104,38,180,67,31,26,169,11,86,247,113,8,200,34,276,94,85,78,215,238,30,193,53,131,140,10,116,219,232,72,69,135,43,210,80,275,211,196,156,195,181,115,294,97,23,40,111,162,280,256,95,224,216,267,198,230,17,19,145,206,93,299,146,202,136,203,273,148,54,289,236,24,36,164,107,194,59,22,63,105,44,126,110,290,76,120,270,265,152,218,155,14,3,108,226,233,241,212,266,242,259,283,191,92,235,165,18,183,73,182,128,144,160,240,51,45,249,261,274,158,231,6,139,123,296,32,201,7,245,41,142,49,208,112,297,29,102,178,124,269,21,257,253,132,55,90,221,263,243,130,246,229,254,101,133,12,222,166,119,171,64,272,278,127,149,189,16,58,62,137,154,89,15,99,82,134,187,284,57,234,56,83,75,114,295,9,68,150,281,141]","arrowleft","","false","0","22","25","300","[""0077_N0300_K0025_CLIQUE"",""0058_N0300_K0025_NOCLIQUE""]"
"","","","","","audio-keyboard-response","104","399688","0.0-70.0-0.0-1.0","","null","audio_feedback/wrong/error01.mp3","null","","","","","0","22","25","300","[""0077_N0300_K0025_CLIQUE"",""0058_N0300_K0025_NOCLIQUE""]"
"","","","","","canvas-keyboard-response","105","403915","0.0-71.0-0.0-0.0","","4155","","arrowleft","[250,178,74,139,200,270,196,132,12,276,45,143,13,31,27,117,179,50,97,156,287,174,116,89,158,84,244,35,113,165,280,277,144,103,187,254,1,95,192,37,249,181,125,182,286,157,58,64,39,245,208,222,25,199,260,189,247,211,135,53,203,146,274,219,180,218,96,130,77,268,273,5,70,123,4,197,6,112,29,214,0,237,15,81,167,43,54,202,114,119,118,168,140,259,121,221,223,190,279,194,8,232,183,82,285,252,21,80,72,124,40,293,102,163,212,166,68,155,154,151,108,160,295,38,198,142,20,7,26,265,98,71,225,73,284,191,76,289,253,147,48,22,47,201,209,109,34,42,122,141,261,111,126,136,290,278,271,257,18,226,185,297,93,106,206,240,164,49,296,10,69,87,171,14,128,170,299,131,227,175,262,133,264,229,204,239,11,235,177,63,162,145,228,272,28,90,62,205,173,161,100,23,263,85,127,33,99,217,275,60,9,88,267,210,86,66,255,193,56,149,251,137,24,94,241,115,52,234,61,51,184,110,281,233,152,153,3,83,148,57,104,213,36,169,46,16,186,30,207,188,195,231,59,288,283,266,129,55,91,41,176,172,32,215,101,258,236,269,243,44,292,238,19,138,67,246,2,230,105,79,248,134,216,17,256,78,291,150,294,65,159,92,242,120,224,298,282,107,220,75]","arrowleft","","true","0","23","25","300","[""0013_N0300_K0025_CLIQUE"",""0030_N0300_K0025_NOCLIQUE""]"
"","","","","","audio-keyboard-response","106","404329","0.0-71.0-0.0-1.0","","null","audio_feedback/right/coin01.mp3","null","","","","","0","23","25","300","[""0013_N0300_K0025_CLIQUE"",""0030_N0300_K0025_NOCLIQUE""]"
"","","","","","canvas-keyboard-response","107","407587","0.0-72.0-0.0-0.0","","3177","","arrowright","[197,155,160,81,75,249,59,243,253,13,214,125,31,266,116,194,280,147,41,65,288,168,1,206,121,84,32,44,142,38,106,276,245,176,186,192,242,296,162,190,217,260,53,24,283,96,115,273,146,61,79,5,163,71,10,103,136,226,124,105,215,18,113,291,133,210,166,76,244,63,93,78,256,208,55,158,22,261,231,14,167,109,299,9,150,297,216,70,270,43,34,174,236,62,203,73,48,23,20,177,83,180,292,204,137,170,102,211,54,114,250,151,278,173,89,247,91,175,33,181,248,223,119,111,220,77,179,228,36,45,86,87,2,269,60,222,26,212,25,263,139,172,98,104,185,90,254,138,230,16,80,148,193,241,224,108,144,19,187,295,268,196,290,257,66,99,64,202,284,161,35,252,101,184,40,17,92,97,182,219,229,234,227,265,205,122,100,6,37,293,56,51,15,286,238,157,58,201,118,233,189,12,262,132,258,140,298,207,128,134,235,225,191,277,149,279,82,135,85,30,237,50,123,289,42,68,117,127,239,282,94,3,107,285,281,72,218,251,39,112,272,171,141,199,232,8,159,95,164,165,129,29,271,200,153,188,110,126,198,131,4,28,27,246,46,255,69,154,21,264,143,57,209,156,49,152,47,67,7,221,130,169,0,145,74,259,88,274,183,213,52,294,178,120,287,267,11,195,240,275]","arrowright","","true","0","24","20","300","[""0067_N0300_K0020_NOCLIQUE"",""0070_N0300_K0020_CLIQUE""]"
"","","","","","audio-keyboard-response","108","408008","0.0-72.0-0.0-1.0","","null","audio_feedback/right/coin01.mp3","null","","","","","0","24","20","300","[""0067_N0300_K0020_NOCLIQUE"",""0070_N0300_K0020_CLIQUE""]"
"","","","","","canvas-keyboard-response","109","411564","0.0-73.0-0.0-0.0","","3480","","arrowleft","[58,264,50,114,266,134,39,33,8,287,237,166,254,30,187,253,15,126,142,113,279,46,35,78,57,64,257,167,49,56,65,17,204,170,183,75,36,292,16,25,102,6,118,261,223,238,286,189,1,137,129,230,193,156,151,242,130,82,291,9,52,269,146,42,201,217,239,200,176,12,73,231,214,144,283,163,157,55,19,93,182,224,31,273,124,101,105,99,152,252,140,260,179,143,48,244,213,271,43,97,293,44,220,111,160,222,212,37,284,296,294,246,70,128,4,34,76,117,198,175,190,67,248,71,203,38,3,218,219,289,236,66,259,208,23,86,194,168,110,228,233,155,22,265,225,165,207,282,159,288,61,161,185,275,169,72,116,109,202,132,18,262,280,178,235,270,131,21,162,41,27,285,186,94,205,276,20,277,106,123,258,103,121,171,24,47,60,229,2,249,108,247,197,267,127,149,211,226,148,112,173,10,295,74,26,32,180,192,290,14,154,141,87,181,95,227,232,243,63,268,100,158,122,136,196,245,272,54,11,120,7,139,145,240,133,299,115,210,125,234,84,184,107,153,45,135,104,263,297,40,51,177,5,215,53,199,241,147,0,150,59,216,195,209,90,77,164,96,138,89,206,274,81,119,29,251,281,79,172,80,98,28,68,255,221,191,69,83,92,250,188,174,62,298,278,91,88,13,256,85]","arrowright","","false","0","25","20","300","[""0023_N0300_K0020_NOCLIQUE"",""0043_N0300_K0020_CLIQUE""]"
"","","","","","audio-keyboard-response","110","412148","0.0-73.0-0.0-1.0","","null","audio_feedback/wrong/error01.mp3","null","","","","","0","25","20","300","[""0023_N0300_K0020_NOCLIQUE"",""0043_N0300_K0020_CLIQUE""]"
"","","","","","canvas-keyboard-response","111","415078","0.0-74.0-0.0-0.0","","2847","","arrowright","[152,208,47,248,207,284,88,19,161,243,132,91,127,151,147,230,109,275,103,192,286,258,245,267,182,164,86,111,93,264,48,115,160,157,163,44,95,42,101,221,59,155,46,198,279,76,246,104,289,195,184,298,223,296,199,205,118,140,260,0,211,2,158,117,1,28,253,167,270,66,63,256,25,34,35,89,74,291,83,229,54,220,281,288,150,177,294,213,126,171,15,193,273,129,170,263,154,82,197,61,261,21,23,181,183,200,162,131,41,107,133,142,272,165,27,218,185,276,121,40,204,173,222,293,52,242,128,282,146,145,206,16,134,175,85,112,60,39,10,239,84,99,14,202,180,212,18,38,201,215,69,153,231,283,78,4,176,73,122,43,257,156,58,110,120,280,57,9,169,24,36,277,233,6,285,290,292,297,72,12,20,53,174,187,252,62,79,70,265,33,105,71,228,45,13,241,100,225,116,139,98,11,209,106,30,125,203,266,96,108,255,247,50,51,240,235,179,130,22,80,113,219,210,81,136,141,159,64,31,67,194,90,55,268,178,123,94,234,26,5,37,119,32,143,278,168,251,172,149,254,262,8,226,190,65,236,244,299,186,148,137,188,227,295,269,3,216,138,49,87,271,102,68,7,250,274,97,135,259,191,237,17,214,196,124,189,29,166,217,114,287,56,232,75,77,249,238,144,224,92]","arrowright","","true","0","26","15","300","[""0006_N0300_K0015_NOCLIQUE"",""0074_N0300_K0015_CLIQUE""]"
"","","","","","audio-keyboard-response","112","415488","0.0-74.0-0.0-1.0","","null","audio_feedback/right/coin01.mp3","null","","","","","0","26","15","300","[""0006_N0300_K0015_NOCLIQUE"",""0074_N0300_K0015_CLIQUE""]"
"","","","","","canvas-keyboard-response","113","417270","0.0-75.0-0.0-0.0","","1705","","arrowright","[97,297,246,254,135,160,80,117,121,267,2,164,94,27,31,133,79,82,119,103,171,17,115,64,228,7,113,18,76,41,90,69,148,83,156,8,132,144,165,249,199,202,159,181,217,12,100,131,172,28,157,146,137,272,292,21,203,229,221,185,6,51,201,190,214,212,57,283,174,91,19,175,282,110,101,104,138,162,42,123,108,281,87,299,86,13,230,151,296,145,196,256,242,89,273,73,225,168,58,11,142,106,93,210,26,193,224,129,130,23,48,72,24,295,248,95,32,139,255,207,53,49,191,60,278,147,269,215,40,194,111,128,240,74,112,244,265,252,153,22,179,30,25,4,192,107,66,289,220,287,293,65,47,96,120,29,280,231,266,257,81,16,290,152,98,263,33,38,126,158,109,150,206,259,70,285,223,85,37,155,233,277,211,88,177,239,205,198,77,184,279,1,75,232,213,143,241,253,251,39,34,284,216,271,270,245,200,262,187,15,218,122,36,149,20,154,45,125,195,14,140,236,258,67,294,274,71,35,235,298,186,46,68,204,55,136,52,127,288,56,173,183,238,84,226,261,170,116,43,10,180,141,189,166,61,59,250,286,260,3,54,124,219,176,92,276,134,188,50,0,9,44,169,209,237,178,291,264,247,163,234,222,161,5,243,118,275,114,268,102,99,182,197,167,78,227,208,63,105,62]","arrowleft","","false","0","27","15","300","[""0079_N0300_K0015_CLIQUE"",""0100_N0300_K0015_NOCLIQUE""]"
"","","","","","audio-keyboard-response","114","417868","0.0-75.0-0.0-1.0","","null","audio_feedback/wrong/error01.mp3","null","","","","","0","27","15","300","[""0079_N0300_K0015_CLIQUE"",""0100_N0300_K0015_NOCLIQUE""]"
"","","","","","canvas-keyboard-response","115","419218","0.0-76.0-0.0-0.0","","1278","","arrowleft","[142,278,122,162,266,28,263,198,180,149,6,11,140,51,65,131,190,252,69,215,178,242,83,220,280,273,235,295,89,72,156,216,164,161,193,99,80,163,20,270,119,4,269,281,169,174,291,108,37,68,225,267,185,146,43,3,234,179,74,40,153,129,181,111,151,2,147,250,155,92,66,102,123,45,204,275,238,285,248,27,52,112,38,251,10,249,212,175,128,192,290,259,75,88,227,49,60,114,59,237,13,50,228,64,159,134,256,35,241,223,182,243,118,245,145,14,246,186,67,222,152,247,78,184,47,94,207,260,201,113,91,139,276,205,167,165,110,71,173,36,200,33,197,56,19,254,208,42,191,158,70,77,187,130,279,210,283,84,39,58,264,239,231,170,230,232,76,24,132,136,226,289,258,93,224,206,282,286,297,95,16,299,29,0,57,79,171,255,262,22,21,124,121,213,104,287,194,261,31,271,148,135,23,183,103,85,202,86,253,268,53,274,48,284,189,7,117,26,296,244,160,292,15,196,82,116,63,126,277,61,101,298,217,272,87,221,265,233,96,55,294,288,141,1,150,97,133,293,100,177,211,8,127,203,5,81,90,54,166,195,143,137,154,115,229,218,18,25,157,109,73,176,199,9,62,34,106,125,32,172,240,46,257,144,17,41,98,214,120,105,168,44,138,188,219,209,236,107,30,12]","arrowright","","false","0","28","10","300","[""0098_N0300_K0010_NOCLIQUE"",""0049_N0300_K0010_CLIQUE""]"
"","","","","","audio-keyboard-response","116","419808","0.0-76.0-0.0-1.0","","null","audio_feedback/wrong/error01.mp3","null","","","","","0","28","10","300","[""0098_N0300_K0010_NOCLIQUE"",""0049_N0300_K0010_CLIQUE""]"
"","","","","","canvas-keyboard-response","117","421524","0.0-77.0-0.0-0.0","","1641","","arrowright","[133,124,96,29,17,138,198,201,6,242,153,10,230,264,183,44,122,180,92,131,171,248,163,209,0,111,236,27,22,125,87,8,247,272,48,86,97,65,160,63,288,157,95,207,103,155,204,159,239,114,241,40,190,105,287,101,292,49,295,62,43,104,286,252,227,94,38,26,208,82,206,225,281,275,203,255,129,73,250,222,132,211,141,249,106,12,238,164,259,115,291,277,173,31,181,269,214,260,58,154,28,67,69,161,15,7,80,143,84,162,20,196,218,51,45,135,282,54,142,220,202,278,137,32,134,192,24,217,168,34,16,123,117,156,245,47,199,152,194,186,100,19,280,2,195,93,210,265,1,213,4,165,91,235,215,25,177,182,258,102,108,263,256,56,268,33,187,127,71,279,74,118,3,145,216,99,110,144,41,293,237,35,284,170,130,146,151,257,221,88,240,285,276,128,197,243,9,148,232,254,147,23,167,57,112,176,46,150,193,172,140,21,119,191,274,78,139,283,297,158,61,39,169,185,42,290,224,229,200,5,90,246,50,37,76,70,262,85,83,36,72,166,55,13,59,116,53,271,188,273,77,81,52,296,234,11,75,98,253,251,66,136,126,226,270,261,179,30,79,233,68,289,109,212,178,266,219,107,89,231,267,60,184,18,64,294,175,228,299,205,149,298,120,189,244,113,174,121,223,14]","arrowleft","","false","0","29","10","300","[""0075_N0300_K0010_CLIQUE"",""0043_N0300_K0010_NOCLIQUE""]"
"","","","","","audio-keyboard-response","118","422108","0.0-77.0-0.0-1.0","","null","audio_feedback/wrong/error01.mp3","null","","","","","0","29","10","300","[""0075_N0300_K0010_CLIQUE"",""0043_N0300_K0010_NOCLIQUE""]"
"","","","","","instructions","119","425639","0.0-78.0","[{""page_index"":0,""viewing_time"":3528}]","3529","","","","","","","","","","",""
"","","","","","canvas-keyboard-response","120","427451","0.0-79.0-0.0-0.0","","1735","","arrowleft","[177,252,233,150,84,33,257,264,106,13,268,132,104,175,130,293,167,122,232,275,266,237,36,105,236,27,298,5,213,29,4,14,42,107,201,62,224,69,94,44,56,12,143,295,96,163,134,109,281,120,81,162,288,125,171,78,278,206,121,86,160,98,297,280,3,145,133,127,87,111,153,26,155,146,7,279,91,76,131,75,139,216,207,250,2,31,37,192,261,79,179,18,231,210,34,267,101,22,204,129,277,55,151,49,119,256,202,209,144,15,223,234,11,102,253,147,21,194,190,128,58,174,25,270,189,51,158,218,239,88,165,113,289,183,283,156,258,117,19,68,47,116,185,73,173,292,263,272,274,193,176,296,286,235,255,157,203,196,95,66,123,63,187,61,181,225,265,186,85,154,64,46,137,83,135,249,148,228,227,82,230,99,149,40,245,246,251,273,17,226,205,260,287,197,59,191,45,240,124,170,136,178,138,282,195,168,182,220,50,140,114,269,115,248,291,126,67,284,241,244,211,60,8,271,294,92,65,0,74,118,247,100,48,38,299,184,6,54,141,70,1,208,254,199,28,238,80,112,103,217,169,9,72,229,242,57,90,262,24,53,222,276,259,243,30,198,142,10,214,39,77,71,41,188,285,16,32,20,166,108,89,159,152,172,215,219,290,164,52,93,161,212,221,23,43,200,180,97,110,35]","arrowleft","","true","1","0","90","300","[""0073_N0300_K0090_CLIQUE"",""0049_N0300_K0090_NOCLIQUE""]"
"","","","","","audio-keyboard-response","121","427868","0.0-79.0-0.0-1.0","","null","audio_feedback/right/coin01.mp3","null","","","","","1","0","90","300","[""0073_N0300_K0090_CLIQUE"",""0049_N0300_K0090_NOCLIQUE""]"
"","","","","","canvas-keyboard-response","122","429320","0.0-80.0-0.0-0.0","","1376","","arrowright","[211,4,170,15,75,267,162,237,204,253,98,148,95,30,213,68,186,55,114,11,285,31,199,228,43,89,276,46,113,265,250,133,289,37,25,101,136,141,126,47,209,164,100,102,195,22,142,299,54,176,160,51,81,150,277,144,173,99,239,26,146,121,290,223,117,217,231,140,212,171,84,221,82,41,201,260,280,28,137,227,130,85,251,1,278,268,281,93,88,87,286,229,288,224,178,40,151,266,49,158,125,272,235,236,124,244,107,205,8,92,215,62,19,208,90,80,35,63,284,179,74,248,167,220,275,291,2,17,233,69,156,240,279,246,94,295,169,115,24,118,134,138,154,292,127,104,270,0,155,194,139,32,58,7,36,149,226,193,216,297,282,256,177,50,10,157,249,252,135,44,241,218,180,191,192,257,132,23,129,207,219,190,34,293,187,3,71,238,27,185,168,166,67,66,76,73,200,225,78,39,123,165,188,72,206,152,56,175,183,108,259,143,18,59,21,264,163,20,247,83,197,147,16,109,273,196,269,65,111,52,198,77,232,110,263,112,214,128,298,174,161,287,202,9,14,230,120,64,96,61,189,254,33,57,91,70,106,53,203,122,86,283,6,119,234,222,105,274,261,12,271,294,42,48,5,181,116,262,145,79,13,245,60,153,97,184,210,159,38,243,103,242,258,172,131,29,182,296,45,255]","arrowright","","true","1","1","90","300","[""0054_N0300_K0090_NOCLIQUE"",""0017_N0300_K0090_CLIQUE""]"
"","","","","","audio-keyboard-response","123","429728","0.0-80.0-0.0-1.0","","null","audio_feedback/right/coin01.mp3","null","","","","","1","1","90","300","[""0054_N0300_K0090_NOCLIQUE"",""0017_N0300_K0090_CLIQUE""]"
"","","","","","canvas-keyboard-response","124","430920","0.0-81.0-0.0-0.0","","1112","","arrowleft","[97,292,214,263,258,126,94,91,93,149,5,20,53,102,213,283,123,69,166,124,8,78,231,232,268,22,60,84,161,112,151,45,46,4,116,235,209,257,134,286,212,219,205,34,121,79,99,144,253,264,196,160,201,202,162,247,117,74,207,88,276,118,26,25,72,221,77,19,156,49,14,21,168,204,137,143,185,158,249,150,101,51,254,136,42,194,187,41,59,291,228,272,100,193,182,271,85,110,47,125,240,296,86,96,222,229,103,128,224,216,274,82,188,265,176,141,167,115,256,66,192,36,31,197,179,255,104,54,30,35,174,238,234,37,83,294,10,220,65,52,147,87,252,280,24,132,169,50,113,139,58,278,190,138,98,226,191,266,262,246,152,289,245,106,159,108,13,48,61,282,199,273,63,146,2,80,186,195,55,7,290,233,241,120,175,95,154,210,250,269,180,248,18,39,181,155,279,9,40,90,15,259,163,16,122,27,44,111,23,297,32,135,107,237,29,64,165,56,203,43,261,243,89,127,109,230,287,131,1,129,17,81,198,11,92,130,285,189,218,239,299,270,119,236,170,281,242,225,200,71,275,70,6,295,178,148,244,260,153,298,75,206,28,293,208,173,211,215,172,183,3,284,68,142,217,140,277,76,67,171,251,288,164,267,145,12,105,227,177,157,114,184,73,57,133,62,0,38,33,223]","arrowleft","","true","1","2","80","300","[""0055_N0300_K0080_CLIQUE"",""0079_N0300_K0080_NOCLIQUE""]"
"","","","","","audio-keyboard-response","125","431328","0.0-81.0-0.0-1.0","","null","audio_feedback/right/coin01.mp3","null","","","","","1","2","80","300","[""0055_N0300_K0080_CLIQUE"",""0079_N0300_K0080_NOCLIQUE""]"
"","","","","","canvas-keyboard-response","126","432899","0.0-82.0-0.0-0.0","","1497","","arrowleft","[255,250,283,77,32,92,73,112,37,202,137,30,26,274,168,254,31,120,59,64,240,12,190,280,159,162,33,131,235,211,144,38,105,198,108,277,23,98,101,1,126,241,171,227,97,259,172,13,130,204,209,17,165,252,69,88,143,189,216,298,121,181,263,95,183,161,76,260,154,231,25,119,226,256,199,48,111,106,248,149,9,294,118,107,163,203,236,270,91,284,197,257,46,185,83,22,62,217,10,208,174,14,35,266,192,268,223,258,253,285,110,175,239,156,243,19,41,160,214,127,11,262,99,8,50,133,169,225,55,4,7,271,148,224,269,220,293,49,6,167,292,282,151,42,68,123,238,233,213,194,28,74,117,86,152,15,249,66,63,201,287,153,132,142,288,176,145,45,230,87,78,296,20,43,179,21,60,234,82,52,47,299,125,276,291,56,122,264,61,251,102,71,0,222,136,278,157,267,72,65,275,44,196,40,186,75,207,3,58,158,272,79,290,195,146,150,184,85,215,297,286,18,70,36,124,242,53,265,182,89,2,128,232,188,100,84,24,177,51,210,212,135,281,295,94,261,129,140,247,221,134,103,218,54,166,113,57,141,206,138,109,229,244,114,187,279,155,289,273,147,115,245,164,104,139,237,67,228,80,116,173,246,170,81,96,27,219,191,34,5,29,16,200,178,193,180,93,90,205,39]","arrowleft","","true","1","3","80","300","[""0012_N0300_K0080_CLIQUE"",""0088_N0300_K0080_NOCLIQUE""]"
"","","","","","audio-keyboard-response","127","433308","0.0-82.0-0.0-1.0","","null","audio_feedback/right/coin01.mp3","null","","","","","1","3","80","300","[""0012_N0300_K0080_CLIQUE"",""0088_N0300_K0080_NOCLIQUE""]"
"","","","","","canvas-keyboard-response","128","434691","0.0-83.0-0.0-0.0","","1313","","arrowright","[101,81,234,146,122,217,233,165,208,179,17,267,157,95,99,255,268,27,203,240,178,47,105,97,59,284,93,15,53,75,193,253,271,144,258,164,228,26,202,130,293,38,216,207,261,94,265,116,238,56,107,150,263,286,9,123,54,276,229,137,76,182,119,67,118,221,124,23,218,12,296,260,57,100,92,299,181,241,132,110,29,270,113,245,20,0,274,24,248,31,196,104,88,283,82,279,252,254,201,37,91,189,256,65,49,282,125,129,222,145,90,60,25,194,219,266,235,210,148,143,70,227,151,152,52,244,63,108,32,172,71,294,44,209,64,291,22,142,128,121,188,131,281,272,280,154,239,175,96,41,134,176,6,155,98,30,232,11,120,34,187,33,111,62,257,168,186,225,213,36,298,73,103,180,86,220,162,198,212,224,8,231,136,242,250,287,4,109,83,153,13,7,78,46,79,5,68,167,45,61,115,139,3,14,195,89,1,35,251,237,39,50,2,226,147,177,16,290,21,205,174,72,127,275,206,87,297,19,28,277,140,42,197,159,259,85,55,243,138,269,117,112,204,43,292,295,249,262,183,10,80,169,156,199,133,190,126,160,40,161,158,18,74,200,149,191,48,66,166,214,246,185,163,77,84,184,114,170,211,171,289,102,285,58,264,135,51,247,236,288,273,106,173,69,278,192,230,223,141,215]","arrowright","","true","1","4","70","300","[""0093_N0300_K0070_NOCLIQUE"",""0032_N0300_K0070_CLIQUE""]"
"","","","","","audio-keyboard-response","129","435108","0.0-83.0-0.0-1.0","","null","audio_feedback/right/coin01.mp3","null","","","","","1","4","70","300","[""0093_N0300_K0070_NOCLIQUE"",""0032_N0300_K0070_CLIQUE""]"
"","","","","","canvas-keyboard-response","130","436338","0.0-84.0-0.0-0.0","","1151","","arrowleft","[161,255,10,54,209,218,83,273,112,290,231,51,142,165,35,299,32,116,200,260,248,194,89,58,174,126,171,284,48,228,249,253,219,20,144,212,229,11,258,64,157,90,176,274,5,70,36,141,88,66,191,78,103,138,74,237,120,291,197,55,13,4,267,125,168,243,190,221,148,100,224,22,240,213,210,96,84,233,207,227,71,235,245,226,52,263,169,286,151,97,49,122,136,298,121,134,25,139,72,57,222,92,65,98,173,294,87,104,73,196,244,28,164,192,257,289,6,195,1,199,160,128,38,182,208,82,62,101,115,21,271,131,270,81,132,8,15,102,236,180,277,292,279,140,172,43,24,94,232,129,283,203,202,269,162,79,147,30,259,250,261,2,127,205,86,105,295,150,111,77,293,18,268,118,170,37,137,158,214,17,242,67,44,193,288,265,12,130,239,155,91,93,61,29,256,225,124,143,230,23,14,41,181,167,7,198,119,68,163,285,278,234,40,201,3,189,223,50,184,238,159,149,266,146,47,183,107,135,42,211,60,204,59,241,9,262,108,27,53,85,19,34,220,175,264,110,153,188,80,217,179,26,123,185,109,275,45,287,46,16,297,206,282,156,272,276,63,152,33,166,254,113,76,187,99,280,246,216,252,281,178,117,186,106,133,114,95,177,154,69,251,215,56,75,296,247,39,145,31,0]","arrowleft","","true","1","5","70","300","[""0007_N0300_K0070_CLIQUE"",""0035_N0300_K0070_NOCLIQUE""]"
"","","","","","audio-keyboard-response","131","436748","0.0-84.0-0.0-1.0","","null","audio_feedback/right/coin01.mp3","null","","","","","1","5","70","300","[""0007_N0300_K0070_CLIQUE"",""0035_N0300_K0070_NOCLIQUE""]"
"","","","","","canvas-keyboard-response","132","438191","0.0-85.0-0.0-0.0","","1373","","arrowright","[298,214,26,75,21,233,110,174,29,47,247,265,140,229,279,40,258,208,253,144,84,2,168,55,28,184,143,217,169,108,112,194,7,32,189,231,171,268,218,44,278,227,129,280,62,273,30,34,165,95,92,276,115,290,197,230,224,56,99,16,277,248,246,5,46,228,284,96,59,80,8,54,166,128,131,83,204,101,105,196,71,35,113,206,52,73,205,139,48,269,167,18,60,294,103,125,244,162,1,234,200,31,76,202,78,10,296,192,264,235,86,11,193,195,215,53,270,243,163,187,109,198,49,142,145,12,182,188,241,97,156,132,250,98,286,226,266,289,219,180,271,39,155,120,267,51,238,100,242,283,293,58,288,220,256,135,251,81,176,186,259,149,141,179,164,223,245,201,239,70,82,114,146,190,261,63,130,90,158,213,260,287,24,57,183,282,0,134,121,237,257,160,50,209,41,19,107,68,151,150,137,161,93,274,27,36,178,262,199,119,88,89,240,104,91,43,65,69,94,222,272,153,14,127,102,124,210,157,33,117,211,111,9,15,212,295,236,292,22,225,299,181,133,85,23,79,20,275,6,61,263,64,285,116,159,74,185,138,249,203,147,177,66,170,152,77,191,232,175,154,38,216,207,255,17,123,4,87,136,172,67,148,252,25,221,45,173,37,118,42,106,72,281,126,122,297,3,13,291,254]","arrowright","","true","1","6","65","300","[""0086_N0300_K0065_NOCLIQUE"",""0043_N0300_K0065_CLIQUE""]"
"","","","","","audio-keyboard-response","133","438608","0.0-85.0-0.0-1.0","","null","audio_feedback/right/coin01.mp3","null","","","","","1","6","65","300","[""0086_N0300_K0065_NOCLIQUE"",""0043_N0300_K0065_CLIQUE""]"
"","","","","","canvas-keyboard-response","134","441037","0.0-86.0-0.0-0.0","","2357","","arrowright","[197,6,248,131,289,53,261,143,278,239,195,105,297,212,151,270,231,233,58,232,294,192,282,75,86,242,251,272,28,160,25,193,119,167,57,148,268,134,30,64,72,8,205,163,285,256,62,171,155,227,203,83,41,235,284,219,149,296,246,265,122,70,17,245,103,107,164,38,259,213,124,168,169,60,264,81,44,201,35,146,161,178,120,142,85,170,61,110,102,132,109,202,279,108,140,2,291,249,266,54,229,238,141,88,138,183,258,67,111,101,82,29,273,187,45,257,173,271,237,299,198,263,71,97,277,211,159,92,56,216,121,223,80,15,194,32,93,292,175,26,150,222,236,180,290,281,90,14,21,42,78,152,220,250,77,94,185,4,157,76,10,215,136,244,16,11,112,247,89,1,135,214,298,13,96,207,280,129,20,127,221,128,137,47,34,84,186,210,230,145,293,255,69,125,7,269,130,144,204,87,46,166,200,23,126,114,66,118,116,262,181,74,234,104,243,51,5,3,106,113,139,295,39,189,172,95,49,36,117,196,154,176,274,68,37,217,153,208,254,55,182,240,286,199,63,218,224,158,260,65,0,179,52,40,162,31,48,115,24,98,184,59,191,147,209,18,156,287,253,228,79,283,165,123,288,73,225,267,50,206,188,133,226,177,99,9,22,43,190,276,174,91,19,27,12,252,33,100,275,241]","arrowright","","true","1","7","65","300","[""0037_N0300_K0065_NOCLIQUE"",""0082_N0300_K0065_CLIQUE""]"
"","","","","","audio-keyboard-response","135","441448","0.0-86.0-0.0-1.0","","null","audio_feedback/right/coin01.mp3","null","","","","","1","7","65","300","[""0037_N0300_K0065_NOCLIQUE"",""0082_N0300_K0065_CLIQUE""]"
"","","","","","canvas-keyboard-response","136","443242","0.0-87.0-0.0-0.0","","1714","","arrowright","[135,129,84,238,152,249,15,40,74,218,174,209,183,24,198,274,23,288,141,11,10,168,221,79,233,144,235,161,86,72,130,36,92,158,234,206,81,264,185,291,226,246,287,56,297,121,120,169,242,29,241,299,114,16,88,156,180,203,38,100,34,49,296,182,195,275,146,199,171,177,196,69,259,41,214,147,20,189,284,262,94,68,57,28,118,184,205,230,278,247,109,21,187,142,115,272,252,50,193,256,148,47,26,13,255,266,122,132,78,294,108,267,280,227,85,119,173,145,269,45,298,223,126,3,99,268,248,103,43,188,254,149,225,251,179,71,292,197,82,1,44,281,76,110,6,123,228,27,65,151,211,54,75,101,176,90,105,17,95,59,207,89,210,276,48,260,5,2,55,231,178,229,215,137,111,8,279,97,112,7,67,237,53,282,192,213,113,12,265,159,250,285,0,33,128,283,240,124,52,51,61,18,217,157,139,220,42,216,136,166,104,204,62,163,224,293,170,102,117,150,9,295,127,98,116,30,219,232,200,31,63,58,87,190,286,138,257,258,154,212,73,208,244,131,164,277,93,261,271,83,25,172,35,107,175,186,64,236,160,80,290,106,239,39,194,153,37,245,167,165,273,143,22,14,32,289,263,4,91,70,96,202,222,270,60,191,19,181,66,77,155,243,162,253,46,201,125,133,134,140]","arrowleft","","false","1","8","60","300","[""0044_N0300_K0060_CLIQUE"",""0063_N0300_K0060_NOCLIQUE""]"
"","","","","","audio-keyboard-response","137","443868","0.0-87.0-0.0-1.0","","null","audio_feedback/wrong/error01.mp3","null","","","","","1","8","60","300","[""0044_N0300_K0060_CLIQUE"",""0063_N0300_K0060_NOCLIQUE""]"
"","","","","","canvas-keyboard-response","138","446354","0.0-88.0-0.0-0.0","","2389","","arrowright","[183,2,299,61,171,294,198,127,119,277,115,24,44,257,199,250,204,194,163,254,103,272,108,223,206,50,121,32,76,49,193,228,149,109,284,120,218,45,248,209,203,130,274,80,98,71,12,156,112,38,137,92,296,258,288,247,224,144,9,173,195,35,215,39,243,146,176,232,111,67,113,155,186,30,230,168,125,148,97,160,107,231,267,263,91,33,246,72,122,78,70,5,216,185,101,217,253,234,205,292,287,278,123,220,117,26,192,74,63,106,22,271,69,268,293,37,104,58,51,233,255,99,60,172,131,264,14,177,59,79,187,96,175,28,29,245,261,47,152,102,31,3,42,249,169,197,182,242,286,11,145,141,244,202,211,200,110,280,133,240,283,147,276,229,100,282,237,15,207,94,86,260,158,290,93,136,265,213,7,239,87,138,126,142,17,281,270,53,269,166,10,139,153,159,214,129,295,157,180,6,297,18,140,212,236,57,196,279,262,77,75,226,151,41,181,179,65,27,222,252,66,208,16,124,54,227,85,143,19,132,64,90,210,114,154,188,8,48,20,174,235,105,256,73,225,291,178,150,84,189,190,118,128,273,298,275,43,23,201,266,89,161,1,289,25,52,82,88,40,55,135,4,68,259,13,81,95,162,184,241,36,134,0,219,164,238,56,165,83,62,21,170,285,251,191,46,167,34,221,116]","arrowright","","true","1","9","60","300","[""0034_N0300_K0060_NOCLIQUE"",""0054_N0300_K0060_CLIQUE""]"
"","","","","","audio-keyboard-response","139","446768","0.0-88.0-0.0-1.0","","null","audio_feedback/right/coin01.mp3","null","","","","","1","9","60","300","[""0034_N0300_K0060_NOCLIQUE"",""0054_N0300_K0060_CLIQUE""]"
"","","","","","canvas-keyboard-response","140","447744","0.0-89.0-0.0-0.0","","901","","arrowright","[137,226,145,84,203,47,113,119,156,165,172,46,5,256,106,96,237,270,92,63,134,60,147,123,209,187,90,178,207,67,138,290,177,268,175,225,44,246,253,191,0,85,98,202,299,223,261,26,144,125,36,124,22,276,183,70,241,214,294,35,57,281,150,267,20,248,206,127,12,280,104,8,192,110,91,259,15,197,3,13,229,195,228,272,168,230,121,210,131,162,69,100,160,88,171,50,297,17,24,296,107,102,141,194,1,212,53,151,208,184,284,68,249,82,148,173,222,139,233,39,152,41,232,122,30,216,201,198,43,59,157,220,78,58,288,126,275,19,245,235,286,182,274,29,242,115,143,285,75,282,250,116,170,81,158,205,263,132,289,185,271,117,80,287,72,219,262,169,188,28,16,89,164,111,114,247,293,128,161,87,179,7,21,159,265,79,45,140,213,278,255,234,258,55,211,266,86,153,76,227,136,279,48,56,33,49,180,61,283,217,95,181,135,37,97,291,231,292,167,74,142,109,239,23,34,25,9,196,257,240,71,133,129,10,174,42,273,130,52,27,236,101,2,221,94,118,176,105,186,163,120,18,93,200,11,31,4,238,65,99,77,218,277,6,149,243,269,251,32,14,40,260,224,51,83,103,244,154,62,298,295,199,155,204,166,64,38,112,66,190,254,108,264,193,215,252,54,189,146,73]","arrowright","","true","1","10","55","300","[""0029_N0300_K0055_NOCLIQUE"",""0082_N0300_K0055_CLIQUE""]"
"","","","","","audio-keyboard-response","141","448148","0.0-89.0-0.0-1.0","","null","audio_feedback/right/coin01.mp3","null","","","","","1","10","55","300","[""0029_N0300_K0055_NOCLIQUE"",""0082_N0300_K0055_CLIQUE""]"
"","","","","","canvas-keyboard-response","142","449410","0.0-90.0-0.0-0.0","","1189","","arrowright","[159,266,84,264,213,155,108,292,298,229,279,257,255,194,157,42,143,170,94,296,3,259,46,24,162,111,17,110,40,109,99,207,180,74,200,177,203,233,271,14,221,75,152,219,164,285,55,57,18,76,293,62,179,68,122,37,31,247,56,104,16,114,299,190,146,90,89,242,60,182,226,127,253,280,4,282,208,234,125,222,153,165,289,287,198,73,6,231,291,275,197,224,218,132,91,11,87,272,144,118,51,205,228,235,276,210,126,22,267,187,59,71,169,250,154,183,158,97,52,44,0,10,248,88,261,189,33,12,8,268,45,32,80,128,66,195,137,145,39,134,265,119,252,48,93,185,196,171,30,230,209,123,86,217,103,105,176,21,121,241,67,79,148,270,85,47,161,7,173,251,290,239,131,174,273,72,220,139,23,156,160,19,284,244,186,216,26,29,96,53,117,43,168,35,215,92,15,283,95,113,223,63,240,288,138,225,20,202,188,2,102,236,269,204,34,258,141,151,64,98,181,78,249,130,41,214,201,82,256,260,106,294,36,49,120,50,274,286,246,254,136,25,281,13,124,135,237,243,100,278,65,227,238,54,192,69,178,38,150,70,28,77,149,193,81,245,61,147,115,142,133,129,116,184,199,166,112,232,1,5,58,277,167,163,9,107,83,101,175,206,295,263,191,27,262,212,140,297,172,211]","arrowright","","true","1","11","55","300","[""0030_N0300_K0055_NOCLIQUE"",""0081_N0300_K0055_CLIQUE""]"
"","","","","","audio-keyboard-response","143","449829","0.0-90.0-0.0-1.0","","null","audio_feedback/right/coin01.mp3","null","","","","","1","11","55","300","[""0030_N0300_K0055_NOCLIQUE"",""0081_N0300_K0055_CLIQUE""]"
"","","","","","canvas-keyboard-response","144","452528","0.0-91.0-0.0-0.0","","2623","","arrowright","[215,285,169,86,133,126,260,208,100,231,42,105,79,101,108,102,8,12,121,148,63,249,49,220,5,223,66,186,97,96,196,292,46,192,217,294,20,115,54,139,122,296,239,61,193,200,36,70,1,299,111,112,11,7,107,60,149,246,201,162,71,224,134,124,120,16,92,237,234,210,190,277,250,238,131,235,284,290,82,248,19,55,23,243,62,77,48,50,128,230,158,242,293,259,245,106,130,164,168,212,216,117,132,109,81,206,278,30,89,183,274,258,288,261,4,129,65,17,113,28,56,267,280,94,137,22,283,184,166,24,103,265,221,2,219,156,295,68,125,34,150,276,266,227,15,297,199,141,279,254,281,182,204,127,232,136,165,59,228,185,37,160,75,57,95,145,161,116,286,177,88,256,99,147,263,233,47,9,13,67,44,118,74,211,69,202,25,27,264,119,144,85,207,138,209,76,255,98,151,257,38,289,45,225,181,240,241,271,175,174,180,3,114,157,229,58,72,163,291,270,155,53,251,10,83,153,214,123,41,39,91,21,222,159,253,262,31,205,73,247,14,282,172,268,110,275,93,146,0,287,189,52,213,171,35,191,236,135,176,187,188,273,32,272,173,26,298,170,142,78,152,195,51,90,198,87,40,269,29,33,140,197,143,218,64,18,6,154,43,167,80,84,178,244,104,179,203,194,226,252]","arrowleft","","false","1","12","50","300","[""0044_N0300_K0050_CLIQUE"",""0030_N0300_K0050_NOCLIQUE""]"
"","","","","","audio-keyboard-response","145","453128","0.0-91.0-0.0-1.0","","null","audio_feedback/wrong/error01.mp3","null","","","","","1","12","50","300","[""0044_N0300_K0050_CLIQUE"",""0030_N0300_K0050_NOCLIQUE""]"
"","","","","","canvas-keyboard-response","146","454033","0.0-92.0-0.0-0.0","","827","","arrowright","[230,276,258,265,128,219,197,130,146,256,66,247,294,104,22,49,108,249,67,283,51,82,38,161,172,136,99,107,47,160,93,163,271,19,272,13,178,36,115,177,298,33,238,194,236,154,180,9,60,135,92,218,109,28,243,151,267,138,179,170,140,12,42,98,46,3,257,14,279,248,188,183,285,23,254,58,75,166,111,196,227,239,30,216,251,27,124,129,173,127,148,174,87,222,297,18,246,149,7,118,181,235,141,229,94,237,48,123,117,45,83,284,200,262,100,96,215,240,228,185,134,175,25,206,275,76,192,145,17,190,53,199,59,113,255,56,295,182,203,57,212,259,11,125,150,6,106,292,71,252,171,231,202,189,263,110,55,37,195,84,40,281,277,245,32,5,86,121,50,187,88,89,273,184,224,29,139,242,69,52,116,193,16,211,95,191,234,77,105,288,213,132,289,169,208,80,152,102,97,266,207,44,164,15,162,176,221,20,296,260,142,156,167,126,63,143,137,62,209,233,68,205,210,244,43,201,103,31,214,10,186,291,225,2,79,4,290,280,158,41,269,144,253,286,21,35,241,223,114,54,268,90,217,133,261,131,278,34,159,1,81,24,198,147,26,153,91,250,226,0,119,112,78,274,39,65,74,165,73,72,157,282,168,64,287,101,61,8,293,204,264,122,120,270,220,85,232,299,70,155]","arrowright","","true","1","13","50","300","[""0004_N0300_K0050_NOCLIQUE"",""0073_N0300_K0050_CLIQUE""]"
"","","","","","audio-keyboard-response","147","454448","0.0-92.0-0.0-1.0","","null","audio_feedback/right/coin01.mp3","null","","","","","1","13","50","300","[""0004_N0300_K0050_NOCLIQUE"",""0073_N0300_K0050_CLIQUE""]"
"","","","","","canvas-keyboard-response","148","457185","0.0-93.0-0.0-0.0","","2660",""," ","[55,249,81,134,114,127,103,180,13,98,19,147,169,32,254,24,123,279,37,207,174,93,271,23,27,166,215,33,116,206,232,191,167,90,264,105,216,165,274,87,195,141,262,214,53,58,284,181,150,287,293,267,283,120,69,106,29,34,107,6,161,205,176,133,238,38,142,170,66,85,203,110,211,96,115,210,132,126,220,299,75,231,118,30,152,59,225,129,143,60,104,11,196,188,4,243,260,198,163,63,82,109,144,244,200,194,1,275,92,136,201,124,146,270,101,213,86,250,239,178,137,277,209,272,64,95,187,138,263,112,158,79,286,128,265,15,217,184,7,16,119,56,139,17,268,84,256,43,294,208,54,273,145,76,292,36,12,41,26,240,149,62,252,164,227,258,212,67,3,70,253,135,113,189,77,296,48,155,259,295,45,218,102,50,229,226,0,291,57,21,25,80,20,202,100,171,261,269,8,99,47,157,297,35,172,39,125,193,175,197,230,219,298,40,247,31,154,168,151,199,65,73,122,285,185,160,46,228,248,71,237,83,177,280,153,234,186,224,192,89,140,68,10,257,266,282,22,51,290,162,276,156,173,28,121,131,245,97,278,182,78,233,235,130,288,108,183,251,111,223,18,91,94,44,255,289,52,242,179,241,9,5,2,49,74,221,72,88,61,222,14,281,190,148,117,204,246,159,42,236]","arrowleft","","","1","14","45","300","[""0040_N0300_K0045_CLIQUE"",""0100_N0300_K0045_NOCLIQUE""]"
"","","","","","audio-keyboard-response","149","457788","0.0-93.0-0.0-1.0","","null","audio_feedback/shuffles/shuffle01.mp3","null","","","","","1","14","45","300","[""0040_N0300_K0045_CLIQUE"",""0100_N0300_K0045_NOCLIQUE""]"
"","","","","","canvas-keyboard-response","150","460977","0.0-93.1-0.1-0.1","","3117",""," ","[292,198,24,167,271,275,96,215,185,47,111,166,232,274,137,260,9,34,263,22,53,254,280,72,184,123,266,5,74,222,10,226,240,45,199,156,14,144,95,243,255,210,3,51,276,59,176,164,193,282,258,297,113,224,208,170,236,35,64,214,146,279,264,141,202,216,0,32,186,154,195,286,21,217,27,192,200,16,242,29,299,17,247,133,163,57,296,69,262,235,89,126,272,233,179,124,25,78,116,244,109,44,277,175,30,162,131,86,85,245,7,1,168,12,248,177,188,128,65,194,68,291,153,105,62,294,134,40,54,241,139,138,285,148,82,115,259,257,125,76,129,87,98,197,114,270,225,142,220,79,136,23,287,204,212,219,41,284,91,73,122,209,58,55,171,121,207,295,289,110,298,229,28,50,231,221,49,256,39,20,100,182,94,206,273,13,46,127,75,246,252,106,228,101,61,261,135,70,190,37,159,181,157,90,283,178,71,238,2,160,102,145,267,132,80,43,26,107,6,130,269,67,103,11,250,196,150,203,8,249,77,201,112,36,31,97,152,173,234,118,93,278,92,143,104,180,15,42,38,18,119,191,48,88,265,293,290,117,237,227,19,99,223,158,213,56,155,187,268,108,281,84,218,239,253,165,66,172,60,81,189,140,120,230,183,161,83,205,147,288,151,174,52,149,63,4,211,251,33,169]","arrowleft","","","1","14","45","300","[""0040_N0300_K0045_CLIQUE"",""0100_N0300_K0045_NOCLIQUE""]"
"","","","","","audio-keyboard-response","151","461548","0.0-93.1-0.1-1.1","","null","audio_feedback/shuffles/shuffle01.mp3","null","","","","","1","14","45","300","[""0040_N0300_K0045_CLIQUE"",""0100_N0300_K0045_NOCLIQUE""]"
"","","","","","canvas-keyboard-response","152","464341","0.0-93.2-0.2-0.2","","2724","","arrowright","[153,159,194,142,253,114,236,29,43,217,164,60,63,38,68,192,150,2,188,132,35,280,73,4,113,240,233,238,291,56,271,30,45,218,190,24,46,157,235,261,78,269,100,189,170,171,169,82,239,61,230,121,90,276,34,176,293,243,81,195,25,9,263,77,167,151,115,297,260,202,96,0,33,272,255,289,74,198,104,119,54,127,102,6,196,149,248,75,182,84,274,177,120,298,39,85,87,160,287,237,118,21,234,126,92,208,26,278,11,93,134,62,108,185,97,58,20,258,12,295,232,210,262,10,178,225,51,168,173,273,183,37,14,136,69,244,141,27,158,226,53,80,292,155,283,268,49,131,284,103,254,117,290,282,165,40,19,16,8,286,294,140,66,166,154,52,94,199,133,265,70,41,5,174,36,7,22,214,231,213,215,245,186,203,147,13,216,229,101,59,55,267,241,222,242,128,110,206,42,145,65,200,105,251,135,109,281,44,219,138,15,270,124,116,3,111,91,83,129,266,228,193,259,1,76,204,296,50,23,48,175,28,221,107,264,246,163,227,256,156,18,71,162,122,277,72,64,144,143,32,152,95,205,250,180,125,207,275,67,191,98,279,137,57,86,223,179,148,181,123,146,288,247,197,17,201,285,187,299,209,212,99,161,79,211,89,257,106,220,252,31,88,47,184,139,112,224,249,130,172]","arrowleft","","false","1","14","45","300","[""0040_N0300_K0045_CLIQUE"",""0100_N0300_K0045_NOCLIQUE""]"
"","","","","","audio-keyboard-response","153","464929","0.0-93.2-0.2-1.2","","null","audio_feedback/wrong/error01.mp3","null","","","","","1","14","45","300","[""0040_N0300_K0045_CLIQUE"",""0100_N0300_K0045_NOCLIQUE""]"
"","","","","","canvas-keyboard-response","154","467357","0.0-94.0-0.0-0.0","","2351","","arrowright","[155,184,211,284,39,84,48,61,101,136,147,40,204,175,179,62,87,43,241,74,13,293,251,107,135,133,32,59,230,141,195,72,166,111,183,51,168,247,273,113,75,200,120,263,237,82,88,246,42,189,217,71,70,99,215,257,279,27,104,15,50,94,90,269,191,297,97,278,52,139,47,98,256,242,239,198,5,169,83,165,78,93,162,16,23,56,67,228,35,123,248,187,181,85,220,276,243,244,44,267,19,185,12,288,148,282,209,8,275,33,291,142,86,131,151,66,171,260,64,68,146,122,250,262,174,194,206,161,138,124,121,125,234,255,299,212,236,253,79,77,157,69,156,245,6,167,240,266,112,25,102,140,73,219,154,160,271,145,259,28,21,280,129,216,188,173,164,292,249,57,106,225,233,95,285,109,281,20,286,41,222,192,218,152,34,231,80,177,214,127,92,298,22,24,207,10,213,172,232,14,45,114,178,130,105,170,60,287,274,290,36,9,3,31,272,210,283,110,58,143,203,277,1,2,108,182,132,137,53,119,229,81,63,149,65,190,158,91,153,226,265,201,238,268,54,264,261,17,252,0,26,4,180,100,296,55,89,115,116,18,221,7,270,134,38,193,196,11,295,37,117,49,235,199,208,128,227,159,197,224,126,223,294,176,258,29,103,202,254,150,144,289,118,46,163,76,96,30,205,186]","arrowright","","true","1","15","45","300","[""0094_N0300_K0045_NOCLIQUE"",""0033_N0300_K0045_CLIQUE""]"
"","","","","","audio-keyboard-response","155","467768","0.0-94.0-0.0-1.0","","null","audio_feedback/right/coin01.mp3","null","","","","","1","15","45","300","[""0094_N0300_K0045_NOCLIQUE"",""0033_N0300_K0045_CLIQUE""]"
"","","","","","canvas-keyboard-response","156","469474","0.0-95.0-0.0-0.0","","1631","","arrowright","[132,202,259,273,140,192,12,1,247,215,145,147,285,38,14,11,279,98,112,242,151,104,45,52,36,116,43,30,241,248,233,124,142,59,71,210,167,102,168,169,126,193,99,131,8,80,281,200,31,70,133,198,176,244,218,134,267,274,280,90,6,118,199,69,166,265,293,223,162,258,119,262,115,170,114,196,229,79,100,194,17,286,235,195,120,183,35,65,231,221,207,254,263,289,62,46,67,160,246,139,230,64,185,227,19,213,157,129,92,135,234,21,208,226,155,290,117,150,93,40,224,57,56,3,122,269,237,165,72,257,110,136,63,105,153,66,271,238,91,264,266,278,188,29,217,9,174,211,187,243,2,251,205,39,55,272,245,138,42,76,137,33,85,287,164,86,261,101,88,22,75,163,78,96,204,292,178,127,53,173,94,209,121,58,206,24,60,89,184,10,253,113,32,190,191,260,4,255,152,296,123,294,54,28,73,297,74,106,275,109,87,180,0,189,249,27,181,50,41,158,282,220,68,222,82,26,291,149,5,161,34,228,277,18,97,298,154,128,172,299,284,148,146,20,51,108,236,111,216,270,256,83,143,203,44,16,48,103,77,177,141,47,156,7,186,295,268,276,250,179,37,214,219,212,252,107,84,144,81,23,125,232,182,130,159,25,49,239,95,197,15,201,13,61,283,288,240,171,175,225]","arrowleft","","false","1","16","40","300","[""0068_N0300_K0040_CLIQUE"",""0064_N0300_K0040_NOCLIQUE""]"
"","","","","","audio-keyboard-response","157","470068","0.0-95.0-0.0-1.0","","null","audio_feedback/wrong/error01.mp3","null","","","","","1","16","40","300","[""0068_N0300_K0040_CLIQUE"",""0064_N0300_K0040_NOCLIQUE""]"
"","","","","","canvas-keyboard-response","158","475278","0.0-96.0-0.0-0.0","","5136","","arrowright","[3,160,149,188,289,12,222,221,217,11,77,227,236,202,20,72,122,140,93,52,248,232,75,114,43,22,61,31,70,135,283,264,23,154,86,8,67,278,95,25,33,83,211,270,165,252,265,110,133,57,225,98,73,291,59,125,148,48,279,204,38,170,183,254,298,197,184,292,108,228,230,296,109,284,277,272,238,173,121,5,41,200,185,287,10,269,218,32,166,116,143,196,290,219,129,233,13,105,84,42,127,144,80,158,68,1,151,40,91,119,250,113,234,297,276,257,153,17,6,213,255,141,39,220,274,106,235,51,237,299,150,180,215,177,142,246,249,4,171,28,78,293,49,145,55,66,74,92,176,65,231,261,266,209,245,102,107,286,111,130,97,34,137,229,131,118,214,147,288,47,21,216,267,128,29,139,82,168,85,50,263,187,203,117,27,258,207,282,58,100,191,46,259,89,79,45,146,239,56,247,64,36,192,60,294,96,212,16,101,241,156,174,164,206,189,273,208,194,275,181,162,199,253,226,285,242,205,175,69,115,53,163,169,224,132,268,198,280,62,243,157,195,63,136,37,182,193,155,201,123,14,30,0,178,120,35,103,19,262,81,44,152,210,90,179,24,54,2,161,15,104,138,94,26,99,71,240,167,251,295,223,76,18,7,271,88,124,112,9,190,244,134,281,260,159,126,186,256,87,172]","arrowleft","","false","1","17","40","300","[""0090_N0300_K0040_CLIQUE"",""0040_N0300_K0040_NOCLIQUE""]"
"","","","","","audio-keyboard-response","159","475868","0.0-96.0-0.0-1.0","","null","audio_feedback/wrong/error01.mp3","null","","","","","1","17","40","300","[""0090_N0300_K0040_CLIQUE"",""0040_N0300_K0040_NOCLIQUE""]"
"","","","","","canvas-keyboard-response","160","478506","0.0-97.0-0.0-0.0","","2565",""," ","[169,225,284,88,85,279,217,137,121,182,136,157,147,78,117,81,32,160,87,61,142,3,0,262,223,292,189,115,207,135,56,185,186,151,256,4,89,5,131,285,201,188,14,227,198,139,183,148,194,77,293,73,106,299,132,25,237,130,171,288,187,269,111,82,1,80,173,221,276,155,177,204,59,192,2,33,235,98,62,86,104,158,268,165,283,71,96,174,162,289,206,238,245,6,208,53,298,243,154,272,18,274,105,66,273,261,180,44,99,16,123,267,266,94,30,252,143,251,212,197,224,248,172,118,83,161,63,116,203,179,149,84,216,112,23,51,45,17,220,228,109,150,264,100,209,110,65,58,270,124,29,144,263,277,10,140,170,232,125,250,146,26,101,159,200,258,271,12,229,34,231,265,233,193,38,19,210,40,74,153,241,242,93,27,205,48,213,24,138,128,240,166,52,37,11,54,239,281,22,70,181,122,127,49,103,76,167,9,254,50,257,69,184,68,215,211,36,141,55,7,291,113,176,114,31,13,95,47,178,202,39,282,230,196,108,290,46,163,97,75,236,72,246,294,90,28,156,15,253,214,296,195,199,126,64,255,91,218,57,119,152,234,244,102,164,190,43,222,92,21,275,249,280,260,286,226,247,129,35,191,145,134,168,295,8,41,278,42,120,133,219,79,107,20,175,60,287,259,297,67]","arrowright","","","1","18","35","300","[""0012_N0300_K0035_NOCLIQUE"",""0066_N0300_K0035_CLIQUE""]"
"","","","","","audio-keyboard-response","161","479088","0.0-97.0-0.0-1.0","","null","audio_feedback/shuffles/shuffle01.mp3","null","","","","","1","18","35","300","[""0012_N0300_K0035_NOCLIQUE"",""0066_N0300_K0035_CLIQUE""]"
"","","","","","canvas-keyboard-response","162","481451","0.0-97.1-0.1-0.1","","2287","","arrowright","[255,74,18,22,28,125,47,56,157,171,293,9,82,149,49,250,121,273,124,108,169,6,213,115,25,86,210,270,202,83,68,268,23,295,134,219,24,15,290,201,94,10,248,266,60,91,145,298,241,163,279,73,70,45,187,64,280,117,140,174,20,132,191,225,182,75,33,243,59,96,35,95,222,261,262,285,109,185,99,65,267,39,184,283,238,131,251,221,232,235,8,253,98,167,160,197,223,239,13,51,211,276,284,135,136,128,112,42,207,271,164,254,277,215,61,193,147,138,139,143,54,180,106,119,245,12,26,17,93,242,170,118,249,256,259,120,113,206,246,282,50,14,168,133,240,173,165,127,269,111,278,79,77,30,27,244,97,84,11,31,142,2,234,40,263,237,46,158,176,204,220,162,7,287,52,192,101,34,38,78,155,166,175,92,122,226,188,296,209,67,116,233,144,203,90,154,76,216,53,32,218,137,161,16,186,151,58,105,110,194,288,260,200,212,231,123,208,291,130,196,5,43,146,36,41,80,104,195,265,181,71,141,190,1,48,199,177,81,3,153,289,179,87,129,274,281,236,57,272,148,258,62,227,55,159,102,214,299,292,152,183,224,150,247,264,85,0,198,217,178,252,89,72,294,100,4,29,257,107,88,228,63,126,297,66,37,21,275,103,114,172,230,286,44,205,156,19,69,189,229]","arrowright","","true","1","18","35","300","[""0012_N0300_K0035_NOCLIQUE"",""0066_N0300_K0035_CLIQUE""]"
"","","","","","audio-keyboard-response","163","481868","0.0-97.1-0.1-1.1","","null","audio_feedback/right/coin01.mp3","null","","","","","1","18","35","300","[""0012_N0300_K0035_NOCLIQUE"",""0066_N0300_K0035_CLIQUE""]"
