"success","timeout","failed_images","failed_audio","failed_video","trial_type","trial_index","time_elapsed","internal_node_id","view_history","rt","stimulus","response","nodes_order","correct_response","block_index","presentation_index","clique_size","graph_size","graphs_names","graphs_couple","accuracy"
"true","false","[]","[]","[]","preload","0","202","0.0-0.0","","","","","","","","","","","","",""
"","","","","","pavlovia","1","757","0.0-1.0","","","","","","","","","","","","",""
"","","","","","instructions","2","5205","0.0-2.0","[{""page_index"":0,""viewing_time"":3669},{""page_index"":1,""viewing_time"":774}]","4444","","","","","","","","","","",""
"true","false","[]","[]","[]","preload","3","5617","0.0-3.0","","","","","","","","","","","","",""
"","","","","","instructions","4","16991","0.0-4.0","[{""page_index"":0,""viewing_time"":779},{""page_index"":1,""viewing_time"":209},{""page_index"":2,""viewing_time"":306},{""page_index"":3,""viewing_time"":169},{""page_index"":4,""viewing_time"":158},{""page_index"":5,""viewing_time"":149},{""page_index"":6,""viewing_time"":150},{""page_index"":7,""viewing_time"":151},{""page_index"":8,""viewing_time"":167},{""page_index"":9,""viewing_time"":154},{""page_index"":10,""viewing_time"":161},{""page_index"":11,""viewing_time"":174},{""page_index"":12,""viewing_time"":175},{""page_index"":13,""viewing_time"":168},{""page_index"":14,""viewing_time"":174},{""page_index"":15,""viewing_time"":159},{""page_index"":16,""viewing_time"":162},{""page_index"":17,""viewing_time"":152},{""page_index"":18,""viewing_time"":168},{""page_index"":19,""viewing_time"":166},{""page_index"":20,""viewing_time"":143},{""page_index"":21,""viewing_time"":163},{""page_index"":22,""viewing_time"":153},{""page_index"":23,""viewing_time"":152},{""page_index"":24,""viewing_time"":154},{""page_index"":25,""viewing_time"":160},{""page_index"":26,""viewing_time"":154},{""page_index"":27,""viewing_time"":159},{""page_index"":28,""viewing_time"":172},{""page_index"":29,""viewing_time"":160},{""page_index"":30,""viewing_time"":186},{""page_index"":31,""viewing_time"":162},{""page_index"":32,""viewing_time"":171},{""page_index"":33,""viewing_time"":329},{""page_index"":34,""viewing_time"":331},{""page_index"":35,""viewing_time"":315},{""page_index"":36,""viewing_time"":190},{""page_index"":37,""viewing_time"":189},{""page_index"":38,""viewing_time"":184},{""page_index"":39,""viewing_time"":168},{""page_index"":40,""viewing_time"":158},{""page_index"":41,""viewing_time"":153},{""page_index"":42,""viewing_time"":819},{""page_index"":43,""viewing_time"":433},{""page_index"":44,""viewing_time"":246},{""page_index"":45,""viewing_time"":283},{""page_index"":46,""viewing_time"":309},{""page_index"":47,""viewing_time"":370},{""page_index"":48,""viewing_time"":231},{""page_index"":49,""viewing_time"":206},{""page_index"":50,""viewing_time"":165},{""page_index"":51,""viewing_time"":154}]","11374","","","","","","","","","","",""
"","","","","","instructions","5","20333","0.0-5.0","[{""page_index"":0,""viewing_time"":3341}]","3341","","","","","","","","","","",""
"true","false","[]","[]","[]","preload","6","20613","0.0-6.0","","","","","","","","","","","","",""
"","","","","","image-keyboard-response","7","22929","0.0-7.0","","2313","tutorial/task_familiarization_images/part 1/01_N160_K90_cliqueRight_question1.PNG"," ","","","","","","","","",""
"","","","","","image-keyboard-response","8","23611","0.0-8.0","","680","tutorial/task_familiarization_images/part 1/02_N160_K90_cliqueRight_question2.PNG"," ","","","","","","","","",""
"","","","","","image-keyboard-response","9","24073","0.0-9.0","","462","tutorial/task_familiarization_images/part 1/03_N160_K90_cliqueRight_question3.PNG","arrowright","","","","","","","","",""
"","","","","","image-keyboard-response","10","24805","0.0-10.0","","730","tutorial/task_familiarization_images/part 1/04_N160_K90_cliqueRight_solution.PNG"," ","","","","","","","","",""
"","","","","","image-keyboard-response","11","25913","0.0-11.0","","1107","tutorial/task_familiarization_images/part 1/05_N160_K65_cliqueRight_question1.PNG"," ","","","","","","","","",""
"","","","","","image-keyboard-response","12","27334","0.0-12.0","","1419","tutorial/task_familiarization_images/part 1/06_N160_K65_cliqueRight_question2.PNG"," ","","","","","","","","",""
"","","","","","image-keyboard-response","13","27901","0.0-13.0","","566","tutorial/task_familiarization_images/part 1/07_N160_K65_cliqueRight_question3.PNG","arrowright","","","","","","","","",""
"","","","","","image-keyboard-response","14","28478","0.0-14.0","","576","tutorial/task_familiarization_images/part 1/08_N160_K65_cliqueRight_solution.PNG"," ","","","","","","","","",""
"","","","","","image-keyboard-response","15","29702","0.0-15.0","","1223","tutorial/task_familiarization_images/part 1/09_N160_K50_cliqueLeft_question1.PNG"," ","","","","","","","","",""
"","","","","","image-keyboard-response","16","32514","0.0-16.0","","2811","tutorial/task_familiarization_images/part 1/10_N160_K50_cliqueLeft_question2.PNG"," ","","","","","","","","",""
"","","","","","image-keyboard-response","17","33533","0.0-17.0","","1017","tutorial/task_familiarization_images/part 1/11_N160_K50_cliqueLeft_question3.PNG","arrowleft","","","","","","","","",""
"","","","","","image-keyboard-response","18","34297","0.0-18.0","","763","tutorial/task_familiarization_images/part 1/12_N160_K50_cliqueLeft_solution.PNG"," ","","","","","","","","",""
"","","","","","image-keyboard-response","19","35913","0.0-19.0","","1615","tutorial/task_familiarization_images/part 1/13_N160_K80_cliqueLeft_question1.PNG"," ","","","","","","","","",""
"","","","","","image-keyboard-response","20","36389","0.0-20.0","","475","tutorial/task_familiarization_images/part 1/14_N160_K80_cliqueLeft_question2.PNG"," ","","","","","","","","",""
"","","","","","image-keyboard-response","21","36830","0.0-21.0","","441","tutorial/task_familiarization_images/part 1/15_N160_K80_cliqueLeft_question3.PNG","arrowleft","","","","","","","","",""
"","","","","","image-keyboard-response","22","37193","0.0-22.0","","361","tutorial/task_familiarization_images/part 1/16_N160_K80_cliqueLeft_solution.PNG"," ","","","","","","","","",""
"","","","","","image-keyboard-response","23","37737","0.0-23.0","","543","tutorial/task_familiarization_images/part 1/17_N160_K40_cliqueRight_question1.PNG"," ","","","","","","","","",""
"","","","","","image-keyboard-response","24","39634","0.0-24.0","","1896","tutorial/task_familiarization_images/part 1/18_N160_K40_cliqueRight_question2.PNG"," ","","","","","","","","",""
"","","","","","image-keyboard-response","25","40753","0.0-25.0","","1118","tutorial/task_familiarization_images/part 1/19_N160_K40_cliqueRight_question3.PNG","arrowright","","","","","","","","",""
"","","","","","image-keyboard-response","26","41640","0.0-26.0","","886","tutorial/task_familiarization_images/part 1/20_N160_K40_cliqueRight_solution.PNG"," ","","","","","","","","",""
"","","","","","image-keyboard-response","27","43314","0.0-27.0","","1673","tutorial/task_familiarization_images/part 1/21_N160_K70_cliqueLeft_question1.PNG"," ","","","","","","","","",""
"","","","","","image-keyboard-response","28","43912","0.0-28.0","","597","tutorial/task_familiarization_images/part 1/22_N160_K70_cliqueLeft_question2.PNG"," ","","","","","","","","",""
"","","","","","image-keyboard-response","29","44282","0.0-29.0","","368","tutorial/task_familiarization_images/part 1/23_N160_K70_cliqueLeft_question3.PNG","arrowleft","","","","","","","","",""
"","","","","","image-keyboard-response","30","44803","0.0-30.0","","520","tutorial/task_familiarization_images/part 1/24_N160_K70_cliqueLeft_solution.PNG"," ","","","","","","","","",""
"true","false","[]","[]","[]","preload","31","47750","0.0-31.0","","","","","","","","","","","","",""
"","","","","","image-keyboard-response","32","54280","0.0-32.0","","6529","tutorial/task_familiarization_images/part 2/01_160_80_cliqueLeft_withFeedback_1.PNG"," ","","","","","","","","",""
"","","","","","image-keyboard-response","33","55104","0.0-33.0","","823","tutorial/task_familiarization_images/part 2/02_160_80_cliqueLeft_withFeedback_1.PNG"," ","","","","","","","","",""
"","","","","","image-keyboard-response","34","57477","0.0-34.0","","2373","tutorial/task_familiarization_images/part 2/03_160_80_cliqueLeft_withFeedback_3.PNG","arrowleft","","","","","","","","",""
"","","","","","image-keyboard-response","35","58340","0.0-35.0","","861","tutorial/task_familiarization_images/part 2/04_160_80_cliqueLeft_withFeedback_correct.PNG"," ","","","","","","","","",""
"","","","","","image-keyboard-response","36","59203","0.0-36.0","","862","tutorial/task_familiarization_images/part 2/05_160_55_cliqueRight_withFeedback_1.PNG"," ","","","","","","","","",""
"","","","","","image-keyboard-response","37","61490","0.0-37.0","","2286","tutorial/task_familiarization_images/part 2/06_160_55_cliqueRight_withFeedback_2.PNG"," ","","","","","","","","",""
"","","","","","image-keyboard-response","38","64797","0.0-38.0","","3306","tutorial/task_familiarization_images/part 2/07_160_55_cliqueRight_withFeedback_3.PNG","arrowleft","","","","","","","","",""
"","","","","","image-keyboard-response","39","66081","0.0-39.0","","1283","tutorial/task_familiarization_images/part 2/08_160_55_cliqueRight_withFeedback_wrong.PNG"," ","","","","","","","","",""
"","","","","","image-keyboard-response","40","67119","0.0-40.0","","1037","tutorial/task_familiarization_images/part 2/09_160_70_cliqueLeft_withFeedback_1.PNG"," ","","","","","","","","",""
"","","","","","image-keyboard-response","41","68422","0.0-41.0","","1301","tutorial/task_familiarization_images/part 2/10_160_70_cliqueLeft_withFeedback_2.PNG"," ","","","","","","","","",""
"","","","","","image-keyboard-response","42","69529","0.0-42.0","","1106","tutorial/task_familiarization_images/part 2/11_160_70_cliqueLeft_withFeedback_3.PNG","arrowleft","","","","","","","","",""
"","","","","","image-keyboard-response","43","70184","0.0-43.0","","640","tutorial/task_familiarization_images/part 2/12_160_70_cliqueLeft_withFeedback_correct.PNG"," ","","","","","","","","",""
"","","","","","survey-html-form","44","76298","0.0-44.0","","6111","","{""gender"":""female"",""age"":""25""}","","","","","","","","",""
"","","","","","instructions","45","77292","0.0-45.0","[{""page_index"":0,""viewing_time"":992}]","993","","","","","","","","","","",""
"true","","","","","fullscreen","46","80541","0.0-47.0","","","","","","","","","","","","",""
"","","","","","canvas-keyboard-response","47","83836","0.0-48.0-0.0-0.0","","3090",""," ","[10,18,183,259,163,78,33,122,209,184,216,254,129,95,215,150,47,55,66,63,70,9,161,92,177,256,204,8,113,236,64,27,86,237,144,162,211,87,20,73,75,238,126,235,38,261,146,169,277,100,35,5,105,141,77,186,0,206,154,193,253,226,241,80,107,266,229,41,164,269,153,249,89,224,29,201,171,145,133,175,143,194,181,279,179,138,39,284,276,132,207,16,26,160,1,223,255,221,172,57,124,40,65,291,260,290,49,54,81,119,14,61,59,79,7,220,286,152,82,116,233,198,76,23,263,282,74,271,247,109,48,294,44,196,214,43,246,275,191,131,225,13,36,167,140,137,281,262,114,158,21,62,4,156,67,273,187,243,278,292,31,85,37,219,30,28,248,102,212,159,155,188,94,98,283,170,50,296,52,200,104,148,130,264,227,96,166,244,91,127,251,231,270,106,15,192,240,46,182,174,203,22,53,51,297,101,19,97,268,245,217,111,84,108,274,222,202,230,213,110,17,25,68,71,210,185,258,90,125,272,208,289,115,173,24,199,93,139,218,176,58,293,117,228,157,288,123,72,56,267,83,32,120,299,136,128,69,239,34,280,3,250,189,242,99,165,287,195,295,134,2,285,103,142,147,118,135,197,11,112,151,252,12,298,60,257,265,42,6,190,205,232,168,149,121,180,45,234,178,88]","arrowleft","0","0","90","300","[""0070_N0300_K0090_CLIQUE"",""0028_N0300_K0090_NOCLIQUE""]","",""
"","","","","","audio-keyboard-response","48","84955","0.0-48.0-0.0-1.0","","null","audio_feedback/shuffles/shuffle01.mp3","null","","","0","0","90","300","[""0070_N0300_K0090_CLIQUE"",""0028_N0300_K0090_NOCLIQUE""]","",""
"","","","","","canvas-keyboard-response","49","88103","0.0-48.1-0.1-0.1","","2962",""," ","[250,159,71,238,154,295,48,78,206,62,52,285,32,46,45,53,74,47,29,105,101,4,182,255,103,116,142,70,228,270,205,222,114,59,174,44,247,195,180,246,200,262,108,42,141,219,77,51,68,84,272,224,173,94,208,72,193,288,239,97,34,162,115,231,163,235,123,137,5,146,134,16,293,22,232,138,91,281,218,66,23,245,31,38,254,170,252,127,125,256,100,185,164,56,106,124,204,198,83,253,249,36,96,98,275,79,243,54,92,41,40,241,8,172,10,177,107,201,263,65,279,233,197,283,230,153,111,21,227,169,215,18,192,296,176,61,166,35,217,271,136,152,260,6,199,145,269,161,266,149,17,237,2,139,267,259,226,148,297,187,135,113,158,156,276,120,122,19,196,39,27,117,181,132,175,12,58,261,155,277,11,299,55,24,191,210,212,157,128,171,25,144,143,183,151,291,194,190,7,211,278,33,133,258,188,129,207,273,1,265,73,236,121,3,104,28,268,90,63,234,109,80,216,244,140,89,119,93,20,274,167,86,85,112,76,160,13,87,82,298,202,209,50,213,95,186,282,0,60,69,289,99,214,184,37,150,88,240,178,118,292,242,251,168,189,264,81,57,26,126,49,280,248,9,75,64,165,257,102,225,287,290,131,221,223,43,14,220,67,110,203,286,30,130,284,15,294,147,229,179]","arrowleft","0","0","90","300","[""0070_N0300_K0090_CLIQUE"",""0028_N0300_K0090_NOCLIQUE""]","",""
"","","","","","audio-keyboard-response","50","88665","0.0-48.1-0.1-1.1","","null","audio_feedback/shuffles/shuffle01.mp3","null","","","0","0","90","300","[""0070_N0300_K0090_CLIQUE"",""0028_N0300_K0090_NOCLIQUE""]","",""
"","","","","","canvas-keyboard-response","51","89687","0.0-48.2-0.2-0.2","","835","","arrowleft","[150,79,3,160,170,78,12,224,190,171,289,271,86,276,241,273,173,226,200,227,257,97,80,212,275,264,121,11,13,110,113,62,218,23,225,182,63,95,56,33,83,258,232,76,139,263,234,24,128,272,149,261,246,29,117,229,48,135,0,8,31,119,259,52,77,222,105,50,148,169,21,201,123,118,19,112,297,34,108,102,165,252,27,60,25,210,249,217,278,44,53,209,91,92,157,213,228,196,71,133,45,146,205,142,245,137,290,69,1,155,41,233,66,274,2,154,168,277,236,132,87,9,74,152,280,191,84,120,32,59,194,55,270,242,107,285,204,189,93,47,203,176,58,253,202,159,6,22,115,143,156,214,260,192,269,296,282,100,238,4,256,57,262,101,103,158,193,181,35,299,36,18,130,70,106,206,292,208,268,283,116,174,39,219,134,243,43,7,68,195,254,231,122,38,14,288,207,185,46,114,20,179,153,199,37,26,104,151,126,230,247,127,287,162,166,223,198,147,75,88,17,129,221,64,178,73,255,237,42,251,187,67,131,163,16,211,215,248,216,164,298,141,28,54,90,175,284,183,40,145,293,10,111,177,267,82,109,140,136,184,124,15,51,72,99,186,220,188,5,295,180,250,265,30,94,96,98,161,286,138,172,240,89,279,294,65,125,49,281,244,81,61,291,235,239,144,197,266,167,85]","arrowleft","0","0","90","300","[""0070_N0300_K0090_CLIQUE"",""0028_N0300_K0090_NOCLIQUE""]","","true"
"","","","","","audio-keyboard-response","52","90116","0.0-48.2-0.2-1.2","","null","audio_feedback/right/coin01.mp3","null","","","0","0","90","300","[""0070_N0300_K0090_CLIQUE"",""0028_N0300_K0090_NOCLIQUE""]","",""
"","","","","","canvas-keyboard-response","53","95971","0.0-49.0-0.0-0.0","","5702",""," ","[150,206,219,261,250,147,274,100,34,192,23,262,82,3,243,15,284,196,153,224,66,19,167,152,81,127,249,184,212,143,177,70,221,209,88,38,228,172,31,54,292,275,28,24,213,112,62,283,203,208,12,99,245,239,179,118,231,93,230,10,18,86,280,270,85,188,64,287,87,234,165,235,63,298,72,248,293,107,129,121,60,149,36,137,67,116,178,132,260,217,8,79,94,138,256,291,276,244,288,294,164,56,1,299,156,269,181,119,91,174,253,89,200,216,41,61,264,140,279,84,247,52,210,133,225,227,195,103,226,157,282,2,40,236,173,233,117,241,223,104,199,130,33,97,238,144,47,125,120,254,0,73,13,158,74,128,77,75,111,106,166,71,187,76,59,32,277,141,98,182,162,278,135,194,11,295,139,44,146,115,109,176,205,242,161,16,214,266,160,42,185,57,96,124,101,58,201,202,155,289,27,25,268,45,20,69,251,14,9,154,29,259,237,95,290,78,49,113,39,246,180,229,30,186,148,4,263,255,297,134,48,26,37,53,5,296,142,159,92,105,265,204,83,7,272,193,273,90,21,286,102,35,163,151,17,114,22,189,232,126,65,145,267,271,218,169,211,191,258,240,131,207,220,80,175,43,122,6,123,108,68,136,110,171,55,215,51,170,197,257,183,281,252,46,50,198,285,168,190,222]","arrowleft","0","1","90","300","[""0023_N0300_K0090_CLIQUE"",""0011_N0300_K0090_NOCLIQUE""]","",""
"","","","","","audio-keyboard-response","54","96538","0.0-49.0-0.0-1.0","","null","audio_feedback/shuffles/shuffle01.mp3","null","","","0","1","90","300","[""0023_N0300_K0090_CLIQUE"",""0011_N0300_K0090_NOCLIQUE""]","",""
"","","","","","canvas-keyboard-response","55","98151","0.0-49.1-0.1-0.1","","1452","","arrowleft","[267,99,70,69,178,55,111,201,202,174,104,183,296,173,144,221,34,112,165,79,0,40,195,231,33,139,128,168,297,274,270,237,124,244,156,102,53,218,203,287,268,23,143,120,284,151,65,179,45,74,71,118,211,29,48,108,130,175,67,295,185,28,88,6,7,47,90,93,246,25,291,78,31,177,238,269,188,204,119,279,182,9,236,84,20,133,38,43,92,132,227,36,76,162,123,271,44,281,258,101,149,127,52,137,159,62,95,262,223,282,263,51,26,160,80,141,117,83,61,222,81,82,257,110,261,146,214,113,138,280,11,298,85,290,245,157,289,205,2,126,260,22,1,155,77,217,5,176,94,278,148,229,272,114,167,56,153,259,247,161,140,187,200,3,190,266,208,17,224,106,150,72,13,60,75,299,242,184,294,73,15,121,210,96,16,122,288,256,125,32,170,49,58,87,103,39,35,154,105,91,277,252,12,285,19,147,265,163,98,250,42,255,66,89,100,243,213,207,164,64,197,283,30,135,142,129,8,216,192,50,131,107,169,254,57,253,180,234,134,21,241,10,199,136,171,276,191,249,18,86,275,239,109,209,230,63,235,264,27,206,219,37,251,68,46,115,248,54,158,14,225,4,220,97,189,186,293,152,172,228,240,194,145,181,226,232,116,233,198,215,193,212,59,292,273,196,286,24,166,41]","arrowleft","0","1","90","300","[""0023_N0300_K0090_CLIQUE"",""0011_N0300_K0090_NOCLIQUE""]","","true"
"","","","","","audio-keyboard-response","56","98564","0.0-49.1-0.1-1.1","","null","audio_feedback/right/coin01.mp3","null","","","0","1","90","300","[""0023_N0300_K0090_CLIQUE"",""0011_N0300_K0090_NOCLIQUE""]","",""
"","","","","","canvas-keyboard-response","57","100166","0.0-50.0-0.0-0.0","","1456",""," ","[57,298,69,84,174,247,272,37,83,66,231,234,80,254,28,297,265,188,6,209,67,148,219,184,269,197,141,288,52,253,118,163,154,116,157,270,284,224,175,152,246,150,244,250,235,86,241,68,65,147,50,26,258,166,46,198,176,88,245,251,10,48,236,74,123,299,54,30,186,7,228,63,230,2,125,180,58,140,294,133,183,40,24,237,39,131,16,99,233,178,81,0,199,276,11,15,252,223,33,249,70,34,32,111,114,206,261,76,214,262,215,22,212,95,51,192,229,291,1,135,292,136,132,100,277,203,177,73,216,217,102,134,4,91,130,193,43,101,110,92,109,287,274,87,156,173,295,290,238,8,19,267,126,165,108,14,105,149,122,36,187,18,121,44,38,273,195,12,266,96,190,20,71,243,213,158,279,97,210,257,200,82,155,167,56,55,285,289,78,138,161,227,144,89,260,31,248,159,164,282,61,42,222,60,271,137,106,169,191,115,35,75,128,281,29,79,146,240,90,112,221,259,23,107,94,194,242,27,93,280,201,72,218,268,162,232,286,17,143,226,77,255,170,181,151,25,185,211,278,47,129,104,202,283,127,204,256,171,124,5,220,13,103,172,62,45,117,225,53,168,208,196,264,59,49,64,293,119,3,142,205,9,145,179,275,120,85,113,207,139,160,182,21,263,98,239,189,41,296,153]","arrowleft","0","2","80","300","[""0032_N0300_K0080_CLIQUE"",""0064_N0300_K0080_NOCLIQUE""]","",""
"","","","","","audio-keyboard-response","58","100740","0.0-50.0-0.0-1.0","","null","audio_feedback/shuffles/shuffle01.mp3","null","","","0","2","80","300","[""0032_N0300_K0080_CLIQUE"",""0064_N0300_K0080_NOCLIQUE""]","",""
"","","","","","canvas-keyboard-response","59","101713","0.0-50.1-0.1-0.1","","817",""," ","[42,205,130,121,88,283,191,20,64,90,128,60,0,194,295,26,231,198,232,86,14,78,36,228,107,256,95,251,7,167,182,4,276,15,87,217,126,269,94,85,70,24,293,79,56,176,162,195,160,140,179,136,3,275,292,290,157,229,175,108,62,189,227,18,77,145,199,250,66,299,153,104,80,244,142,185,84,82,51,282,120,241,286,57,6,234,212,249,101,50,59,177,284,2,49,34,264,76,123,27,39,216,109,287,262,151,68,55,11,236,254,9,184,83,71,235,207,91,41,210,89,204,106,149,248,214,192,31,111,99,16,164,211,187,270,135,119,238,225,243,97,230,147,224,38,273,221,156,196,127,148,223,172,81,271,23,30,169,43,255,159,63,260,48,105,92,158,209,168,171,206,13,218,22,35,69,246,10,272,72,133,188,110,32,61,141,52,122,74,202,258,25,208,240,143,280,137,5,197,47,219,54,146,115,239,28,8,181,1,129,113,116,296,45,253,294,73,132,200,165,58,37,281,139,96,226,103,33,279,65,29,252,298,277,237,183,100,112,261,44,245,124,152,274,186,67,268,190,12,247,166,193,98,291,278,266,93,289,19,265,220,297,134,17,203,215,259,40,257,163,114,131,213,170,125,138,173,46,150,263,154,75,117,53,102,288,144,118,222,267,242,178,161,174,201,180,285,21,155,233]","arrowleft","0","2","80","300","[""0032_N0300_K0080_CLIQUE"",""0064_N0300_K0080_NOCLIQUE""]","",""
"","","","","","audio-keyboard-response","60","102277","0.0-50.1-0.1-1.1","","null","audio_feedback/shuffles/shuffle01.mp3","null","","","0","2","80","300","[""0032_N0300_K0080_CLIQUE"",""0064_N0300_K0080_NOCLIQUE""]","",""
"","","","","","canvas-keyboard-response","61","103587","0.0-50.2-0.2-0.2","","1155",""," ","[171,115,18,81,21,8,114,39,132,94,244,22,168,17,177,139,290,273,148,7,211,79,122,262,181,153,86,292,252,207,117,127,198,295,238,250,36,259,299,6,221,272,193,48,106,141,278,195,190,176,284,257,84,241,147,164,231,271,145,267,233,5,110,224,42,184,203,46,35,286,169,232,99,236,12,10,229,285,200,217,55,170,156,212,289,208,160,98,201,123,226,143,82,172,1,155,239,258,297,178,261,182,109,51,293,104,103,144,66,91,124,159,152,129,276,133,24,88,227,67,78,3,4,29,41,73,154,77,249,213,163,54,25,253,214,136,126,70,28,72,107,11,183,254,202,56,74,101,282,95,269,256,197,30,134,52,116,166,112,49,2,90,68,14,58,230,20,268,157,75,71,235,97,13,151,283,100,137,45,291,108,23,266,245,83,296,149,191,240,205,128,242,31,188,294,194,275,165,158,225,216,189,218,64,204,220,287,85,111,237,105,61,53,162,138,187,0,247,192,37,16,118,32,210,146,135,80,281,255,27,206,63,43,209,96,62,167,38,251,60,279,263,215,298,121,26,265,40,199,19,119,140,102,89,223,130,174,50,161,270,150,113,180,264,179,125,34,186,173,246,260,234,243,277,222,57,120,92,248,76,44,69,280,142,219,131,228,65,33,175,59,288,87,15,9,47,196,274,185,93]","arrowleft","0","2","80","300","[""0032_N0300_K0080_CLIQUE"",""0064_N0300_K0080_NOCLIQUE""]","",""
"","","","","","audio-keyboard-response","62","104153","0.0-50.2-0.2-1.2","","null","audio_feedback/shuffles/shuffle01.mp3","null","","","0","2","80","300","[""0032_N0300_K0080_CLIQUE"",""0064_N0300_K0080_NOCLIQUE""]","",""
"","","","","","canvas-keyboard-response","63","105944","0.0-50.3-0.3-0.3","","1641",""," ","[25,232,189,144,275,271,83,282,138,286,163,55,142,197,77,47,86,24,141,102,10,264,88,194,279,107,15,191,131,204,274,124,196,289,8,171,18,104,186,174,254,71,109,187,99,179,277,119,176,251,210,30,5,63,238,132,215,0,69,230,294,256,118,70,152,103,11,113,28,198,12,278,203,72,53,54,95,242,23,207,164,92,58,156,82,140,146,267,202,40,51,127,81,285,269,208,3,34,290,2,257,199,263,228,110,155,143,283,121,125,35,19,16,65,167,266,224,258,296,94,169,299,268,38,160,105,78,61,252,123,195,120,175,218,50,126,145,29,170,293,66,48,64,188,1,122,115,280,73,87,200,297,211,222,183,162,181,134,137,190,262,270,213,259,129,130,244,90,261,56,101,237,6,159,292,212,247,14,240,32,150,288,67,37,36,106,147,44,298,180,135,80,166,205,108,287,250,21,26,148,221,98,157,226,281,39,192,246,214,161,225,173,60,79,249,31,260,265,154,153,62,75,13,7,4,255,17,243,223,233,253,165,239,220,117,76,273,291,158,201,97,128,217,229,20,206,168,151,248,178,136,227,89,114,182,57,45,245,27,219,43,235,184,133,236,111,149,49,241,42,284,96,172,216,41,139,84,295,46,93,234,74,22,185,193,112,68,100,209,91,59,272,9,33,177,116,52,85,276,231]","arrowleft","0","2","80","300","[""0032_N0300_K0080_CLIQUE"",""0064_N0300_K0080_NOCLIQUE""]","",""
"","","","","","audio-keyboard-response","64","106521","0.0-50.3-0.3-1.3","","null","audio_feedback/shuffles/shuffle01.mp3","null","","","0","2","80","300","[""0032_N0300_K0080_CLIQUE"",""0064_N0300_K0080_NOCLIQUE""]","",""
"","","","","","canvas-keyboard-response","65","107607","0.0-50.4-0.4-0.4","","942",""," ","[215,71,145,241,32,275,123,34,182,60,148,139,80,4,74,216,63,16,154,114,102,243,111,153,149,150,269,294,248,212,23,52,113,240,292,196,207,247,282,69,291,58,141,131,48,297,78,53,13,50,242,106,59,118,132,201,33,257,88,143,2,79,280,272,140,31,173,223,93,162,209,208,49,24,163,25,27,283,293,277,187,6,37,271,299,174,157,198,264,22,259,221,101,232,115,65,210,100,190,64,92,268,177,35,126,130,164,51,99,5,295,239,18,136,68,73,175,21,54,219,253,42,171,237,228,230,151,184,160,28,254,91,195,191,289,258,12,36,214,251,218,231,276,284,8,112,267,26,180,9,274,138,229,220,296,107,95,15,205,43,203,194,30,204,103,121,116,104,1,146,286,260,81,170,222,288,188,245,238,56,108,281,179,87,168,200,98,90,110,186,124,290,7,67,86,193,262,142,109,165,246,244,178,44,166,19,133,250,75,89,226,225,172,66,129,47,252,83,287,202,134,3,17,14,85,234,156,266,96,0,128,233,105,144,84,192,183,147,161,10,155,40,94,62,97,20,82,199,137,46,57,45,125,206,263,76,256,236,185,127,270,255,61,41,224,213,120,217,249,135,119,77,235,167,72,122,176,278,211,227,273,152,55,159,70,11,265,117,169,29,158,38,261,181,39,197,189,285,279,298]","arrowleft","0","2","80","300","[""0032_N0300_K0080_CLIQUE"",""0064_N0300_K0080_NOCLIQUE""]","",""
"","","","","","audio-keyboard-response","66","108164","0.0-50.4-0.4-1.4","","null","audio_feedback/shuffles/shuffle01.mp3","null","","","0","2","80","300","[""0032_N0300_K0080_CLIQUE"",""0064_N0300_K0080_NOCLIQUE""]","",""
"","","","","","canvas-keyboard-response","67","110510","0.0-50.5-0.5-0.5","","2237","","arrowleft","[200,234,35,195,83,82,57,167,273,207,93,294,106,126,247,154,78,70,115,7,17,21,210,131,182,120,190,283,60,297,251,198,168,299,135,137,298,184,89,39,25,62,91,219,288,51,170,258,228,84,214,289,110,246,237,271,36,18,187,242,0,239,67,64,14,102,191,80,180,75,162,92,43,112,248,213,3,174,186,215,230,76,72,166,23,260,223,231,269,124,143,146,221,181,250,220,134,222,79,155,263,4,270,267,116,130,164,68,123,185,129,44,40,241,86,262,265,256,261,2,151,96,108,26,59,229,24,276,176,28,81,140,98,254,122,121,209,268,238,19,69,189,192,88,42,172,50,85,58,290,175,20,157,97,266,173,295,71,144,287,171,13,280,73,226,232,119,52,255,99,48,109,203,296,114,161,204,286,29,227,158,282,249,127,15,22,211,61,285,208,132,178,197,104,49,10,264,284,94,107,45,12,206,63,236,46,1,103,141,90,153,201,95,27,196,245,179,37,147,113,218,278,202,128,240,136,56,16,156,54,217,274,77,149,47,275,150,138,259,194,139,225,183,41,117,55,277,101,193,152,233,252,33,160,66,177,5,34,118,111,291,133,281,74,65,11,243,9,292,279,163,53,235,216,169,272,8,257,148,142,105,253,145,30,205,159,31,87,244,100,293,32,199,188,224,125,38,165,212,6]","arrowleft","0","2","80","300","[""0032_N0300_K0080_CLIQUE"",""0064_N0300_K0080_NOCLIQUE""]","","true"
"","","","","","audio-keyboard-response","68","110938","0.0-50.5-0.5-1.5","","null","audio_feedback/right/coin01.mp3","null","","","0","2","80","300","[""0032_N0300_K0080_CLIQUE"",""0064_N0300_K0080_NOCLIQUE""]","",""
"","","","","","canvas-keyboard-response","69","112929","0.0-51.0-0.0-0.0","","1920",""," ","[147,227,118,130,25,124,26,71,234,106,58,51,178,122,230,79,135,268,64,269,213,115,85,86,90,39,165,155,144,256,293,29,88,163,246,9,0,84,252,289,295,187,192,116,67,42,279,218,140,249,104,117,158,199,43,32,22,1,16,59,66,194,133,219,283,198,170,81,189,13,172,221,105,48,112,157,276,14,296,174,137,173,182,211,44,38,129,4,145,186,89,290,224,45,65,226,195,183,94,271,74,282,146,260,179,73,188,96,138,125,291,162,55,70,191,181,223,248,83,241,80,166,30,50,21,17,87,214,212,132,202,97,111,11,136,23,20,184,52,203,127,258,200,287,15,164,27,255,123,245,91,297,8,220,75,6,18,95,109,193,121,250,99,72,76,264,151,196,46,204,175,206,7,275,267,217,148,128,261,167,57,142,259,242,228,154,126,161,237,278,113,139,19,37,28,69,171,247,265,294,273,35,233,120,103,93,82,110,277,150,284,152,210,92,10,222,49,108,61,119,168,78,180,41,262,68,288,31,197,131,176,177,299,286,236,232,34,98,101,243,209,159,160,272,298,280,60,62,40,201,53,107,156,285,12,281,292,216,100,141,153,225,257,240,266,54,102,149,5,190,56,235,47,207,143,169,231,270,3,33,215,274,185,254,253,24,251,229,208,77,263,239,205,134,238,36,63,114,244,2]","arrowleft","0","3","80","300","[""0008_N0300_K0080_CLIQUE"",""0027_N0300_K0080_NOCLIQUE""]","",""
"","","","","","audio-keyboard-response","70","113497","0.0-51.0-0.0-1.0","","null","audio_feedback/shuffles/shuffle01.mp3","null","","","0","3","80","300","[""0008_N0300_K0080_CLIQUE"",""0027_N0300_K0080_NOCLIQUE""]","",""
"","","","","","canvas-keyboard-response","71","114481","0.0-51.1-0.1-0.1","","907",""," ","[75,94,51,261,211,204,293,59,278,201,24,114,15,52,4,226,286,120,250,20,79,40,135,84,252,27,294,284,155,89,297,257,126,32,57,299,216,127,33,1,197,16,22,78,96,122,160,113,100,239,187,194,270,205,267,176,202,188,129,249,46,109,199,82,102,49,156,10,259,133,2,273,277,235,241,185,183,141,107,158,60,196,88,295,21,245,45,165,288,104,208,106,263,214,180,152,72,162,105,83,63,56,8,154,38,272,274,112,223,255,203,192,242,244,116,124,55,218,253,29,35,265,207,247,166,103,248,181,130,132,118,121,85,3,23,290,256,28,151,18,90,115,167,87,228,149,173,213,6,271,7,142,281,172,243,144,169,12,233,68,17,291,287,5,74,229,237,200,232,251,258,157,184,231,221,178,254,48,11,19,80,283,41,136,150,61,148,98,25,282,292,137,279,240,50,296,131,190,236,191,71,298,215,69,275,13,230,117,234,54,177,43,269,182,264,14,128,209,198,53,97,47,125,93,111,222,175,34,119,219,139,220,168,44,67,212,110,164,143,195,9,26,161,86,99,210,39,81,225,77,138,66,285,91,0,73,262,260,171,238,289,206,95,179,123,140,280,153,246,37,193,145,174,134,70,146,101,58,217,163,36,147,227,268,276,170,189,62,108,30,186,65,42,92,159,64,31,224,76,266]","arrowleft","0","3","80","300","[""0008_N0300_K0080_CLIQUE"",""0027_N0300_K0080_NOCLIQUE""]","",""
"","","","","","audio-keyboard-response","72","115055","0.0-51.1-0.1-1.1","","null","audio_feedback/shuffles/shuffle01.mp3","null","","","0","3","80","300","[""0008_N0300_K0080_CLIQUE"",""0027_N0300_K0080_NOCLIQUE""]","",""
"","","","","","canvas-keyboard-response","73","115936","0.0-51.2-0.2-0.2","","806",""," ","[81,85,9,224,222,16,262,119,90,117,153,71,8,32,1,178,181,124,84,0,225,228,29,152,287,240,252,129,206,230,141,200,189,183,167,111,24,236,203,76,80,199,62,279,214,192,175,248,46,4,293,126,49,123,237,138,288,271,299,169,260,217,177,149,229,50,212,121,275,184,26,281,218,294,273,37,77,274,172,231,188,226,205,232,65,285,258,66,219,41,88,39,38,140,251,286,120,290,98,47,43,241,257,239,204,143,272,20,277,55,7,33,21,86,291,57,53,54,247,249,190,72,238,107,280,5,253,150,202,185,201,146,243,197,163,137,22,209,87,245,182,102,67,64,295,70,282,193,278,2,267,265,42,227,210,92,161,96,58,165,221,168,78,52,235,11,157,27,264,136,44,14,208,298,139,134,23,145,155,180,246,242,174,194,3,17,151,131,79,101,35,18,94,6,99,186,127,112,233,30,191,223,135,34,104,115,15,148,59,51,28,216,75,250,105,83,158,12,142,234,114,100,89,132,128,289,160,68,40,125,261,173,133,156,91,284,159,244,122,60,19,256,259,118,13,154,211,166,56,207,263,69,164,255,162,130,195,106,25,31,147,283,170,292,116,109,97,198,95,187,10,196,36,176,45,73,82,108,215,220,296,103,61,269,297,276,113,266,93,213,63,179,48,74,268,110,254,144,270,171]","arrowleft","0","3","80","300","[""0008_N0300_K0080_CLIQUE"",""0027_N0300_K0080_NOCLIQUE""]","",""
"","","","","","audio-keyboard-response","74","116505","0.0-51.2-0.2-1.2","","null","audio_feedback/shuffles/shuffle01.mp3","null","","","0","3","80","300","[""0008_N0300_K0080_CLIQUE"",""0027_N0300_K0080_NOCLIQUE""]","",""
"","","","","","canvas-keyboard-response","75","117576","0.0-51.3-0.3-0.3","","1000",""," ","[202,111,80,10,295,127,214,124,23,231,135,7,84,97,78,257,116,118,54,211,249,63,146,161,199,194,20,184,28,273,259,12,243,268,101,280,219,53,33,26,177,123,253,56,52,99,59,174,42,282,143,131,217,238,46,278,107,149,126,176,218,223,264,225,189,140,87,180,35,21,294,196,256,229,105,205,250,0,285,164,165,254,64,283,236,89,5,55,57,70,271,155,106,292,75,175,281,119,96,145,197,17,284,3,240,154,27,22,226,120,48,201,169,71,188,178,288,60,298,113,245,91,62,200,117,19,112,68,287,81,187,233,14,132,43,86,72,166,173,102,237,138,13,29,162,263,181,270,94,44,88,274,262,100,6,258,167,235,133,92,98,215,296,104,67,41,228,36,157,248,137,192,230,232,8,224,168,286,299,61,77,76,148,122,186,34,69,58,277,125,170,291,293,95,152,134,2,144,65,32,1,260,207,242,85,185,265,158,25,103,179,16,114,182,50,191,290,159,139,183,172,109,241,18,244,24,31,39,73,276,261,289,9,269,11,47,93,171,141,297,15,74,82,279,151,128,234,129,208,142,51,160,247,150,190,4,206,203,210,246,66,255,275,37,30,45,209,110,156,115,212,147,130,239,222,108,213,83,121,216,38,251,252,266,193,204,90,79,195,136,221,198,220,40,163,49,153,267,227,272]","arrowleft","0","3","80","300","[""0008_N0300_K0080_CLIQUE"",""0027_N0300_K0080_NOCLIQUE""]","",""
"","","","","","audio-keyboard-response","76","118148","0.0-51.3-0.3-1.3","","null","audio_feedback/shuffles/shuffle01.mp3","null","","","0","3","80","300","[""0008_N0300_K0080_CLIQUE"",""0027_N0300_K0080_NOCLIQUE""]","",""
"","","","","","canvas-keyboard-response","77","119045","0.0-51.4-0.4-0.4","","821","","arrowleft","[209,166,179,208,200,154,17,178,289,280,186,121,195,273,122,45,256,124,48,196,299,129,108,242,228,158,128,190,147,193,52,225,71,74,230,257,15,77,282,252,113,140,40,224,246,10,251,80,64,272,61,199,214,220,57,298,53,183,286,294,203,223,22,237,151,72,21,46,100,127,182,109,268,245,11,169,156,161,134,78,86,197,219,31,168,171,189,32,88,142,68,37,160,221,30,13,139,262,44,59,137,131,269,91,98,138,162,266,217,167,211,75,1,218,24,184,101,19,34,135,26,234,278,185,159,250,255,150,105,111,29,70,270,38,41,12,163,297,295,176,96,277,63,16,87,170,20,47,5,144,212,2,118,271,136,248,126,205,60,117,81,35,192,284,290,73,157,107,260,89,36,14,232,181,120,177,130,42,254,141,43,119,274,56,27,239,187,216,194,249,191,285,102,84,92,180,93,125,94,222,201,33,79,152,265,58,164,175,210,293,153,132,202,85,115,236,243,172,133,241,261,97,95,28,145,287,103,51,50,206,227,116,263,253,49,292,238,173,155,66,291,76,235,226,0,9,8,279,112,4,264,296,67,233,146,258,283,123,188,204,62,90,25,83,3,149,104,106,18,276,240,99,281,69,110,275,55,174,6,39,7,143,288,148,54,213,165,247,267,207,198,82,244,65,259,229,231,23,215,114]","arrowleft","0","3","80","300","[""0008_N0300_K0080_CLIQUE"",""0027_N0300_K0080_NOCLIQUE""]","","true"
"","","","","","audio-keyboard-response","78","119471","0.0-51.4-0.4-1.4","","null","audio_feedback/right/coin01.mp3","null","","","0","3","80","300","[""0008_N0300_K0080_CLIQUE"",""0027_N0300_K0080_NOCLIQUE""]","",""
"","","","","","canvas-keyboard-response","79","120750","0.0-52.0-0.0-0.0","","1209",""," ","[99,167,122,82,123,296,176,259,121,42,242,62,205,271,142,39,69,278,250,76,106,60,187,65,110,149,144,7,34,155,132,202,138,90,49,117,147,95,114,253,92,105,191,52,193,162,125,159,151,275,231,219,118,22,247,116,240,54,243,166,266,261,109,137,241,185,79,61,163,126,252,8,290,288,286,157,85,230,249,190,285,220,263,236,130,11,45,153,101,124,139,272,70,38,181,53,78,71,291,127,221,19,267,180,269,165,40,16,184,103,104,177,6,214,156,135,183,17,74,281,86,289,222,239,260,59,154,262,293,217,274,145,277,161,152,218,14,189,143,279,73,77,64,35,292,188,213,223,174,207,67,204,186,41,50,169,199,170,208,294,12,179,228,215,13,84,10,248,206,229,256,46,93,80,37,23,72,211,273,28,131,97,227,0,56,280,27,283,276,216,264,36,87,194,237,68,134,192,129,133,44,100,120,43,232,225,298,20,158,3,83,244,234,195,171,178,115,200,29,18,175,98,160,25,284,89,111,172,245,235,182,48,251,128,287,141,5,257,51,210,81,270,136,201,224,295,150,297,113,140,63,55,31,30,226,107,32,265,112,168,254,255,24,33,268,91,66,2,58,299,57,198,4,94,75,238,15,26,197,1,96,209,212,258,21,108,47,164,233,246,146,148,196,173,102,119,9,203,88,282]","arrowleft","0","4","70","300","[""0053_N0300_K0070_CLIQUE"",""0065_N0300_K0070_NOCLIQUE""]","",""
"","","","","","audio-keyboard-response","80","121326","0.0-52.0-0.0-1.0","","null","audio_feedback/shuffles/shuffle01.mp3","null","","","0","4","70","300","[""0053_N0300_K0070_CLIQUE"",""0065_N0300_K0070_NOCLIQUE""]","",""
"","","","","","canvas-keyboard-response","81","122271","0.0-52.1-0.1-0.1","","862",""," ","[200,232,229,147,109,62,102,134,174,135,288,160,117,146,93,169,75,130,286,269,99,101,289,162,145,103,261,243,255,204,196,281,19,197,217,69,121,164,42,149,177,82,283,52,157,66,202,76,131,156,77,31,221,0,138,91,33,139,57,171,140,167,159,247,239,3,185,215,111,100,58,181,172,110,209,54,28,94,206,155,287,151,56,26,71,238,290,22,74,120,128,1,64,210,53,132,180,96,27,47,188,183,199,119,170,106,194,144,163,235,45,271,23,154,298,9,267,195,193,284,152,227,124,83,46,173,89,30,220,10,212,268,259,207,122,114,275,161,60,248,87,189,61,285,228,68,95,233,129,214,175,176,191,38,198,13,265,113,17,213,234,245,216,141,105,80,168,292,223,208,184,41,112,205,92,44,272,79,278,190,36,65,236,250,182,158,273,258,165,256,88,12,73,90,297,150,241,137,4,48,153,133,222,39,78,108,35,85,20,6,280,282,249,224,231,49,264,11,187,40,24,18,225,125,43,115,136,218,166,126,186,254,8,123,2,244,70,293,192,34,276,246,116,240,178,270,253,251,14,299,81,142,127,16,55,294,21,237,296,219,104,50,29,37,15,98,107,230,295,211,242,59,118,291,203,97,63,51,7,277,263,279,252,5,226,25,32,72,179,201,260,148,84,262,67,86,257,143,266,274]","arrowleft","0","4","70","300","[""0053_N0300_K0070_CLIQUE"",""0065_N0300_K0070_NOCLIQUE""]","",""
"","","","","","audio-keyboard-response","82","122840","0.0-52.1-0.1-1.1","","null","audio_feedback/shuffles/shuffle01.mp3","null","","","0","4","70","300","[""0053_N0300_K0070_CLIQUE"",""0065_N0300_K0070_NOCLIQUE""]","",""
"","","","","","canvas-keyboard-response","83","124205","0.0-52.2-0.2-0.2","","1288",""," ","[53,66,209,158,143,186,100,5,10,226,38,84,250,80,129,248,113,104,123,39,138,251,171,142,284,26,294,121,239,177,262,49,21,168,197,42,28,192,253,61,55,299,115,103,85,69,109,295,67,146,176,17,144,54,282,41,219,151,19,234,15,281,231,265,76,189,260,124,256,114,181,87,221,215,92,242,163,36,180,269,141,43,18,210,211,207,62,154,155,128,241,126,214,148,120,1,296,225,218,122,174,56,72,16,191,279,37,164,90,198,238,20,201,4,160,94,153,108,24,44,255,195,132,50,119,0,96,147,2,188,149,246,9,101,35,25,267,277,145,187,287,230,245,99,75,33,29,47,13,64,185,228,98,8,34,81,68,91,259,266,283,73,22,194,193,46,289,224,297,162,222,217,77,293,275,278,179,82,48,23,127,131,111,263,264,258,178,74,206,288,298,152,133,272,157,97,200,118,117,89,78,27,291,223,63,71,196,139,60,175,273,247,3,14,57,233,240,170,150,270,159,52,59,220,286,83,271,107,213,235,65,106,237,280,110,290,244,136,86,31,208,249,12,252,227,116,243,140,167,172,202,268,184,205,7,229,58,276,166,190,203,156,216,79,51,32,232,135,112,130,165,204,95,261,93,169,40,292,257,134,236,137,199,274,88,161,30,212,125,254,183,102,11,70,173,182,285,45,6,105]","arrowleft","0","4","70","300","[""0053_N0300_K0070_CLIQUE"",""0065_N0300_K0070_NOCLIQUE""]","",""
"","","","","","audio-keyboard-response","84","124782","0.0-52.2-0.2-1.2","","null","audio_feedback/shuffles/shuffle01.mp3","null","","","0","4","70","300","[""0053_N0300_K0070_CLIQUE"",""0065_N0300_K0070_NOCLIQUE""]","",""
"","","","","","canvas-keyboard-response","85","126395","0.0-52.3-0.3-0.3","","1535",""," ","[33,3,21,155,275,265,182,98,157,213,246,195,130,133,104,257,83,218,143,260,173,234,258,197,164,166,149,239,5,140,223,212,178,111,191,107,127,285,245,280,172,146,42,176,61,57,189,59,10,37,241,228,151,219,204,147,138,88,273,284,125,65,32,102,236,150,165,19,264,77,256,295,243,161,269,215,199,167,110,272,276,171,75,227,13,4,96,163,156,108,34,72,200,131,69,86,6,291,103,49,247,175,251,289,282,180,179,12,225,229,38,144,123,7,288,112,132,120,231,152,198,78,270,279,188,142,268,9,214,136,115,0,29,117,287,48,242,299,187,177,15,232,208,135,263,159,154,296,190,221,1,121,64,11,196,235,25,50,220,216,193,233,158,248,253,281,174,8,249,106,160,27,230,93,58,30,224,66,73,71,45,278,35,55,186,240,134,74,113,24,17,202,81,170,261,44,31,192,97,294,47,43,2,255,39,162,67,238,141,293,217,80,62,181,56,90,99,46,266,41,205,194,14,114,292,63,207,169,20,118,122,94,26,244,203,119,209,226,28,254,274,139,76,129,53,237,290,92,211,68,87,91,52,250,297,267,89,153,23,183,18,210,259,298,109,128,40,271,101,286,252,84,79,206,60,168,95,22,262,283,51,54,16,116,222,184,185,105,124,70,201,277,82,148,85,137,100,36,126,145]","arrowleft","0","4","70","300","[""0053_N0300_K0070_CLIQUE"",""0065_N0300_K0070_NOCLIQUE""]","",""
"","","","","","audio-keyboard-response","86","126958","0.0-52.3-0.3-1.3","","null","audio_feedback/shuffles/shuffle01.mp3","null","","","0","4","70","300","[""0053_N0300_K0070_CLIQUE"",""0065_N0300_K0070_NOCLIQUE""]","",""
"","","","","","canvas-keyboard-response","87","128105","0.0-52.4-0.4-0.4","","1076","","arrowleft","[92,258,97,46,172,18,58,210,122,146,252,143,242,204,85,244,91,282,215,14,69,134,135,268,133,67,49,57,225,71,243,59,290,138,190,273,167,148,285,39,118,240,27,263,130,239,78,72,294,61,155,136,132,226,128,105,193,187,235,11,219,21,106,25,212,109,145,12,158,15,287,103,22,283,168,47,206,253,184,214,123,94,162,84,264,114,127,55,54,230,286,102,177,101,8,179,260,191,87,189,115,10,207,288,248,104,221,297,280,110,150,26,16,151,159,116,194,38,83,174,261,28,79,262,99,154,186,90,75,267,156,259,171,98,185,241,111,195,160,31,88,20,89,32,183,276,166,202,229,284,126,182,80,107,232,50,56,17,173,100,23,7,40,2,205,208,278,188,223,227,152,117,96,142,247,277,44,125,271,181,37,29,237,70,236,165,213,77,211,199,43,30,161,298,274,74,131,60,299,265,35,113,203,175,220,48,231,51,19,246,238,216,257,129,82,233,201,270,249,6,272,13,245,275,157,137,33,86,234,192,218,36,139,295,228,45,66,266,217,108,222,170,292,209,42,198,176,68,180,291,256,255,52,149,141,65,178,64,164,24,120,140,163,63,254,224,251,121,0,124,81,53,3,269,296,62,119,76,93,1,34,147,112,279,95,41,200,5,153,293,73,281,144,196,250,9,197,169,4,289]","arrowleft","0","4","70","300","[""0053_N0300_K0070_CLIQUE"",""0065_N0300_K0070_NOCLIQUE""]","","true"
"","","","","","audio-keyboard-response","88","128515","0.0-52.4-0.4-1.4","","null","audio_feedback/right/coin01.mp3","null","","","0","4","70","300","[""0053_N0300_K0070_CLIQUE"",""0065_N0300_K0070_NOCLIQUE""]","",""
"","","","","","canvas-keyboard-response","89","129933","0.0-53.0-0.0-0.0","","1348",""," ","[58,293,98,78,190,284,266,93,279,125,62,104,253,205,133,228,285,65,131,150,276,45,144,103,59,56,70,233,177,211,262,130,105,194,271,241,146,167,63,37,25,92,71,117,220,53,234,99,47,91,137,240,113,26,193,87,278,248,184,246,243,182,89,11,168,154,106,74,96,280,206,263,9,95,151,272,191,158,32,72,295,181,84,171,214,257,201,227,36,239,225,178,192,209,281,166,244,38,60,108,39,267,94,254,270,261,159,196,176,128,286,188,116,163,231,200,114,19,16,77,289,259,247,24,275,153,135,30,212,41,7,68,55,287,265,204,294,290,143,5,224,66,15,17,189,232,269,118,250,8,207,179,208,50,152,90,183,61,1,73,115,67,175,123,109,299,164,76,186,274,82,134,217,283,97,235,129,13,101,174,258,102,28,18,119,79,111,126,230,80,4,21,83,147,198,242,255,249,297,180,288,120,34,213,277,260,165,229,88,273,121,215,132,12,57,238,49,2,148,187,291,141,6,155,160,169,69,75,218,264,35,162,195,161,22,122,256,140,54,136,226,245,296,282,222,14,298,112,252,52,197,29,185,142,216,237,236,107,3,223,292,48,219,85,139,0,23,40,138,44,43,31,100,156,10,268,124,202,81,199,27,46,172,173,86,51,33,42,170,149,203,251,110,210,157,127,20,145,64,221]","arrowleft","0","5","70","300","[""0075_N0300_K0070_CLIQUE"",""0002_N0300_K0070_NOCLIQUE""]","",""
"","","","","","audio-keyboard-response","90","130499","0.0-53.0-0.0-1.0","","null","audio_feedback/shuffles/shuffle01.mp3","null","","","0","5","70","300","[""0075_N0300_K0070_CLIQUE"",""0002_N0300_K0070_NOCLIQUE""]","",""
"","","","","","canvas-keyboard-response","91","131298","0.0-53.1-0.1-0.1","","721",""," ","[17,284,110,280,156,270,71,40,65,93,22,242,181,27,109,120,287,247,102,281,268,170,234,217,54,232,243,265,48,45,60,18,201,119,194,153,277,140,176,286,259,164,72,37,96,275,5,191,7,222,227,142,269,282,267,115,160,83,274,285,214,196,46,297,38,6,74,283,185,245,41,179,105,221,30,0,250,261,294,114,3,198,271,49,16,139,21,55,125,231,39,111,36,165,33,69,288,13,67,8,106,24,186,204,228,216,257,25,289,92,159,144,166,85,113,57,258,64,44,78,149,75,276,272,251,94,151,188,90,152,173,147,252,210,248,229,108,128,157,121,130,133,260,97,12,211,206,1,47,193,264,91,117,138,70,239,2,213,180,100,131,126,262,53,212,278,68,95,148,150,298,112,168,163,116,23,182,244,290,292,10,208,141,51,249,143,299,73,31,135,254,136,233,59,172,246,63,61,220,154,279,197,293,62,26,82,189,122,79,87,103,175,237,219,158,43,199,195,238,203,14,184,187,171,155,52,226,137,4,15,240,230,34,273,145,11,81,84,162,241,209,167,101,98,42,253,146,66,255,218,80,215,266,58,29,76,127,118,99,205,263,161,86,202,223,256,123,291,225,20,177,104,9,134,28,107,235,207,190,32,200,295,132,35,89,178,224,192,124,174,19,183,56,77,236,169,50,296,88,129]","arrowleft","0","5","70","300","[""0075_N0300_K0070_CLIQUE"",""0002_N0300_K0070_NOCLIQUE""]","",""
"","","","","","audio-keyboard-response","92","131864","0.0-53.1-0.1-1.1","","null","audio_feedback/shuffles/shuffle01.mp3","null","","","0","5","70","300","[""0075_N0300_K0070_CLIQUE"",""0002_N0300_K0070_NOCLIQUE""]","",""
"","","","","","canvas-keyboard-response","93","132856","0.0-53.2-0.2-0.2","","922","","arrowleft","[92,280,220,170,167,82,288,90,23,9,201,279,202,214,174,246,298,248,0,191,138,118,68,200,256,85,135,224,112,244,24,175,46,26,129,137,58,72,111,5,149,60,16,80,236,101,252,196,71,83,69,124,237,206,268,270,239,190,245,122,289,33,218,162,194,235,14,19,163,164,102,114,7,283,62,286,66,203,172,22,115,30,63,75,204,29,107,229,227,133,95,130,272,89,47,171,249,148,155,226,141,21,147,132,299,131,243,116,178,50,297,31,97,166,70,146,292,10,186,281,293,76,20,98,247,296,13,228,145,99,182,12,276,267,65,212,265,255,213,198,290,221,150,87,238,216,260,1,273,126,185,154,210,254,160,18,232,266,86,100,123,284,2,242,106,3,193,263,27,240,8,56,41,250,127,44,51,42,181,134,169,93,77,91,187,291,119,35,151,142,207,28,37,234,43,39,94,108,205,294,208,4,209,81,230,25,261,103,121,161,74,52,158,156,34,215,55,269,222,54,165,79,59,180,189,259,287,177,84,128,225,278,109,195,179,120,295,217,36,17,258,197,117,275,67,199,88,105,38,113,143,159,231,136,264,11,53,61,219,32,45,153,64,104,184,110,78,257,253,48,274,40,6,173,262,168,139,271,282,241,277,73,15,285,125,251,49,211,188,183,96,157,192,176,152,57,223,144,233,140]","arrowleft","0","5","70","300","[""0075_N0300_K0070_CLIQUE"",""0002_N0300_K0070_NOCLIQUE""]","","true"
"","","","","","audio-keyboard-response","94","133272","0.0-53.2-0.2-1.2","","null","audio_feedback/right/coin01.mp3","null","","","0","5","70","300","[""0075_N0300_K0070_CLIQUE"",""0002_N0300_K0070_NOCLIQUE""]","",""
"","","","","","canvas-keyboard-response","95","134193","0.0-54.0-0.0-0.0","","848",""," ","[19,231,289,299,40,139,17,90,187,103,27,159,87,209,164,265,234,86,146,137,286,190,272,281,8,77,108,236,70,49,160,47,195,240,104,178,29,61,100,151,111,51,183,63,293,88,230,30,34,232,57,294,283,39,2,287,208,124,204,41,284,170,95,242,221,206,238,114,92,291,48,285,80,155,243,28,157,21,216,179,118,227,109,235,200,182,117,123,46,148,258,193,141,158,20,264,7,68,203,256,259,74,171,116,225,247,52,262,202,186,115,91,78,220,253,263,168,280,13,126,11,162,181,44,25,173,76,93,23,136,3,249,167,64,156,31,270,10,222,152,185,43,188,199,62,97,142,196,72,45,233,279,12,56,246,135,26,177,260,219,194,254,5,60,112,237,133,65,165,101,198,105,127,145,73,98,106,261,218,143,184,96,180,226,120,9,75,14,274,42,35,176,174,4,214,215,129,15,197,53,69,169,271,175,16,251,211,224,207,24,147,250,273,292,248,79,166,266,154,0,290,71,82,245,131,205,1,282,59,297,107,296,22,6,144,119,228,277,94,210,83,85,288,255,50,201,89,267,132,252,278,268,295,113,58,239,81,191,37,138,67,241,134,55,102,217,257,32,172,121,276,298,54,18,38,125,110,130,153,229,189,84,99,128,36,213,122,149,275,244,163,33,150,66,223,212,140,161,192,269]","arrowright","0","6","65","300","[""0056_N0300_K0065_NOCLIQUE"",""0030_N0300_K0065_CLIQUE""]","",""
"","","","","","audio-keyboard-response","96","134765","0.0-54.0-0.0-1.0","","null","audio_feedback/shuffles/shuffle01.mp3","null","","","0","6","65","300","[""0056_N0300_K0065_NOCLIQUE"",""0030_N0300_K0065_CLIQUE""]","",""
"","","","","","canvas-keyboard-response","97","135539","0.0-54.1-0.1-0.1","","697",""," ","[112,200,33,4,79,0,193,260,98,148,191,70,240,219,216,73,211,161,250,81,164,292,68,36,34,127,60,30,255,155,43,270,248,261,163,3,21,95,289,52,202,59,16,195,167,2,53,119,35,44,299,37,55,263,209,162,51,224,201,29,287,143,249,12,101,230,197,78,146,118,272,281,107,233,114,38,158,290,196,80,179,20,25,6,180,269,280,173,91,165,135,121,90,212,93,8,113,96,85,147,183,282,130,156,99,244,277,137,259,17,87,168,215,150,262,226,223,18,251,267,237,100,170,124,236,117,160,203,257,22,232,65,97,123,220,75,205,48,186,234,14,141,89,1,243,105,154,247,293,66,295,297,149,116,279,5,256,63,71,138,47,23,171,134,199,258,217,153,72,208,27,11,28,218,132,283,61,222,126,235,40,26,221,214,157,104,42,49,172,298,41,82,184,266,190,185,54,276,198,139,182,239,144,242,227,166,31,106,76,189,58,194,288,254,67,77,32,133,231,86,187,210,246,46,7,84,15,192,264,177,110,129,142,271,50,131,159,245,45,253,62,94,284,174,122,115,213,145,252,152,188,206,291,10,13,285,204,83,108,109,228,169,286,178,181,296,294,274,175,268,238,19,125,265,69,39,229,102,24,64,275,57,207,128,92,278,88,74,103,111,241,140,120,225,56,176,9,151,136,273]","arrowright","0","6","65","300","[""0056_N0300_K0065_NOCLIQUE"",""0030_N0300_K0065_CLIQUE""]","",""
"","","","","","audio-keyboard-response","98","136110","0.0-54.1-0.1-1.1","","null","audio_feedback/shuffles/shuffle01.mp3","null","","","0","6","65","300","[""0056_N0300_K0065_NOCLIQUE"",""0030_N0300_K0065_CLIQUE""]","",""
"","","","","","canvas-keyboard-response","99","137150","0.0-54.2-0.2-0.2","","960",""," ","[161,22,65,208,34,5,216,232,196,145,51,60,127,226,142,12,167,48,79,172,277,129,36,242,163,84,270,239,253,158,237,148,90,211,154,213,144,238,157,96,262,86,6,123,279,17,100,231,250,132,284,30,236,15,23,291,190,78,261,204,221,260,94,170,164,21,9,29,235,138,121,249,72,122,97,135,290,228,263,81,245,136,73,10,234,152,102,64,108,98,177,150,16,117,248,43,149,292,295,299,298,37,193,25,58,273,283,99,257,61,188,35,83,104,80,140,229,68,255,24,19,2,120,276,110,256,278,146,126,173,44,1,271,254,56,0,133,33,89,246,18,169,168,285,191,201,176,281,222,252,11,194,156,71,171,181,266,241,46,212,209,297,251,47,178,210,105,87,82,45,103,259,115,189,131,187,85,106,27,113,282,69,63,41,183,243,294,3,20,227,275,175,128,182,162,66,274,54,57,288,118,153,139,77,14,202,195,200,112,293,287,101,268,217,233,59,13,143,219,224,240,174,205,111,75,141,95,88,74,180,53,49,269,244,203,215,280,265,220,134,179,286,160,40,32,198,137,52,67,225,184,124,107,247,206,151,155,159,125,218,214,91,264,289,199,109,272,38,28,166,92,267,55,197,165,93,207,26,114,7,4,192,223,186,50,116,42,147,119,70,31,296,185,230,8,258,39,130,76,62]","arrowright","0","6","65","300","[""0056_N0300_K0065_NOCLIQUE"",""0030_N0300_K0065_CLIQUE""]","",""
"","","","","","audio-keyboard-response","100","137710","0.0-54.2-0.2-1.2","","null","audio_feedback/shuffles/shuffle01.mp3","null","","","0","6","65","300","[""0056_N0300_K0065_NOCLIQUE"",""0030_N0300_K0065_CLIQUE""]","",""
"","","","","","canvas-keyboard-response","101","139017","0.0-54.3-0.3-0.3","","1232",""," ","[204,73,89,181,0,234,59,213,165,11,63,155,172,45,203,133,239,288,187,230,17,125,24,258,174,44,92,132,70,291,82,25,252,143,247,139,228,111,209,108,134,7,202,128,283,236,282,171,148,218,251,72,98,175,195,158,257,101,151,292,153,83,290,1,229,114,41,144,23,274,3,266,91,179,127,109,62,12,295,185,54,294,15,233,116,249,246,293,215,231,162,90,87,61,136,4,167,180,176,112,164,26,152,105,56,262,275,13,183,5,281,135,50,117,40,10,104,199,29,123,154,287,235,39,8,16,18,241,69,84,137,110,80,66,28,88,163,93,192,222,37,205,147,64,206,138,220,217,191,276,33,227,269,243,221,6,271,261,242,68,126,75,35,256,207,248,119,168,100,146,186,184,265,60,103,27,38,48,47,79,94,142,42,157,115,272,140,121,36,214,145,250,299,31,196,130,264,268,194,34,253,160,77,159,22,86,263,2,9,284,57,211,46,212,232,78,277,177,166,225,20,201,280,14,190,129,76,102,65,55,149,32,259,170,285,279,238,286,278,53,19,150,169,71,197,298,49,85,255,51,67,81,219,200,106,107,297,96,260,141,74,237,226,21,270,161,124,189,58,131,244,245,193,198,178,97,210,173,296,216,254,223,267,95,99,224,30,240,43,113,120,273,122,182,289,118,52,188,156,208]","arrowright","0","6","65","300","[""0056_N0300_K0065_NOCLIQUE"",""0030_N0300_K0065_CLIQUE""]","",""
"","","","","","audio-keyboard-response","102","139587","0.0-54.3-0.3-1.3","","null","audio_feedback/shuffles/shuffle01.mp3","null","","","0","6","65","300","[""0056_N0300_K0065_NOCLIQUE"",""0030_N0300_K0065_CLIQUE""]","",""
"","","","","","canvas-keyboard-response","103","140620","0.0-54.4-0.4-0.4","","954","","arrowleft","[179,217,249,236,187,57,84,165,233,174,283,43,114,213,63,38,53,127,31,128,123,224,79,207,190,42,252,107,279,30,198,219,100,178,39,222,241,78,45,239,46,51,216,24,26,34,277,266,169,271,269,125,193,173,253,245,67,150,196,166,103,203,101,16,83,257,0,197,289,225,175,139,59,118,218,131,116,237,28,104,117,240,96,251,275,149,130,212,208,25,231,22,85,14,202,228,286,148,58,238,77,97,133,89,171,272,66,215,98,163,265,74,11,137,191,292,87,185,156,226,142,7,153,299,260,134,115,86,284,64,140,54,259,132,69,55,20,296,247,120,36,261,136,172,291,88,48,161,268,5,287,41,181,2,186,201,68,33,126,263,56,255,151,135,278,267,280,154,111,157,47,183,159,32,204,248,282,13,164,37,232,27,23,288,82,29,281,214,50,3,188,273,75,194,73,18,105,35,8,76,195,146,200,295,242,244,19,21,234,168,119,209,138,199,264,211,243,70,250,227,129,6,298,71,4,15,223,1,162,40,62,158,81,258,112,91,90,141,65,170,230,220,49,290,99,285,184,95,210,293,276,102,92,270,274,192,113,229,44,160,121,110,152,61,262,235,10,9,12,93,108,60,176,109,180,94,167,297,143,80,145,254,256,17,122,124,144,206,189,72,246,221,147,106,205,177,294,52,155,182]","arrowright","0","6","65","300","[""0056_N0300_K0065_NOCLIQUE"",""0030_N0300_K0065_CLIQUE""]","","false"
"","","","","","audio-keyboard-response","104","141208","0.0-54.4-0.4-1.4","","null","audio_feedback/wrong/error01.mp3","null","","","0","6","65","300","[""0056_N0300_K0065_NOCLIQUE"",""0030_N0300_K0065_CLIQUE""]","",""
"","","","","","canvas-keyboard-response","105","143034","0.0-55.0-0.0-0.0","","1757",""," ","[204,256,255,109,61,168,299,156,82,220,230,119,3,164,271,249,94,8,28,275,1,222,44,224,25,52,264,126,165,190,227,54,211,298,103,17,84,234,201,105,212,216,39,180,241,74,176,36,27,12,68,191,200,258,155,268,87,138,16,154,281,110,48,199,150,69,134,223,133,265,20,178,132,7,13,83,11,167,193,259,98,58,46,24,14,65,257,63,246,51,111,101,238,218,166,254,75,160,163,143,198,79,153,146,203,277,4,215,206,172,19,59,72,85,55,177,97,289,118,274,62,214,210,21,288,96,145,267,64,148,86,219,173,162,182,45,130,280,209,26,81,186,251,144,131,159,140,284,226,99,174,250,43,139,91,107,15,30,10,100,18,135,266,136,116,53,29,205,37,278,291,240,6,104,248,93,95,41,228,38,50,197,253,49,217,294,282,32,122,141,88,285,71,272,42,260,120,235,270,261,208,123,35,244,195,293,245,90,236,47,171,229,184,243,67,202,283,169,252,142,5,231,2,152,112,129,181,22,196,225,187,0,92,183,40,161,124,189,115,192,232,175,34,295,60,213,151,207,73,221,290,125,263,237,108,247,292,128,273,121,114,157,279,117,106,70,66,158,179,287,233,239,185,297,147,137,127,262,31,33,113,296,242,194,56,170,102,9,76,57,23,77,78,149,89,269,188,286,80,276]","arrowright","0","7","65","300","[""0034_N0300_K0065_NOCLIQUE"",""0082_N0300_K0065_CLIQUE""]","",""
"","","","","","audio-keyboard-response","106","143598","0.0-55.0-0.0-1.0","","null","audio_feedback/shuffles/shuffle01.mp3","null","","","0","7","65","300","[""0034_N0300_K0065_NOCLIQUE"",""0082_N0300_K0065_CLIQUE""]","",""
"","","","","","canvas-keyboard-response","107","144428","0.0-55.1-0.1-0.1","","753",""," ","[199,72,288,175,252,132,193,22,151,113,166,78,258,291,168,225,18,181,282,83,63,46,262,186,92,145,232,55,228,229,109,149,27,65,82,167,54,287,161,90,125,14,2,152,222,21,108,295,299,177,244,110,247,245,201,256,281,273,100,77,67,205,253,220,182,233,7,158,50,286,279,156,134,117,278,218,86,219,277,76,211,5,115,9,74,41,133,290,154,231,38,143,16,280,255,131,180,276,79,80,212,164,127,275,189,176,159,289,148,34,17,57,254,87,204,122,32,236,169,25,104,142,23,129,35,192,249,20,31,171,120,226,6,106,84,224,111,173,157,172,102,48,261,103,237,66,179,217,49,263,144,61,221,269,272,29,210,260,285,59,185,97,174,194,165,119,73,37,200,248,95,58,150,227,85,298,170,246,8,208,94,60,62,270,137,213,10,69,209,196,197,121,146,101,68,93,71,297,24,43,105,128,53,141,195,215,271,130,292,140,216,235,191,44,88,96,139,187,70,238,296,136,284,283,147,242,89,274,138,268,75,153,45,123,28,184,250,11,135,12,198,40,114,178,190,207,241,64,15,4,266,293,81,206,155,51,251,0,26,116,267,42,56,240,243,257,98,99,107,214,19,47,162,163,13,265,203,239,124,112,202,91,118,160,52,259,264,1,223,30,183,294,230,3,33,188,39,234,36,126]","arrowright","0","7","65","300","[""0034_N0300_K0065_NOCLIQUE"",""0082_N0300_K0065_CLIQUE""]","",""
"","","","","","audio-keyboard-response","108","145006","0.0-55.1-0.1-1.1","","null","audio_feedback/shuffles/shuffle01.mp3","null","","","0","7","65","300","[""0034_N0300_K0065_NOCLIQUE"",""0082_N0300_K0065_CLIQUE""]","",""
"","","","","","canvas-keyboard-response","109","146231","0.0-55.2-0.2-0.2","","1157",""," ","[66,107,217,59,259,49,220,139,229,185,134,178,80,102,128,51,205,197,277,33,115,25,190,109,70,219,100,86,58,113,290,122,198,265,54,188,152,176,151,118,246,112,162,64,254,77,92,207,110,125,201,45,43,216,11,153,1,62,87,16,158,57,24,240,76,83,90,209,163,82,248,199,3,63,278,270,288,91,268,233,237,283,284,195,74,20,142,98,194,56,84,224,6,36,191,146,155,123,169,65,287,218,170,189,297,177,135,105,35,279,260,182,179,32,88,167,215,47,85,117,230,137,280,202,225,231,261,71,244,266,75,18,165,148,95,228,234,68,200,173,232,292,239,171,210,0,222,133,285,99,262,273,166,281,299,104,212,67,257,269,174,221,271,5,180,119,13,196,145,4,211,192,38,252,53,193,164,78,258,175,272,156,294,21,114,298,242,106,267,241,282,147,27,120,183,10,26,96,274,52,289,226,19,14,186,291,296,203,276,250,264,286,17,159,214,94,72,172,208,46,255,144,124,103,168,30,127,15,37,247,275,251,44,129,130,48,2,89,204,28,227,157,61,111,213,55,161,93,121,8,39,235,34,249,295,138,50,81,126,236,69,143,263,149,256,41,140,12,223,206,184,131,29,253,116,73,187,293,31,238,60,22,40,42,9,132,136,154,181,245,108,150,243,7,101,79,97,160,141,23]","arrowright","0","7","65","300","[""0034_N0300_K0065_NOCLIQUE"",""0082_N0300_K0065_CLIQUE""]","",""
"","","","","","audio-keyboard-response","110","146798","0.0-55.2-0.2-1.2","","null","audio_feedback/shuffles/shuffle01.mp3","null","","","0","7","65","300","[""0034_N0300_K0065_NOCLIQUE"",""0082_N0300_K0065_CLIQUE""]","",""
"","","","","","canvas-keyboard-response","111","147975","0.0-55.3-0.3-0.3","","1104",""," ","[18,97,291,71,64,29,287,44,168,84,183,43,123,5,137,143,116,117,32,124,165,274,83,285,114,112,141,167,135,288,283,0,19,223,206,45,1,106,255,242,261,245,147,188,227,218,270,115,156,20,3,129,180,219,174,110,247,99,211,184,33,279,85,228,108,62,229,58,21,221,179,149,200,41,202,157,235,12,272,233,133,181,107,256,37,132,55,56,131,13,282,16,126,42,23,134,281,175,237,251,49,297,155,139,162,27,273,267,191,91,102,46,34,35,201,269,100,207,199,94,224,203,153,119,166,95,266,249,192,105,189,6,161,220,212,120,253,271,296,193,47,239,158,52,298,236,50,76,104,275,244,148,257,144,196,197,185,75,15,130,72,26,79,96,90,125,59,176,172,226,118,222,51,171,92,163,101,38,138,8,238,74,61,293,63,10,66,209,295,278,142,60,290,230,284,292,190,264,24,70,187,140,14,17,54,186,122,250,4,113,7,205,277,151,232,260,265,259,231,2,87,25,22,86,215,28,127,150,170,164,40,146,240,280,154,53,121,268,128,98,294,89,31,67,111,93,254,210,82,88,36,103,169,299,276,78,246,57,69,136,217,252,216,160,262,80,48,241,234,225,195,30,39,248,73,289,81,109,159,213,77,214,145,11,68,182,286,9,194,178,258,208,177,263,198,204,173,65,243,152]","arrowright","0","7","65","300","[""0034_N0300_K0065_NOCLIQUE"",""0082_N0300_K0065_CLIQUE""]","",""
"","","","","","audio-keyboard-response","112","148547","0.0-55.3-0.3-1.3","","null","audio_feedback/shuffles/shuffle01.mp3","null","","","0","7","65","300","[""0034_N0300_K0065_NOCLIQUE"",""0082_N0300_K0065_CLIQUE""]","",""
"","","","","","canvas-keyboard-response","113","150049","0.0-55.4-0.4-0.4","","1424","","arrowright","[277,283,10,94,285,2,280,4,132,208,212,55,289,198,237,114,38,24,29,291,91,238,229,57,60,139,46,52,189,27,90,120,113,141,243,182,137,135,154,92,172,22,260,77,174,112,210,273,250,45,219,126,227,37,232,211,100,164,230,259,56,284,73,252,218,224,107,88,145,191,171,0,61,197,67,34,269,176,288,239,296,93,86,257,50,234,115,17,65,236,72,39,59,282,74,83,155,148,220,203,23,199,169,255,142,175,180,84,54,272,206,123,200,11,265,209,68,254,278,35,124,253,43,71,263,40,101,249,149,147,129,271,287,97,64,8,116,214,152,241,111,188,70,185,146,89,82,160,75,217,233,117,122,231,106,195,25,297,177,99,170,128,186,47,125,244,196,168,194,275,66,95,15,20,19,76,121,1,161,242,110,201,104,138,247,190,158,178,42,44,290,5,256,6,105,12,151,78,292,9,184,163,162,215,266,143,187,262,51,202,62,53,183,223,286,16,204,26,134,222,279,157,140,81,14,226,13,299,32,192,293,36,79,264,108,246,251,294,179,258,21,49,119,130,58,80,102,281,85,221,69,131,228,87,33,270,109,98,166,173,7,30,298,118,193,268,240,103,213,156,235,165,3,295,248,96,41,150,133,207,274,216,28,153,245,136,205,63,167,48,267,225,144,276,127,18,181,159,31,261]","arrowright","0","7","65","300","[""0034_N0300_K0065_NOCLIQUE"",""0082_N0300_K0065_CLIQUE""]","","true"
"","","","","","audio-keyboard-response","114","150467","0.0-55.4-0.4-1.4","","null","audio_feedback/right/coin01.mp3","null","","","0","7","65","300","[""0034_N0300_K0065_NOCLIQUE"",""0082_N0300_K0065_CLIQUE""]","",""
"","","","","","canvas-keyboard-response","115","151740","0.0-56.0-0.0-0.0","","1202",""," ","[271,19,44,101,211,209,148,82,276,111,130,222,199,203,173,143,61,68,266,259,12,202,247,221,280,231,265,23,40,166,105,240,191,37,15,182,38,267,10,99,210,270,268,20,30,293,164,73,205,147,54,275,185,225,177,289,230,14,133,118,171,35,2,274,131,77,48,5,153,256,83,92,236,113,234,75,53,196,299,162,142,165,71,66,59,127,269,141,134,161,34,224,288,145,33,78,235,194,89,237,3,201,219,216,284,110,151,124,69,186,168,46,49,36,98,96,112,206,258,26,277,252,279,7,88,285,238,97,108,239,11,215,155,87,227,136,56,86,129,261,198,74,104,214,286,13,43,200,218,16,55,176,296,262,47,125,180,172,28,31,291,45,57,80,29,114,254,263,243,228,122,32,249,232,188,278,295,190,169,174,67,175,193,208,90,70,9,139,126,159,132,60,58,226,294,167,260,229,91,292,250,178,184,50,297,72,41,154,109,81,207,255,220,93,157,187,95,137,273,138,272,27,51,84,6,24,223,181,217,251,17,244,8,150,241,204,120,152,85,79,21,119,135,106,103,242,197,100,264,281,213,0,76,195,179,212,189,149,4,192,128,52,22,115,94,18,116,123,117,248,121,245,64,257,298,282,253,25,140,287,163,39,158,283,65,63,156,107,170,144,160,62,42,246,290,183,102,146,1,233]","arrowleft","0","8","60","300","[""0038_N0300_K0060_CLIQUE"",""0027_N0300_K0060_NOCLIQUE""]","",""
"","","","","","audio-keyboard-response","116","152302","0.0-56.0-0.0-1.0","","null","audio_feedback/shuffles/shuffle01.mp3","null","","","0","8","60","300","[""0038_N0300_K0060_CLIQUE"",""0027_N0300_K0060_NOCLIQUE""]","",""
"","","","","","canvas-keyboard-response","117","153363","0.0-56.1-0.1-0.1","","985",""," ","[101,35,105,108,218,97,226,6,32,181,193,207,275,102,139,192,17,279,220,38,208,186,18,217,243,134,284,69,40,282,95,153,135,224,77,173,249,21,33,299,54,115,126,94,5,41,24,209,221,257,150,121,202,230,285,143,266,204,172,294,161,61,269,148,252,103,55,92,268,0,76,122,57,201,26,228,85,180,63,133,229,59,142,156,159,296,211,30,106,276,51,138,79,160,66,238,165,223,3,245,241,240,111,270,260,151,46,125,190,11,81,263,88,177,264,184,233,27,149,141,12,74,290,109,286,100,140,206,52,25,205,71,65,214,189,212,45,236,259,168,29,216,37,267,68,64,144,49,162,292,58,16,237,78,47,132,281,191,196,293,287,1,136,10,31,188,248,112,239,195,82,98,198,200,147,43,254,187,137,295,124,261,250,127,60,84,175,86,56,185,2,13,227,251,197,178,210,179,169,265,242,145,183,4,28,163,131,291,7,83,9,231,44,130,123,39,154,96,155,67,157,119,117,19,289,48,225,262,174,235,146,114,258,107,23,232,36,215,167,255,170,128,75,182,120,256,89,278,273,176,288,53,194,171,20,152,164,90,280,118,73,158,253,15,80,110,129,213,219,87,62,91,34,93,50,72,14,277,271,116,222,247,199,22,166,298,8,283,70,274,272,203,297,42,234,113,104,99,246,244]","arrowleft","0","8","60","300","[""0038_N0300_K0060_CLIQUE"",""0027_N0300_K0060_NOCLIQUE""]","",""
"","","","","","audio-keyboard-response","118","153923","0.0-56.1-0.1-1.1","","null","audio_feedback/shuffles/shuffle01.mp3","null","","","0","8","60","300","[""0038_N0300_K0060_CLIQUE"",""0027_N0300_K0060_NOCLIQUE""]","",""
"","","","","","canvas-keyboard-response","119","154968","0.0-56.2-0.2-0.2","","968",""," ","[1,162,190,130,104,117,259,140,202,168,122,123,263,58,63,182,61,172,189,19,297,158,77,165,55,54,228,279,79,98,197,132,271,46,267,110,265,170,24,164,5,10,155,253,196,8,118,124,52,286,264,115,136,203,159,39,207,51,218,270,59,90,119,230,226,299,76,240,48,99,225,9,113,294,139,187,6,243,236,166,81,229,210,179,95,161,212,131,14,4,273,183,145,295,49,60,38,146,186,120,31,147,209,266,87,47,157,150,56,288,105,199,27,138,71,154,206,101,260,248,102,69,57,84,221,280,245,96,13,222,23,33,191,205,127,194,40,227,233,274,7,21,290,180,238,107,85,114,50,192,262,167,217,177,45,129,184,30,74,237,151,32,42,277,176,82,65,292,94,29,246,116,195,293,17,219,200,128,193,275,153,86,287,43,174,143,64,125,242,89,134,269,88,208,72,284,34,201,178,281,91,272,258,73,37,216,163,11,20,241,171,108,185,41,78,126,22,53,15,181,235,283,296,16,62,152,149,36,239,255,224,198,249,148,298,169,121,109,135,261,0,220,276,231,66,234,144,173,244,175,232,97,291,137,160,141,257,278,70,26,25,93,3,35,282,256,188,67,100,80,133,44,251,223,112,111,18,211,268,213,254,103,68,247,106,2,75,92,142,285,156,215,250,83,12,28,289,252,204,214]","arrowleft","0","8","60","300","[""0038_N0300_K0060_CLIQUE"",""0027_N0300_K0060_NOCLIQUE""]","",""
"","","","","","audio-keyboard-response","120","155544","0.0-56.2-0.2-1.2","","null","audio_feedback/shuffles/shuffle01.mp3","null","","","0","8","60","300","[""0038_N0300_K0060_CLIQUE"",""0027_N0300_K0060_NOCLIQUE""]","",""
"","","","","","canvas-keyboard-response","121","156624","0.0-56.3-0.3-0.3","","1010",""," ","[182,296,15,151,161,256,154,293,192,145,13,237,39,67,122,139,255,166,276,179,71,8,278,171,46,201,101,80,5,287,258,42,40,266,284,116,228,75,27,220,286,140,294,168,23,97,267,227,298,124,197,106,105,25,170,251,131,58,230,193,28,119,38,47,66,61,270,22,32,262,231,79,288,218,186,54,173,279,282,261,269,35,236,92,291,44,243,180,207,111,99,144,17,103,292,73,205,50,134,41,235,129,113,115,203,43,89,96,20,257,51,196,64,12,36,81,52,45,143,162,133,136,6,70,83,1,212,34,283,177,264,2,211,112,273,107,191,88,78,21,68,159,141,26,246,95,82,214,55,63,148,233,33,165,216,104,24,7,195,178,200,150,155,158,14,48,125,163,250,194,245,128,37,202,130,65,86,56,295,87,149,109,132,4,289,167,126,253,93,59,18,281,137,185,172,254,223,222,19,135,152,187,280,3,224,160,69,221,16,188,138,62,215,263,285,277,244,9,142,274,239,11,123,127,248,0,30,229,147,249,204,164,219,252,53,31,85,271,290,238,225,183,29,265,57,169,213,184,206,240,94,189,98,60,110,275,157,153,84,90,108,234,91,247,181,199,114,260,121,299,259,208,226,209,268,297,174,72,100,102,242,156,232,272,120,118,76,146,74,77,117,49,198,10,210,241,176,175,190,217]","arrowleft","0","8","60","300","[""0038_N0300_K0060_CLIQUE"",""0027_N0300_K0060_NOCLIQUE""]","",""
"","","","","","audio-keyboard-response","122","157187","0.0-56.3-0.3-1.3","","null","audio_feedback/shuffles/shuffle01.mp3","null","","","0","8","60","300","[""0038_N0300_K0060_CLIQUE"",""0027_N0300_K0060_NOCLIQUE""]","",""
"","","","","","canvas-keyboard-response","123","158903","0.0-56.4-0.4-0.4","","1644",""," ","[133,212,108,62,195,129,85,144,82,276,160,96,107,169,87,244,12,81,101,27,213,180,66,172,21,125,218,52,17,220,119,55,84,161,270,262,284,78,224,104,150,2,152,255,49,207,247,4,54,273,120,24,162,147,122,70,274,159,163,230,109,1,29,86,8,36,267,219,58,149,238,176,124,100,182,194,131,291,25,225,56,214,201,278,288,48,83,226,168,153,217,299,198,135,243,279,215,40,171,236,193,206,223,92,35,146,248,3,136,123,290,228,142,192,6,98,186,60,110,252,271,71,42,97,61,79,189,275,155,259,112,197,114,117,202,45,282,293,183,93,106,59,51,287,137,116,95,208,297,295,113,143,103,233,185,258,260,89,74,285,242,177,200,91,53,63,26,14,188,19,80,209,174,241,140,240,30,257,44,245,196,20,34,175,187,57,269,280,148,7,181,204,166,268,128,65,118,179,141,283,77,72,156,154,264,75,263,222,165,18,184,292,76,88,22,0,126,9,15,216,229,254,102,178,205,105,170,272,190,199,232,68,111,164,5,69,289,221,67,191,253,94,234,210,10,132,90,130,99,235,115,281,296,157,231,38,50,28,167,251,47,173,73,256,37,134,266,286,41,32,43,158,151,203,11,121,16,39,31,139,13,33,249,261,23,227,211,64,127,298,246,145,138,46,250,265,239,237,294,277]","arrowleft","0","8","60","300","[""0038_N0300_K0060_CLIQUE"",""0027_N0300_K0060_NOCLIQUE""]","",""
"","","","","","audio-keyboard-response","124","159470","0.0-56.4-0.4-1.4","","null","audio_feedback/shuffles/shuffle01.mp3","null","","","0","8","60","300","[""0038_N0300_K0060_CLIQUE"",""0027_N0300_K0060_NOCLIQUE""]","",""
"","","","","","canvas-keyboard-response","125","161415","0.0-56.5-0.5-0.5","","1874",""," ","[53,211,299,281,275,102,92,8,88,93,18,179,97,57,185,264,253,136,54,120,17,69,80,210,209,155,66,227,232,100,16,271,171,298,118,94,75,32,122,236,149,198,129,201,21,165,239,11,145,220,115,62,35,47,114,296,121,269,95,199,39,204,230,174,297,205,158,86,19,151,13,7,135,128,177,163,224,182,111,84,72,20,247,109,68,134,52,169,87,152,276,265,3,89,287,127,225,256,200,144,203,162,187,26,251,40,132,176,244,28,148,259,249,277,255,133,76,78,1,55,0,24,103,81,64,221,257,59,266,36,223,263,34,192,254,126,157,173,139,117,14,286,260,22,101,50,183,262,226,61,2,45,141,112,197,189,214,294,23,245,33,273,25,248,295,170,58,71,10,292,73,29,9,51,63,213,6,125,212,194,293,31,233,196,15,215,123,219,146,85,83,283,190,77,99,234,130,140,70,60,246,90,235,240,272,27,159,131,184,154,41,96,280,137,161,279,30,42,238,228,218,217,156,242,110,4,285,113,167,274,142,195,188,278,175,268,104,207,43,243,193,74,107,291,258,252,65,267,105,147,202,67,46,250,150,164,186,119,79,108,106,49,181,44,237,166,38,160,168,290,206,5,241,288,191,12,143,180,91,172,98,231,178,261,222,82,153,48,116,124,270,216,56,208,138,229,37,282,284,289]","arrowleft","0","8","60","300","[""0038_N0300_K0060_CLIQUE"",""0027_N0300_K0060_NOCLIQUE""]","",""
"","","","","","audio-keyboard-response","126","161987","0.0-56.5-0.5-1.5","","null","audio_feedback/shuffles/shuffle01.mp3","null","","","0","8","60","300","[""0038_N0300_K0060_CLIQUE"",""0027_N0300_K0060_NOCLIQUE""]","",""
"","","","","","canvas-keyboard-response","127","163466","0.0-56.6-0.6-0.6","","1409",""," ","[83,37,44,220,215,273,271,127,243,24,186,74,204,62,292,179,20,58,164,299,247,209,283,103,135,163,202,246,118,190,51,298,148,141,57,130,252,270,208,256,65,117,15,134,226,61,30,9,90,290,73,18,238,201,110,33,174,260,239,207,221,146,54,67,84,254,39,289,193,168,71,214,197,198,257,285,14,93,233,218,162,240,151,187,77,230,12,211,152,286,139,75,106,121,180,34,114,166,13,232,115,213,138,128,124,113,41,161,2,95,275,126,265,176,245,175,212,69,235,43,255,47,109,223,64,132,258,104,263,224,206,16,183,70,282,143,267,1,244,284,192,94,287,295,0,29,119,160,274,229,4,137,196,154,88,184,147,167,199,237,153,181,277,227,63,279,98,155,288,251,45,22,236,291,242,178,25,111,21,182,89,294,53,222,76,38,122,59,46,133,165,191,169,97,170,101,131,17,120,66,241,32,8,80,217,68,3,250,72,177,116,188,172,216,261,269,123,99,189,249,112,81,276,200,35,82,60,36,248,150,42,259,23,157,28,6,11,205,26,145,228,107,10,225,195,49,280,234,96,272,85,144,281,100,219,50,86,78,140,158,52,129,55,7,136,156,27,264,56,278,5,266,173,91,102,253,87,171,231,108,297,19,296,293,185,142,210,268,31,125,262,159,105,48,92,40,149,79,203,194]","arrowleft","0","8","60","300","[""0038_N0300_K0060_CLIQUE"",""0027_N0300_K0060_NOCLIQUE""]","",""
"","","","","","audio-keyboard-response","128","164035","0.0-56.6-0.6-1.6","","null","audio_feedback/shuffles/shuffle01.mp3","null","","","0","8","60","300","[""0038_N0300_K0060_CLIQUE"",""0027_N0300_K0060_NOCLIQUE""]","",""
"","","","","","canvas-keyboard-response","129","164928","0.0-56.7-0.7-0.7","","814","","arrowleft","[156,177,230,292,65,178,23,291,182,121,1,17,138,115,171,209,30,123,35,107,141,111,218,108,169,10,299,290,91,179,130,46,29,275,143,210,287,190,20,56,106,51,28,266,232,126,184,18,153,4,263,187,250,22,161,155,52,119,132,137,288,188,203,112,164,264,44,253,36,241,105,2,80,69,75,128,116,168,139,165,211,267,192,73,265,26,31,86,60,157,248,252,220,78,214,145,79,279,170,152,222,124,68,102,16,70,109,206,200,173,144,172,88,9,208,295,280,150,207,11,149,215,32,212,131,283,13,58,244,93,286,148,285,125,47,257,97,71,151,202,67,258,236,133,160,37,284,21,163,59,180,268,261,33,49,140,8,191,281,129,223,3,136,154,55,117,249,183,81,217,195,274,216,240,235,270,193,226,84,225,221,158,175,239,39,113,227,25,219,0,181,254,194,174,134,185,53,228,167,104,224,85,61,197,242,256,114,273,103,94,92,199,96,196,297,269,54,234,159,45,260,100,238,110,118,41,63,231,6,294,24,62,247,40,99,298,201,76,189,213,282,296,98,229,72,262,77,162,101,34,95,90,251,27,255,38,246,198,166,176,142,205,278,43,74,186,271,276,42,204,146,293,64,14,89,19,5,147,7,12,289,122,237,57,245,83,120,233,277,243,50,48,272,87,135,15,259,127,66,82]","arrowleft","0","8","60","300","[""0038_N0300_K0060_CLIQUE"",""0027_N0300_K0060_NOCLIQUE""]","","true"
"","","","","","audio-keyboard-response","130","165337","0.0-56.7-0.7-1.7","","null","audio_feedback/right/coin01.mp3","null","","","0","8","60","300","[""0038_N0300_K0060_CLIQUE"",""0027_N0300_K0060_NOCLIQUE""]","",""
"","","","","","canvas-keyboard-response","131","167052","0.0-57.0-0.0-0.0","","1641",""," ","[162,203,136,192,144,290,54,68,193,280,268,294,267,184,274,174,246,118,99,137,102,72,247,142,4,104,205,53,282,85,284,36,64,277,239,12,28,219,179,49,206,230,65,177,200,38,295,259,166,161,67,88,94,241,90,31,256,151,157,9,126,250,95,129,221,233,10,60,236,263,83,244,1,91,34,172,169,143,124,228,201,186,210,62,48,41,223,16,106,138,20,27,130,141,216,245,39,59,198,19,211,37,50,220,52,61,237,252,133,238,139,100,167,15,105,248,6,81,215,96,21,71,264,132,76,2,292,29,148,147,217,134,79,77,225,293,195,231,275,213,163,207,86,32,146,271,190,180,183,242,123,269,289,13,288,222,185,178,287,153,199,296,135,57,75,285,11,101,145,107,235,253,171,55,175,257,33,131,298,125,140,265,209,93,226,7,273,240,80,297,84,189,150,152,120,202,234,87,14,270,51,69,279,26,24,56,261,218,45,299,204,73,109,227,154,187,278,89,194,149,97,42,121,18,46,98,258,291,108,214,224,74,114,23,110,111,58,196,160,3,47,254,181,40,283,63,122,119,176,229,8,127,266,66,212,156,255,262,232,197,159,43,286,44,158,128,173,35,78,170,182,115,208,22,191,30,103,82,155,164,165,113,272,116,92,168,112,251,249,276,5,17,188,25,117,281,260,0,243,70]","arrowleft","0","9","60","300","[""0045_N0300_K0060_CLIQUE"",""0055_N0300_K0060_NOCLIQUE""]","",""
"","","","","","audio-keyboard-response","132","167619","0.0-57.0-0.0-1.0","","null","audio_feedback/shuffles/shuffle01.mp3","null","","","0","9","60","300","[""0045_N0300_K0060_CLIQUE"",""0055_N0300_K0060_NOCLIQUE""]","",""
"","","","","","canvas-keyboard-response","133","168335","0.0-57.1-0.1-0.1","","645",""," ","[280,146,205,88,233,216,48,169,34,35,76,140,290,105,252,201,112,1,160,178,143,199,109,173,264,51,57,10,228,165,168,29,142,298,119,141,13,42,175,198,210,97,267,21,299,151,211,220,23,64,194,273,108,75,38,56,72,91,39,266,230,145,9,159,70,89,260,37,25,213,250,52,293,45,30,59,202,87,215,162,82,107,203,186,208,95,281,63,248,284,150,212,226,135,125,128,297,167,96,222,279,221,218,110,181,251,158,131,155,49,265,292,50,187,62,258,66,117,294,116,130,90,179,136,65,289,15,269,31,174,84,148,32,68,166,190,239,86,60,103,247,138,4,229,7,261,195,46,200,26,61,24,124,182,118,277,185,285,80,249,6,122,120,129,18,83,180,219,157,227,74,73,296,5,43,204,263,214,243,22,259,176,85,55,197,17,11,256,67,237,8,20,177,36,114,102,2,163,152,69,126,134,255,77,12,245,153,282,78,287,147,0,171,81,132,234,113,137,235,111,106,272,100,53,19,238,191,206,254,139,240,232,101,183,192,14,244,224,242,283,79,94,41,172,127,275,144,207,71,231,16,99,193,58,47,189,170,28,133,98,196,149,92,33,40,291,121,54,154,27,246,184,274,164,161,115,241,3,262,236,288,223,44,295,270,271,188,209,217,268,286,278,276,253,104,257,123,156,225,93]","arrowleft","0","9","60","300","[""0045_N0300_K0060_CLIQUE"",""0055_N0300_K0060_NOCLIQUE""]","",""
"","","","","","audio-keyboard-response","134","168899","0.0-57.1-0.1-1.1","","null","audio_feedback/shuffles/shuffle01.mp3","null","","","0","9","60","300","[""0045_N0300_K0060_CLIQUE"",""0055_N0300_K0060_NOCLIQUE""]","",""
"","","","","","canvas-keyboard-response","135","169885","0.0-57.2-0.2-0.2","","902","","arrowright","[148,88,74,35,254,4,17,210,241,290,57,221,147,183,226,121,227,184,215,287,216,52,136,21,83,199,107,144,192,264,140,166,105,225,180,69,188,81,223,172,256,41,167,239,51,229,224,90,173,274,168,37,75,2,174,82,164,58,16,15,285,9,29,100,293,190,49,59,248,240,120,42,298,142,104,110,185,43,284,85,271,48,251,84,152,131,203,96,115,159,40,7,68,47,246,230,60,33,233,154,155,126,64,158,27,44,71,257,247,39,138,269,109,67,146,70,260,10,186,163,143,236,77,252,101,3,193,26,19,117,8,55,245,73,206,288,54,261,161,177,156,130,78,275,160,232,91,25,262,133,175,181,198,259,196,97,217,11,219,0,32,129,113,50,202,258,118,231,23,162,127,86,137,292,45,279,179,187,237,294,286,36,277,234,124,194,151,209,103,169,297,278,102,99,66,122,123,200,253,125,93,145,243,34,205,108,220,14,212,272,178,165,242,79,295,276,235,204,244,12,270,291,207,283,31,289,89,191,62,22,267,94,5,20,263,141,28,208,281,211,218,171,273,87,56,296,61,189,106,157,280,150,213,98,80,299,112,13,176,63,135,1,18,128,149,266,72,46,249,255,222,111,268,65,24,228,6,134,282,197,170,30,238,132,95,182,38,201,214,53,116,250,92,153,119,139,76,114,265,195]","arrowleft","0","9","60","300","[""0045_N0300_K0060_CLIQUE"",""0055_N0300_K0060_NOCLIQUE""]","","false"
"","","","","","audio-keyboard-response","136","170478","0.0-57.2-0.2-1.2","","null","audio_feedback/wrong/error01.mp3","null","","","0","9","60","300","[""0045_N0300_K0060_CLIQUE"",""0055_N0300_K0060_NOCLIQUE""]","",""
"","","","","","canvas-keyboard-response","137","171662","0.0-58.0-0.0-0.0","","1111",""," ","[215,156,267,209,174,59,19,129,30,252,113,28,231,123,131,186,13,109,287,147,295,112,155,203,145,246,25,247,137,163,199,141,83,51,96,54,192,258,175,116,178,48,224,279,288,164,197,68,142,289,245,88,7,92,60,182,290,94,263,108,284,189,133,65,84,20,101,281,26,220,148,172,17,37,259,140,251,177,132,166,223,136,63,228,71,181,260,103,66,150,235,294,33,138,107,206,198,127,21,27,73,225,78,86,160,57,80,250,135,139,291,217,67,2,193,154,22,79,90,240,283,0,91,76,264,16,62,271,276,161,298,268,214,212,56,43,41,34,36,77,3,210,196,265,266,218,286,232,165,222,128,8,277,42,162,188,296,72,110,40,44,31,151,85,58,157,278,201,35,122,55,239,49,9,87,105,254,70,237,270,226,227,10,120,75,130,119,230,207,261,233,253,242,180,292,100,293,171,241,52,194,168,104,255,89,23,1,179,282,81,117,200,176,6,229,4,143,238,299,95,93,280,208,50,221,249,11,159,102,146,12,126,115,273,190,39,106,18,297,269,111,243,195,185,205,173,184,5,187,114,152,98,183,99,46,167,213,202,272,158,234,61,244,97,144,69,236,53,219,29,118,47,256,204,15,14,134,124,262,32,153,257,24,169,191,275,248,121,274,216,38,45,285,211,64,74,149,82,125,170]","arrowright","0","10","55","300","[""0042_N0300_K0055_NOCLIQUE"",""0067_N0300_K0055_CLIQUE""]","",""
"","","","","","audio-keyboard-response","138","172227","0.0-58.0-0.0-1.0","","null","audio_feedback/shuffles/shuffle01.mp3","null","","","0","10","55","300","[""0042_N0300_K0055_NOCLIQUE"",""0067_N0300_K0055_CLIQUE""]","",""
"","","","","","canvas-keyboard-response","139","173082","0.0-58.1-0.1-0.1","","785",""," ","[184,26,4,141,61,280,43,263,208,128,94,265,242,150,151,268,53,73,223,88,202,7,25,78,139,189,162,278,213,247,8,298,122,182,108,72,218,68,237,297,287,129,137,76,210,222,112,119,149,121,32,214,59,216,116,105,180,286,47,17,103,179,117,60,290,252,3,232,255,196,71,84,127,209,233,86,115,152,201,228,289,204,136,191,166,138,176,21,6,92,91,146,270,132,97,158,241,271,168,211,27,82,77,69,173,193,274,79,34,87,235,101,33,174,226,95,296,133,35,267,83,113,190,279,148,99,120,125,30,236,41,65,48,284,18,144,74,56,177,63,109,170,219,42,140,10,217,70,203,163,175,55,96,135,54,161,80,118,123,159,134,142,276,291,143,244,85,169,31,114,11,259,215,299,44,40,207,46,281,272,100,38,261,16,246,256,243,294,22,110,66,185,248,126,124,89,107,102,81,227,155,277,229,1,264,90,239,221,23,253,249,206,231,172,145,293,131,282,37,147,295,39,50,160,153,156,199,198,36,93,275,224,205,225,111,106,194,230,200,212,28,57,220,15,240,58,13,62,197,29,157,258,45,104,283,181,273,49,262,19,245,285,0,164,9,269,2,171,14,183,130,12,51,98,20,52,67,24,234,165,75,266,260,64,288,154,195,186,192,188,250,254,251,292,257,238,5,187,178,167]","arrowright","0","10","55","300","[""0042_N0300_K0055_NOCLIQUE"",""0067_N0300_K0055_CLIQUE""]","",""
"","","","","","audio-keyboard-response","140","173657","0.0-58.1-0.1-1.1","","null","audio_feedback/shuffles/shuffle01.mp3","null","","","0","10","55","300","[""0042_N0300_K0055_NOCLIQUE"",""0067_N0300_K0055_CLIQUE""]","",""
"","","","","","canvas-keyboard-response","141","174549","0.0-58.2-0.2-0.2","","817",""," ","[7,295,48,26,2,101,79,76,290,59,140,219,149,184,266,262,258,203,31,284,109,83,145,75,220,154,194,259,64,87,289,8,114,163,125,33,15,170,187,113,147,155,30,294,172,93,221,50,256,5,168,38,292,271,207,156,286,158,36,128,96,141,210,63,287,98,57,43,74,200,22,44,202,108,241,19,17,157,191,268,253,69,14,199,29,198,123,243,143,6,215,1,160,165,175,18,58,196,173,296,167,60,174,12,279,41,232,11,144,55,180,298,53,78,54,20,132,212,185,209,46,229,299,193,255,124,171,130,32,240,127,285,218,110,190,61,237,45,230,152,181,37,120,0,51,151,139,135,249,270,10,106,97,176,100,246,70,66,73,82,77,276,62,227,85,267,252,223,81,42,265,134,16,84,283,204,274,244,25,201,119,40,166,13,138,86,226,150,148,94,131,260,216,27,137,293,208,142,9,269,222,115,89,164,103,197,112,133,189,211,49,80,238,67,280,278,65,107,186,188,281,28,162,250,231,177,282,272,111,56,161,206,242,52,228,213,136,169,214,35,90,146,275,245,248,192,88,116,99,257,159,178,297,233,153,247,71,117,3,205,235,254,47,236,225,179,126,91,118,183,261,291,224,129,121,92,68,104,234,23,122,24,288,195,39,34,239,263,217,264,21,105,72,251,277,273,95,182,4,102]","arrowright","0","10","55","300","[""0042_N0300_K0055_NOCLIQUE"",""0067_N0300_K0055_CLIQUE""]","",""
"","","","","","audio-keyboard-response","142","175107","0.0-58.2-0.2-1.2","","null","audio_feedback/shuffles/shuffle01.mp3","null","","","0","10","55","300","[""0042_N0300_K0055_NOCLIQUE"",""0067_N0300_K0055_CLIQUE""]","",""
"","","","","","canvas-keyboard-response","143","176108","0.0-58.3-0.3-0.3","","921",""," ","[293,209,8,269,106,197,3,278,272,18,27,205,58,2,81,259,118,264,249,232,181,110,86,23,95,208,135,243,218,24,260,104,75,66,193,211,236,226,12,74,299,123,201,196,161,80,165,82,47,137,14,210,166,62,67,126,273,99,103,73,10,200,115,183,175,108,291,129,133,186,223,111,30,38,233,127,25,212,176,164,140,6,235,262,276,136,194,77,244,224,199,251,261,277,154,91,168,286,189,64,180,89,177,220,122,94,257,263,46,245,102,29,139,268,198,191,163,270,229,71,134,11,203,190,85,153,22,16,93,116,267,195,188,51,265,121,37,275,207,0,53,150,292,28,97,79,239,41,120,215,5,296,48,213,158,65,119,31,50,155,130,280,32,55,152,92,184,254,33,206,171,156,221,294,242,109,173,234,187,290,284,253,217,282,40,39,76,247,98,172,88,101,174,7,42,56,138,125,54,145,204,143,84,114,182,70,216,283,112,72,248,107,45,185,113,214,61,250,83,36,132,21,15,281,288,146,9,295,96,124,231,35,151,141,228,289,225,192,131,285,63,149,222,157,169,238,52,34,266,202,271,20,100,274,60,241,162,148,258,230,160,167,147,4,44,179,17,117,219,43,237,178,69,105,128,240,298,87,279,26,227,255,1,159,90,170,13,57,19,142,78,256,144,59,49,252,297,246,68,287]","arrowright","0","10","55","300","[""0042_N0300_K0055_NOCLIQUE"",""0067_N0300_K0055_CLIQUE""]","",""
"","","","","","audio-keyboard-response","144","176686","0.0-58.3-0.3-1.3","","null","audio_feedback/shuffles/shuffle01.mp3","null","","","0","10","55","300","[""0042_N0300_K0055_NOCLIQUE"",""0067_N0300_K0055_CLIQUE""]","",""
"","","","","","canvas-keyboard-response","145","177989","0.0-58.4-0.4-0.4","","1226",""," ","[83,227,236,88,180,184,209,148,52,44,143,288,59,188,2,238,270,130,79,280,90,246,68,221,263,64,107,162,272,176,50,170,279,230,117,153,192,101,166,173,131,244,100,276,119,190,183,71,235,206,156,53,63,268,223,135,26,48,27,214,25,111,43,4,175,291,66,128,168,273,124,233,29,271,160,157,147,78,113,22,11,125,264,89,38,220,86,118,1,240,275,228,202,46,75,269,213,158,299,245,185,98,126,218,70,285,237,154,210,112,225,23,298,99,85,194,159,114,61,293,256,145,182,36,195,7,181,77,287,136,172,134,165,297,144,57,39,178,262,152,20,76,6,49,205,95,80,254,67,286,133,93,259,72,110,37,196,255,232,40,28,284,296,10,142,32,164,277,58,13,239,174,62,250,289,60,243,82,219,16,161,12,290,0,14,253,208,226,19,171,283,191,189,211,261,216,258,35,21,266,249,104,109,149,197,81,198,84,265,177,203,137,5,91,15,282,45,24,201,132,34,151,150,103,231,292,73,242,96,252,129,65,3,187,127,141,41,92,8,241,200,121,140,257,106,56,251,120,31,122,212,55,146,278,217,33,54,108,94,105,281,222,69,155,294,123,204,260,17,9,139,229,115,179,267,18,234,207,186,224,74,30,116,97,163,167,169,193,138,248,295,274,199,215,87,247,47,51,102,42]","arrowright","0","10","55","300","[""0042_N0300_K0055_NOCLIQUE"",""0067_N0300_K0055_CLIQUE""]","",""
"","","","","","audio-keyboard-response","146","178563","0.0-58.4-0.4-1.4","","null","audio_feedback/shuffles/shuffle01.mp3","null","","","0","10","55","300","[""0042_N0300_K0055_NOCLIQUE"",""0067_N0300_K0055_CLIQUE""]","",""
"","","","","","canvas-keyboard-response","147","179614","0.0-58.5-0.5-0.5","","974",""," ","[166,217,202,28,77,9,248,38,239,139,133,59,122,279,216,21,284,40,222,155,158,114,52,61,179,30,146,101,199,178,63,264,150,154,209,115,53,125,141,70,123,60,184,113,282,78,286,293,99,230,120,25,3,81,169,292,44,18,221,247,46,37,97,255,13,294,5,157,69,1,156,19,54,57,42,229,129,198,186,164,256,7,82,105,55,242,148,68,111,94,266,171,80,288,58,0,259,224,246,278,130,232,254,177,252,151,45,272,277,204,271,172,17,128,181,110,281,265,295,56,285,233,15,39,218,236,24,196,83,185,241,283,297,89,257,275,238,274,74,170,143,149,33,65,132,299,180,192,88,124,161,95,137,280,34,117,90,87,47,98,100,118,153,31,152,225,140,174,142,11,260,228,267,215,84,296,200,103,138,193,188,206,289,212,159,76,298,269,251,211,168,2,106,220,48,245,22,49,71,231,175,135,102,162,131,219,250,29,92,91,108,210,14,276,249,173,104,35,182,41,234,194,191,262,66,226,189,203,163,208,10,145,214,75,119,67,240,244,16,235,201,176,127,205,223,243,270,64,27,107,121,197,147,237,263,116,20,183,167,112,160,165,50,85,72,93,136,134,290,207,261,126,6,287,268,12,227,195,23,273,190,62,79,36,8,258,144,43,26,32,4,291,51,253,109,96,187,73,86,213]","arrowright","0","10","55","300","[""0042_N0300_K0055_NOCLIQUE"",""0067_N0300_K0055_CLIQUE""]","",""
"","","","","","audio-keyboard-response","148","180184","0.0-58.5-0.5-1.5","","null","audio_feedback/shuffles/shuffle01.mp3","null","","","0","10","55","300","[""0042_N0300_K0055_NOCLIQUE"",""0067_N0300_K0055_CLIQUE""]","",""
"","","","","","canvas-keyboard-response","149","183172","0.0-58.6-0.6-0.6","","2905",""," ","[254,133,63,196,161,130,65,82,110,148,178,137,194,276,242,129,226,197,201,86,278,205,50,267,224,176,247,185,167,243,6,0,157,109,29,116,248,206,10,244,190,47,138,241,162,200,232,169,23,134,19,204,105,164,27,277,112,39,81,101,140,80,70,128,292,156,256,250,265,283,38,60,221,189,120,295,180,41,282,24,40,22,4,298,207,28,90,58,5,7,123,87,159,61,143,217,35,271,290,1,269,252,239,106,297,255,95,199,174,235,45,192,251,181,21,238,158,191,154,211,141,231,280,202,160,122,219,268,264,119,155,227,229,85,79,51,68,113,294,99,289,240,69,102,288,270,16,285,53,135,127,73,98,218,48,273,166,145,249,9,78,93,108,203,20,144,184,91,195,62,83,15,210,115,214,49,222,55,236,259,245,170,299,13,117,44,132,272,216,118,136,257,18,193,223,92,100,266,42,89,71,25,64,274,237,84,17,149,59,56,209,225,168,163,114,2,57,253,198,284,258,37,88,179,103,14,279,215,246,153,208,183,54,263,97,26,175,172,46,261,220,43,182,76,165,233,186,228,31,146,188,124,230,12,287,30,3,150,171,96,142,11,262,286,177,275,213,72,187,32,66,296,147,107,291,293,173,212,260,36,77,94,151,139,234,34,104,111,131,33,152,126,75,121,52,125,67,8,281,74]","arrowright","0","10","55","300","[""0042_N0300_K0055_NOCLIQUE"",""0067_N0300_K0055_CLIQUE""]","",""
"","","","","","audio-keyboard-response","150","183748","0.0-58.6-0.6-1.6","","null","audio_feedback/shuffles/shuffle01.mp3","null","","","0","10","55","300","[""0042_N0300_K0055_NOCLIQUE"",""0067_N0300_K0055_CLIQUE""]","",""
"","","","","","canvas-keyboard-response","151","184748","0.0-58.7-0.7-0.7","","931",""," ","[131,3,28,218,145,242,299,72,5,180,21,89,50,127,255,75,271,14,212,284,20,115,233,172,217,247,164,119,248,111,273,224,8,166,176,16,154,100,142,146,188,265,187,157,297,18,32,279,98,230,40,27,190,128,4,29,116,262,209,215,77,17,159,140,109,275,211,239,291,117,147,231,235,268,283,167,129,93,220,243,38,107,23,0,84,263,293,90,15,259,12,226,254,216,285,135,22,87,54,26,41,144,221,112,63,196,80,122,92,292,86,9,270,101,24,30,203,234,74,45,177,13,289,150,228,219,207,118,163,85,272,179,155,232,205,229,152,70,201,199,124,183,58,237,249,266,7,88,139,189,81,73,194,225,132,251,48,95,288,165,162,125,295,258,286,178,33,82,46,269,79,236,267,175,280,168,64,55,69,287,130,253,68,113,184,60,181,290,245,298,250,57,120,1,294,11,47,160,43,148,238,105,277,53,197,94,296,195,37,114,97,191,121,91,78,126,151,65,173,76,252,137,276,19,67,133,186,99,169,223,206,170,161,282,49,210,138,153,182,36,256,257,123,149,103,6,59,56,136,244,200,264,246,278,83,192,261,274,44,143,227,240,71,204,108,102,96,260,39,185,66,134,193,141,2,213,35,110,10,241,214,61,198,52,156,62,34,222,42,281,51,25,106,31,208,202,104,158,174,171]","arrowright","0","10","55","300","[""0042_N0300_K0055_NOCLIQUE"",""0067_N0300_K0055_CLIQUE""]","",""
"","","","","","audio-keyboard-response","152","185327","0.0-58.7-0.7-1.7","","null","audio_feedback/shuffles/shuffle01.mp3","null","","","0","10","55","300","[""0042_N0300_K0055_NOCLIQUE"",""0067_N0300_K0055_CLIQUE""]","",""
"","","","","","canvas-keyboard-response","153","186262","0.0-58.8-0.8-0.8","","856","","arrowright","[40,3,56,64,82,132,155,222,173,101,214,211,70,146,126,208,230,164,42,142,266,110,273,239,137,279,75,60,81,121,105,213,290,67,296,179,199,210,134,136,92,190,285,12,103,250,54,264,157,170,163,278,168,189,248,62,76,113,217,107,109,145,241,160,27,288,135,198,227,85,176,57,53,7,185,140,165,43,147,195,52,286,148,116,1,38,108,229,263,130,16,39,4,58,112,236,151,289,10,252,100,114,59,191,240,226,5,83,48,133,102,73,196,154,259,177,174,175,123,293,261,268,255,207,262,29,299,125,272,138,274,209,284,65,181,169,28,61,172,200,44,202,297,212,270,269,30,118,98,205,260,294,51,237,23,36,31,0,225,243,295,32,253,63,93,183,215,221,166,256,275,77,37,2,25,99,22,156,267,47,159,141,235,231,282,21,128,244,129,276,193,88,111,127,34,9,14,245,122,86,247,124,206,17,220,161,50,139,35,49,224,184,180,26,152,8,19,143,194,238,246,197,89,131,178,201,287,233,258,171,232,291,150,203,186,182,104,219,257,144,204,33,254,41,94,72,153,158,24,55,45,280,277,13,80,149,20,91,188,216,187,79,223,115,11,162,281,96,271,66,95,18,87,119,192,228,167,251,69,234,78,218,283,249,46,298,265,120,74,90,117,6,15,68,106,71,292,242,97,84]","arrowright","0","10","55","300","[""0042_N0300_K0055_NOCLIQUE"",""0067_N0300_K0055_CLIQUE""]","","true"
"","","","","","audio-keyboard-response","154","186691","0.0-58.8-0.8-1.8","","null","audio_feedback/right/coin01.mp3","null","","","0","10","55","300","[""0042_N0300_K0055_NOCLIQUE"",""0067_N0300_K0055_CLIQUE""]","",""
"","","","","","canvas-keyboard-response","155","188208","0.0-59.0-0.0-0.0","","1446","","arrowright","[146,207,102,56,117,290,96,45,274,163,27,124,159,39,256,171,31,264,299,166,165,134,234,288,8,30,98,287,155,38,191,152,277,34,228,3,150,224,153,57,17,187,180,97,282,157,115,261,119,118,240,245,105,71,266,79,223,188,103,94,263,81,209,232,241,121,151,110,24,184,160,202,7,42,143,158,63,125,85,181,167,164,75,284,268,128,78,1,126,250,54,106,242,280,233,295,195,4,144,185,93,47,218,67,132,111,296,235,267,49,138,40,254,99,147,161,130,9,294,231,186,215,80,76,271,298,58,196,230,219,0,19,272,77,64,289,221,170,14,244,179,172,190,225,123,251,201,116,18,220,238,84,127,208,20,145,135,91,148,176,255,51,136,247,217,122,141,248,236,50,140,229,52,192,44,162,276,291,26,22,214,74,293,114,197,29,211,203,252,281,37,239,82,154,68,205,278,216,10,292,70,88,193,210,279,95,25,259,243,61,149,5,129,177,113,174,89,283,6,11,173,258,189,104,269,175,21,33,178,23,262,270,66,206,112,273,194,200,108,65,142,297,198,183,227,253,257,182,156,15,83,212,265,285,107,249,28,36,275,92,48,32,246,62,131,69,199,169,73,137,204,226,13,43,168,133,213,35,120,222,2,16,109,286,55,53,46,86,72,59,260,237,101,139,87,100,90,12,60,41]","arrowright","0","11","55","300","[""0036_N0300_K0055_NOCLIQUE"",""0092_N0300_K0055_CLIQUE""]","","true"
"","","","","","audio-keyboard-response","156","188633","0.0-59.0-0.0-1.0","","null","audio_feedback/right/coin01.mp3","null","","","0","11","55","300","[""0036_N0300_K0055_NOCLIQUE"",""0092_N0300_K0055_CLIQUE""]","",""
"","","","","","canvas-keyboard-response","157","189734","0.0-60.0-0.0-0.0","","1018","","arrowright","[47,260,183,210,192,247,56,228,178,16,290,246,235,279,63,119,44,128,19,252,122,177,139,153,22,282,216,54,93,85,294,26,68,97,11,17,292,218,132,271,52,12,32,87,168,297,221,55,135,148,162,38,3,272,241,243,151,129,136,102,137,188,275,9,237,25,62,231,261,284,130,222,171,274,269,50,189,167,36,127,267,254,67,117,229,206,174,71,31,156,270,143,21,59,48,125,39,164,223,194,116,166,250,80,20,184,285,79,154,133,232,27,123,213,70,256,265,208,280,176,209,141,281,146,203,34,248,159,115,81,286,224,142,114,89,191,108,138,195,33,211,95,76,255,278,190,163,84,49,240,193,215,299,268,29,150,214,77,112,0,37,226,98,199,72,45,24,58,10,66,46,181,236,245,165,180,161,251,289,187,202,157,149,262,179,43,266,152,91,104,30,2,8,155,273,182,103,120,169,233,258,7,173,82,244,295,75,198,13,170,111,204,234,74,242,53,253,69,83,296,14,219,288,41,197,86,147,263,158,60,131,110,28,121,287,100,1,42,186,94,35,175,283,259,90,105,118,293,126,73,264,140,220,61,145,225,227,298,212,217,109,196,4,23,200,238,18,92,144,6,249,88,205,51,106,257,276,57,64,201,65,5,291,101,230,78,107,134,96,160,239,277,40,172,124,207,99,15,113,185]","arrowleft","0","12","50","300","[""0059_N0300_K0050_CLIQUE"",""0098_N0300_K0050_NOCLIQUE""]","","false"
"","","","","","audio-keyboard-response","158","190340","0.0-60.0-0.0-1.0","","null","audio_feedback/wrong/error01.mp3","null","","","0","12","50","300","[""0059_N0300_K0050_CLIQUE"",""0098_N0300_K0050_NOCLIQUE""]","",""
"","","","","","canvas-keyboard-response","159","191601","0.0-61.0-0.0-0.0","","1190",""," ","[161,245,125,22,93,55,174,5,213,249,149,208,237,186,31,64,212,281,16,110,60,230,12,270,130,241,134,144,154,182,159,224,207,142,94,132,264,76,298,236,176,28,165,256,153,98,32,148,253,261,209,53,2,166,17,54,3,268,102,288,109,277,233,206,197,178,89,77,170,137,4,128,273,244,84,126,119,210,254,191,169,101,226,25,246,38,180,157,150,103,43,74,280,168,83,107,193,238,108,240,289,80,172,299,99,117,217,293,57,37,255,104,68,194,115,10,52,260,75,147,252,200,113,258,203,181,49,267,123,295,62,66,227,23,163,50,0,120,250,69,265,175,71,220,48,160,279,63,171,21,56,239,222,27,223,39,19,247,116,129,231,189,30,179,287,167,262,202,59,158,286,7,145,235,114,156,96,271,1,187,86,26,61,90,221,136,146,266,44,216,234,106,155,201,143,100,263,243,190,185,183,292,121,81,225,215,164,232,47,127,122,97,95,46,11,272,205,198,139,72,88,14,294,275,138,133,140,284,291,78,211,152,196,85,282,285,34,151,33,18,51,219,184,87,111,73,199,278,92,248,6,40,214,259,41,42,8,65,112,195,35,290,15,45,192,20,162,257,173,118,124,79,91,9,36,269,188,24,276,228,135,29,251,131,297,70,105,13,67,141,242,82,177,58,283,229,204,274,218,296]","arrowleft","0","13","50","300","[""0007_N0300_K0050_CLIQUE"",""0060_N0300_K0050_NOCLIQUE""]","",""
"","","","","","audio-keyboard-response","160","192174","0.0-61.0-0.0-1.0","","null","audio_feedback/shuffles/shuffle01.mp3","null","","","0","13","50","300","[""0007_N0300_K0050_CLIQUE"",""0060_N0300_K0050_NOCLIQUE""]","",""
"","","","","","canvas-keyboard-response","161","193154","0.0-61.1-0.1-0.1","","906",""," ","[98,279,2,221,285,220,25,17,184,119,92,194,95,275,91,53,231,294,233,199,105,136,70,242,289,124,255,153,162,159,88,112,230,41,3,211,129,272,49,100,166,118,126,9,63,50,115,111,193,245,178,209,278,146,291,29,258,143,59,44,43,164,296,198,203,259,7,210,138,13,298,235,16,55,216,54,158,21,76,155,206,254,117,174,171,240,46,185,71,97,190,251,120,261,103,83,58,110,45,246,133,23,281,93,200,56,277,75,14,264,168,239,106,8,256,52,257,263,142,20,113,78,114,150,268,130,265,232,260,51,204,172,187,127,266,145,237,186,132,224,151,175,299,273,30,286,40,208,62,37,94,80,65,131,170,108,26,73,18,165,283,24,74,82,173,271,250,116,57,243,202,148,102,197,10,282,152,156,222,68,215,15,214,236,182,262,86,31,249,77,269,12,157,177,218,290,292,241,121,34,27,144,11,223,234,154,147,1,297,81,163,253,135,180,280,0,227,226,48,205,28,61,228,244,125,87,149,109,247,284,225,140,85,217,167,274,6,99,160,270,195,104,238,189,4,69,141,35,39,84,123,47,191,101,219,32,90,276,139,181,89,42,196,201,60,252,128,212,19,229,179,134,161,293,33,122,137,288,64,248,79,176,36,169,188,107,295,5,192,183,213,96,22,267,66,207,67,287,38,72]","arrowleft","0","13","50","300","[""0007_N0300_K0050_CLIQUE"",""0060_N0300_K0050_NOCLIQUE""]","",""
"","","","","","audio-keyboard-response","162","193732","0.0-61.1-0.1-1.1","","null","audio_feedback/shuffles/shuffle01.mp3","null","","","0","13","50","300","[""0007_N0300_K0050_CLIQUE"",""0060_N0300_K0050_NOCLIQUE""]","",""
"","","","","","canvas-keyboard-response","163","194419","0.0-61.2-0.2-0.2","","607",""," ","[243,133,265,36,275,283,237,42,246,125,199,208,120,41,223,196,279,61,158,163,175,25,124,282,116,78,95,269,9,97,148,55,241,16,200,252,127,57,130,75,234,247,107,251,32,94,28,213,24,126,27,33,93,122,155,273,31,165,119,129,64,170,290,106,0,145,229,293,53,140,82,210,115,71,157,244,50,60,245,291,261,118,35,218,87,271,159,226,96,222,63,37,4,39,240,168,92,274,230,270,255,131,287,77,209,294,253,298,137,206,233,98,191,110,212,22,108,236,285,169,211,150,166,135,138,5,202,144,8,121,151,215,153,111,266,29,272,142,81,67,201,267,12,186,19,99,250,103,238,164,100,299,23,54,289,256,26,101,197,123,227,207,187,85,254,80,128,162,242,192,65,59,91,190,288,146,216,113,20,297,13,204,21,58,86,52,214,183,44,56,1,177,30,156,292,278,2,17,172,176,171,132,217,185,143,72,43,263,167,224,89,205,260,105,225,228,276,139,34,235,141,264,174,10,181,112,84,47,79,149,70,7,18,51,104,249,277,286,154,76,88,259,160,69,46,221,38,231,109,184,257,178,280,189,11,248,295,6,117,102,182,49,40,161,147,73,74,173,3,62,15,281,296,48,203,180,45,68,232,198,195,262,220,193,258,90,66,284,179,14,239,83,114,134,152,136,194,188,219,268]","arrowleft","0","13","50","300","[""0007_N0300_K0050_CLIQUE"",""0060_N0300_K0050_NOCLIQUE""]","",""
"","","","","","audio-keyboard-response","164","194990","0.0-61.2-0.2-1.2","","null","audio_feedback/shuffles/shuffle01.mp3","null","","","0","13","50","300","[""0007_N0300_K0050_CLIQUE"",""0060_N0300_K0050_NOCLIQUE""]","",""
