"success","timeout","failed_images","failed_audio","failed_video","trial_type","trial_index","time_elapsed","internal_node_id","view_history","rt","stimulus","response","nodes_order","correct_response","graphs_couple","accuracy","block_index","presentation_index","clique_size","graph_size","graphs_names"
"true","false","[]","[]","[]","preload","0","55172","0.0-0.0","","","","","","","","","","","","",""
"","","","","","pavlovia","1","56924","0.0-1.0","","","","","","","","","","","","",""
"","","","","","instructions","2","66501","0.0-2.0","[{""page_index"":0,""viewing_time"":7809},{""page_index"":1,""viewing_time"":1765}]","9574","","","","","","","","","","",""
"true","false","[]","[]","[]","preload","3","71062","0.0-3.0","","","","","","","","","","","","",""
"","","","","","instructions","4","180368","0.0-4.0","[{""page_index"":0,""viewing_time"":2533},{""page_index"":1,""viewing_time"":1141},{""page_index"":2,""viewing_time"":493},{""page_index"":3,""viewing_time"":1707},{""page_index"":4,""viewing_time"":1758},{""page_index"":5,""viewing_time"":3273},{""page_index"":6,""viewing_time"":1742},{""page_index"":7,""viewing_time"":1332},{""page_index"":8,""viewing_time"":1389},{""page_index"":9,""viewing_time"":1373},{""page_index"":10,""viewing_time"":3300},{""page_index"":11,""viewing_time"":990},{""page_index"":12,""viewing_time"":1802},{""page_index"":13,""viewing_time"":1346},{""page_index"":14,""viewing_time"":1182},{""page_index"":15,""viewing_time"":681},{""page_index"":16,""viewing_time"":1111},{""page_index"":17,""viewing_time"":705},{""page_index"":18,""viewing_time"":1410},{""page_index"":17,""viewing_time"":2776},{""page_index"":18,""viewing_time"":15991},{""page_index"":19,""viewing_time"":962},{""page_index"":20,""viewing_time"":662},{""page_index"":21,""viewing_time"":626},{""page_index"":22,""viewing_time"":634},{""page_index"":23,""viewing_time"":1614},{""page_index"":24,""viewing_time"":667},{""page_index"":25,""viewing_time"":766},{""page_index"":26,""viewing_time"":1139},{""page_index"":27,""viewing_time"":1146},{""page_index"":28,""viewing_time"":671},{""page_index"":29,""viewing_time"":857},{""page_index"":30,""viewing_time"":1706},{""page_index"":31,""viewing_time"":1440},{""page_index"":32,""viewing_time"":1389},{""page_index"":33,""viewing_time"":1169},{""page_index"":34,""viewing_time"":654},{""page_index"":35,""viewing_time"":2362},{""page_index"":36,""viewing_time"":1720},{""page_index"":37,""viewing_time"":686},{""page_index"":38,""viewing_time"":1528},{""page_index"":39,""viewing_time"":1212},{""page_index"":40,""viewing_time"":1008},{""page_index"":41,""viewing_time"":866},{""page_index"":42,""viewing_time"":3460},{""page_index"":43,""viewing_time"":6182},{""page_index"":44,""viewing_time"":3844},{""page_index"":45,""viewing_time"":8775},{""page_index"":46,""viewing_time"":2634},{""page_index"":47,""viewing_time"":2151},{""page_index"":48,""viewing_time"":1522},{""page_index"":49,""viewing_time"":757},{""page_index"":50,""viewing_time"":5148},{""page_index"":51,""viewing_time"":1313}]","109305","","","","","","","","","","",""
"","","","","","instructions","5","190949","0.0-5.0","[{""page_index"":0,""viewing_time"":10580}]","10580","","","","","","","","","","",""
"true","false","[]","[]","[]","preload","6","191484","0.0-6.0","","","","","","","","","","","","",""
"","","","","","image-keyboard-response","7","197795","0.0-7.0","","6309","tutorial/task_familiarization_images/part 1/01_N160_K90_cliqueRight_question1.PNG"," ","","","","","","","","",""
"","","","","","image-keyboard-response","8","199419","0.0-8.0","","1623","tutorial/task_familiarization_images/part 1/02_N160_K90_cliqueRight_question2.PNG"," ","","","","","","","","",""
"","","","","","image-keyboard-response","9","201399","0.0-9.0","","1978","tutorial/task_familiarization_images/part 1/03_N160_K90_cliqueRight_question3.PNG","arrowright","","","","","","","","",""
"","","","","","image-keyboard-response","10","202727","0.0-10.0","","1327","tutorial/task_familiarization_images/part 1/04_N160_K90_cliqueRight_solution.PNG"," ","","","","","","","","",""
"","","","","","image-keyboard-response","11","207630","0.0-11.0","","4901","tutorial/task_familiarization_images/part 1/05_N160_K65_cliqueRight_question1.PNG"," ","","","","","","","","",""
"","","","","","image-keyboard-response","12","209357","0.0-12.0","","1726","tutorial/task_familiarization_images/part 1/06_N160_K65_cliqueRight_question2.PNG"," ","","","","","","","","",""
"","","","","","image-keyboard-response","13","210592","0.0-13.0","","1233","tutorial/task_familiarization_images/part 1/07_N160_K65_cliqueRight_question3.PNG","arrowright","","","","","","","","",""
"","","","","","image-keyboard-response","14","211538","0.0-14.0","","945","tutorial/task_familiarization_images/part 1/08_N160_K65_cliqueRight_solution.PNG"," ","","","","","","","","",""
"","","","","","image-keyboard-response","15","212909","0.0-15.0","","1370","tutorial/task_familiarization_images/part 1/09_N160_K50_cliqueLeft_question1.PNG"," ","","","","","","","","",""
"","","","","","image-keyboard-response","16","214312","0.0-16.0","","1400","tutorial/task_familiarization_images/part 1/10_N160_K50_cliqueLeft_question2.PNG"," ","","","","","","","","",""
"","","","","","image-keyboard-response","17","215338","0.0-17.0","","1024","tutorial/task_familiarization_images/part 1/11_N160_K50_cliqueLeft_question3.PNG","arrowleft","","","","","","","","",""
"","","","","","image-keyboard-response","18","216600","0.0-18.0","","1261","tutorial/task_familiarization_images/part 1/12_N160_K50_cliqueLeft_solution.PNG"," ","","","","","","","","",""
"","","","","","image-keyboard-response","19","217557","0.0-19.0","","956","tutorial/task_familiarization_images/part 1/13_N160_K80_cliqueLeft_question1.PNG"," ","","","","","","","","",""
"","","","","","image-keyboard-response","20","218945","0.0-20.0","","1387","tutorial/task_familiarization_images/part 1/14_N160_K80_cliqueLeft_question2.PNG"," ","","","","","","","","",""
"","","","","","image-keyboard-response","21","219960","0.0-21.0","","1014","tutorial/task_familiarization_images/part 1/15_N160_K80_cliqueLeft_question3.PNG","arrowleft","","","","","","","","",""
"","","","","","image-keyboard-response","22","220788","0.0-22.0","","826","tutorial/task_familiarization_images/part 1/16_N160_K80_cliqueLeft_solution.PNG"," ","","","","","","","","",""
"","","","","","image-keyboard-response","23","224320","0.0-23.0","","3531","tutorial/task_familiarization_images/part 1/17_N160_K40_cliqueRight_question1.PNG"," ","","","","","","","","",""
"","","","","","image-keyboard-response","24","226141","0.0-24.0","","1819","tutorial/task_familiarization_images/part 1/18_N160_K40_cliqueRight_question2.PNG"," ","","","","","","","","",""
"","","","","","image-keyboard-response","25","227379","0.0-25.0","","1236","tutorial/task_familiarization_images/part 1/19_N160_K40_cliqueRight_question3.PNG","arrowright","","","","","","","","",""
"","","","","","image-keyboard-response","26","229521","0.0-26.0","","2140","tutorial/task_familiarization_images/part 1/20_N160_K40_cliqueRight_solution.PNG"," ","","","","","","","","",""
"","","","","","image-keyboard-response","27","230657","0.0-27.0","","1136","tutorial/task_familiarization_images/part 1/21_N160_K70_cliqueLeft_question1.PNG"," ","","","","","","","","",""
"","","","","","image-keyboard-response","28","232194","0.0-28.0","","1536","tutorial/task_familiarization_images/part 1/22_N160_K70_cliqueLeft_question2.PNG"," ","","","","","","","","",""
"","","","","","image-keyboard-response","29","232751","0.0-29.0","","556","tutorial/task_familiarization_images/part 1/23_N160_K70_cliqueLeft_question3.PNG","arrowleft","","","","","","","","",""
"","","","","","image-keyboard-response","30","233545","0.0-30.0","","793","tutorial/task_familiarization_images/part 1/24_N160_K70_cliqueLeft_solution.PNG"," ","","","","","","","","",""
"true","false","[]","[]","[]","preload","31","234581","0.0-31.0","","","","","","","","","","","","",""
"","","","","","image-keyboard-response","32","243275","0.0-32.0","","8693","tutorial/task_familiarization_images/part 2/01_160_80_cliqueLeft_withFeedback_1.PNG"," ","","","","","","","","",""
"","","","","","image-keyboard-response","33","251177","0.0-33.0","","7901","tutorial/task_familiarization_images/part 2/02_160_80_cliqueLeft_withFeedback_1.PNG"," ","","","","","","","","",""
"","","","","","image-keyboard-response","34","252385","0.0-34.0","","1206","tutorial/task_familiarization_images/part 2/03_160_80_cliqueLeft_withFeedback_3.PNG","arrowleft","","","","","","","","",""
"","","","","","image-keyboard-response","35","257231","0.0-35.0","","4845","tutorial/task_familiarization_images/part 2/04_160_80_cliqueLeft_withFeedback_correct.PNG"," ","","","","","","","","",""
"","","","","","image-keyboard-response","36","260824","0.0-36.0","","3592","tutorial/task_familiarization_images/part 2/05_160_55_cliqueRight_withFeedback_1.PNG"," ","","","","","","","","",""
"","","","","","image-keyboard-response","37","261674","0.0-37.0","","849","tutorial/task_familiarization_images/part 2/06_160_55_cliqueRight_withFeedback_2.PNG"," ","","","","","","","","",""
"","","","","","image-keyboard-response","38","262623","0.0-38.0","","948","tutorial/task_familiarization_images/part 2/07_160_55_cliqueRight_withFeedback_3.PNG","arrowright","","","","","","","","",""
"","","","","","image-keyboard-response","39","263625","0.0-39.0","","1001","tutorial/task_familiarization_images/part 2/08_160_55_cliqueRight_withFeedback_correct.PNG"," ","","","","","","","","",""
"","","","","","image-keyboard-response","40","264749","0.0-40.0","","1123","tutorial/task_familiarization_images/part 2/09_160_70_cliqueLeft_withFeedback_1.PNG"," ","","","","","","","","",""
"","","","","","image-keyboard-response","41","266209","0.0-41.0","","1459","tutorial/task_familiarization_images/part 2/10_160_70_cliqueLeft_withFeedback_2.PNG"," ","","","","","","","","",""
"","","","","","image-keyboard-response","42","267078","0.0-42.0","","867","tutorial/task_familiarization_images/part 2/11_160_70_cliqueLeft_withFeedback_3.PNG","arrowleft","","","","","","","","",""
"","","","","","image-keyboard-response","43","267921","0.0-43.0","","842","tutorial/task_familiarization_images/part 2/12_160_70_cliqueLeft_withFeedback_correct.PNG"," ","","","","","","","","",""
"","","","","","survey-html-form","44","277975","0.0-44.0","","10053","","{""gender"":""male"",""age"":""27""}","","","","","","","","",""
"","","","","","instructions","45","292927","0.0-45.0","[{""page_index"":0,""viewing_time"":14951}]","14951","","","","","","","","","","",""
"true","","","","","fullscreen","46","299213","0.0-47.0","","","","","","","","","","","","",""
"","","","","","canvas-keyboard-response","47","301957","0.0-48.0-0.0-0.0","","2632","","arrowleft","[88,216,23,8,229,24,145,175,44,118,126,32,65,277,125,105,74,239,113,131,149,36,242,188,76,67,20,51,10,264,155,50,141,142,132,101,217,77,38,144,64,78,191,162,257,255,19,148,114,60,85,236,262,137,130,263,102,157,292,205,13,279,116,3,221,179,297,121,68,187,276,139,127,56,93,270,181,124,140,253,247,278,31,84,34,33,100,189,40,83,79,143,15,271,246,7,204,6,75,201,17,87,104,225,223,22,226,159,48,256,195,89,167,283,281,261,215,174,158,183,1,154,203,41,151,98,211,109,231,61,122,95,171,199,39,86,180,49,66,52,268,196,97,37,193,293,134,295,190,81,108,213,110,28,290,146,241,46,119,82,150,207,294,209,63,16,96,259,26,136,123,244,252,186,206,286,133,117,228,258,29,80,106,222,27,138,45,299,5,54,90,4,184,197,177,94,198,273,176,192,92,275,248,178,99,267,291,42,53,11,35,266,57,194,111,249,168,245,135,72,250,298,287,234,208,173,282,163,285,153,166,62,214,18,58,210,161,218,232,70,212,172,243,21,237,71,238,107,251,235,69,156,115,182,185,91,12,165,9,224,269,280,230,233,219,265,240,220,260,59,160,103,112,202,128,164,272,30,25,55,43,152,14,2,169,274,296,254,200,0,47,73,170,129,289,284,147,288,227,120]","arrowleft","","true","0","0","90","300","[""0060_N0300_K0090_CLIQUE"",""0055_N0300_K0090_NOCLIQUE""]"
"","","","","","audio-keyboard-response","48","302743","0.0-48.0-0.0-1.0","","null","audio_feedback/right/coin01.mp3","null","","","","","0","0","90","300","[""0060_N0300_K0090_CLIQUE"",""0055_N0300_K0090_NOCLIQUE""]"
"","","","","","canvas-keyboard-response","49","304830","0.0-49.0-0.0-0.0","","2015","","arrowright","[73,194,144,131,208,161,292,16,25,225,181,251,31,233,284,112,274,87,204,3,280,128,278,243,51,156,160,21,137,242,90,132,267,256,57,71,119,2,107,196,171,127,169,60,157,50,252,123,254,65,291,79,113,6,59,153,222,126,277,62,294,19,216,229,258,234,116,115,105,48,172,266,282,22,20,121,255,41,183,286,190,96,12,77,39,67,23,289,117,136,238,155,173,236,290,38,211,244,85,269,283,168,239,287,245,33,56,240,89,230,120,75,29,223,26,206,53,281,11,227,141,163,134,80,99,217,264,299,152,129,270,124,108,55,185,5,189,61,40,9,135,178,139,118,192,248,298,7,246,17,200,63,84,147,209,207,273,215,197,260,114,45,83,111,293,167,91,220,88,219,125,69,76,295,210,232,110,166,158,253,14,187,262,15,82,249,154,18,145,109,52,86,150,250,275,142,180,212,186,1,97,235,46,35,261,102,98,140,94,95,237,175,276,93,4,148,218,24,188,202,213,177,146,36,130,288,143,170,205,10,32,271,296,247,179,100,231,191,195,133,162,285,37,43,259,44,165,70,265,68,34,164,184,279,201,159,27,13,66,151,74,78,193,8,138,106,58,47,49,28,221,272,203,199,174,104,226,241,81,122,228,72,198,42,101,64,297,182,149,92,176,268,103,257,224,263,0,54,214,30]","arrowright","","true","0","1","90","300","[""0016_N0300_K0090_NOCLIQUE"",""0016_N0300_K0090_CLIQUE""]"
"","","","","","audio-keyboard-response","50","305241","0.0-49.0-0.0-1.0","","null","audio_feedback/right/coin01.mp3","null","","","","","0","1","90","300","[""0016_N0300_K0090_NOCLIQUE"",""0016_N0300_K0090_CLIQUE""]"
"","","","","","canvas-keyboard-response","51","308355","0.0-50.0-0.0-0.0","","3050","","arrowright","[258,161,261,270,276,79,289,239,144,145,232,31,119,178,55,115,34,287,242,198,40,230,264,0,237,208,284,11,221,12,27,148,254,35,246,213,186,89,207,269,67,70,136,77,156,106,23,25,222,62,109,8,129,249,166,60,73,157,153,173,295,85,39,288,177,293,20,251,118,110,81,233,117,91,75,114,121,99,134,179,137,51,9,143,225,78,216,58,37,210,181,200,227,203,69,38,164,83,299,61,54,108,292,105,298,107,182,59,98,218,71,150,214,206,297,122,104,277,68,18,146,152,291,1,135,47,82,7,45,196,266,228,149,189,199,209,285,290,101,22,282,26,36,3,52,229,171,184,278,294,253,234,194,220,188,271,127,168,30,155,187,57,268,29,160,87,223,219,130,204,19,241,33,279,243,120,275,5,131,128,245,84,211,21,226,4,102,72,88,63,280,43,286,256,116,141,123,162,255,205,103,191,163,192,175,195,267,272,167,94,159,112,138,15,165,95,174,41,97,24,190,53,224,172,154,49,142,66,247,252,236,193,28,133,132,90,169,86,244,139,32,180,296,176,263,201,202,235,124,74,274,183,215,240,281,197,2,6,262,140,13,16,93,56,113,259,80,96,250,64,185,111,248,158,125,260,257,265,231,147,100,283,238,126,151,273,76,17,48,92,10,44,212,217,65,46,170,42,50,14]","arrowright","","true","0","2","80","300","[""0006_N0300_K0080_NOCLIQUE"",""0033_N0300_K0080_CLIQUE""]"
"","","","","","audio-keyboard-response","52","308782","0.0-50.0-0.0-1.0","","null","audio_feedback/right/coin01.mp3","null","","","","","0","2","80","300","[""0006_N0300_K0080_NOCLIQUE"",""0033_N0300_K0080_CLIQUE""]"
"","","","","","canvas-keyboard-response","53","310259","0.0-51.0-0.0-0.0","","1418","","arrowleft","[142,221,173,26,214,1,287,18,281,145,146,189,53,116,157,137,174,60,138,283,77,113,0,85,27,264,20,82,280,110,65,242,39,104,88,265,78,83,180,279,296,245,96,178,249,95,251,108,80,5,201,234,160,153,4,171,176,252,66,291,129,72,222,218,68,177,127,199,50,133,31,228,298,243,219,154,246,8,255,250,42,288,61,49,75,41,103,260,91,161,247,286,107,51,81,125,19,117,248,278,101,47,76,114,15,119,240,181,33,254,203,195,56,200,92,14,25,87,193,256,35,36,158,120,9,13,126,216,232,236,28,215,167,64,89,59,163,285,227,209,136,149,43,63,123,165,208,271,11,37,172,128,164,179,90,295,272,134,231,155,69,275,188,93,237,144,268,166,233,297,38,105,206,270,100,52,211,152,74,276,34,118,238,48,2,102,109,212,23,226,230,194,140,46,22,191,112,258,55,217,54,244,294,184,139,183,267,57,213,253,266,196,84,6,111,210,106,197,71,261,99,274,239,130,150,187,12,299,73,273,141,292,24,156,293,147,175,159,10,79,284,32,192,290,16,202,17,148,3,223,257,97,131,224,289,122,67,207,124,121,45,40,186,282,169,115,185,70,21,86,162,241,205,151,94,235,269,132,259,182,170,168,29,262,229,98,198,220,143,277,58,7,30,62,225,263,135,44,204,190]","arrowleft","","true","0","3","80","300","[""0043_N0300_K0080_CLIQUE"",""0005_N0300_K0080_NOCLIQUE""]"
"","","","","","audio-keyboard-response","54","310681","0.0-51.0-0.0-1.0","","null","audio_feedback/right/coin01.mp3","null","","","","","0","3","80","300","[""0043_N0300_K0080_CLIQUE"",""0005_N0300_K0080_NOCLIQUE""]"
"","","","","","canvas-keyboard-response","55","313236","0.0-52.0-0.0-0.0","","2497",""," ","[74,255,46,96,123,12,35,284,43,15,253,207,249,163,289,245,269,203,208,195,84,76,286,287,63,158,91,151,104,177,135,267,85,225,209,145,47,40,88,162,154,170,278,171,73,143,1,124,297,130,78,48,6,200,161,36,215,103,39,175,51,121,169,192,113,116,173,112,236,164,89,181,189,191,190,277,299,211,28,61,4,294,270,13,295,185,7,83,133,69,122,155,221,266,80,216,72,109,193,67,95,29,21,187,14,159,10,263,160,281,298,52,23,128,53,182,283,282,59,100,237,222,31,110,172,148,75,101,168,265,18,217,137,102,2,213,92,17,260,264,205,268,197,62,247,214,220,240,285,166,224,115,254,9,275,131,179,290,33,227,44,206,196,8,291,0,231,20,140,204,280,198,57,108,58,25,238,259,251,38,202,258,111,126,55,60,226,147,199,86,138,248,242,246,79,77,5,66,292,30,296,167,97,261,252,229,49,212,152,149,24,42,141,93,16,210,119,94,194,273,235,234,256,118,87,68,157,11,279,178,54,288,99,105,107,32,106,129,132,144,139,50,127,174,274,3,142,243,90,276,183,134,186,125,218,241,271,228,81,250,272,136,223,257,219,19,41,156,230,201,64,165,180,71,27,146,244,150,56,37,239,98,117,176,45,184,262,26,232,233,34,293,114,70,22,153,188,65,82,120]","arrowleft","","","0","4","70","300","[""0048_N0300_K0070_CLIQUE"",""0091_N0300_K0070_NOCLIQUE""]"
"","","","","","audio-keyboard-response","56","313816","0.0-52.0-0.0-1.0","","null","audio_feedback/shuffles/shuffle01.mp3","null","","","","","0","4","70","300","[""0048_N0300_K0070_CLIQUE"",""0091_N0300_K0070_NOCLIQUE""]"
"","","","","","canvas-keyboard-response","57","317594","0.0-52.1-0.1-0.1","","3722",""," ","[137,111,106,288,237,160,52,14,178,298,194,42,174,181,102,77,209,188,141,88,198,155,299,222,75,202,224,129,0,48,135,292,45,109,295,58,47,40,15,206,69,8,86,297,245,35,273,274,165,175,151,50,91,110,81,226,118,285,125,115,179,107,241,26,101,27,190,238,189,183,12,211,147,89,220,108,98,128,260,20,87,142,281,116,36,90,268,186,100,54,242,256,275,53,10,39,173,259,243,121,195,29,134,264,203,225,120,269,170,201,97,112,146,11,4,214,200,61,103,233,168,219,171,21,84,280,159,216,172,65,138,210,283,148,221,119,213,192,193,34,66,2,166,132,64,286,267,126,74,67,266,289,93,9,161,255,70,177,46,278,80,6,105,150,236,279,247,94,187,167,44,13,143,16,114,185,249,51,154,272,290,5,17,73,293,124,72,158,95,257,263,79,130,55,244,230,85,149,270,83,232,199,32,277,262,284,294,253,49,276,231,56,43,122,182,215,76,218,164,217,235,250,169,127,296,191,133,99,261,22,92,252,33,223,123,254,68,246,240,251,227,197,140,57,205,139,212,78,287,62,96,282,24,3,1,41,71,82,176,163,153,104,156,145,239,136,113,184,18,208,60,157,180,28,131,204,152,207,144,234,59,37,30,7,31,228,265,271,63,258,19,38,229,25,162,117,291,248,23,196]","arrowleft","","","0","4","70","300","[""0048_N0300_K0070_CLIQUE"",""0091_N0300_K0070_NOCLIQUE""]"
"","","","","","audio-keyboard-response","58","318168","0.0-52.1-0.1-1.1","","null","audio_feedback/shuffles/shuffle01.mp3","null","","","","","0","4","70","300","[""0048_N0300_K0070_CLIQUE"",""0091_N0300_K0070_NOCLIQUE""]"
"","","","","","canvas-keyboard-response","59","327379","0.0-52.2-0.2-0.2","","9152",""," ","[269,8,107,172,251,167,286,53,146,240,27,0,262,2,236,170,15,90,205,109,73,36,280,79,20,48,156,255,42,294,223,182,150,113,4,258,121,241,64,151,57,259,234,91,37,44,130,290,257,141,76,25,209,163,168,101,83,173,97,192,21,104,238,129,47,96,142,247,277,213,114,149,203,254,122,261,226,51,98,299,260,147,214,13,174,143,82,187,191,140,133,16,70,196,154,108,281,180,183,1,55,206,111,92,193,176,100,215,85,201,33,175,115,125,38,271,249,46,194,72,56,225,84,202,230,252,74,14,126,120,186,105,135,217,267,207,6,116,188,204,279,166,268,110,210,60,139,78,119,273,298,232,195,106,227,80,197,18,66,9,218,35,12,24,243,289,45,71,26,284,164,165,102,68,169,137,190,270,19,283,10,160,43,118,231,265,136,211,275,153,295,274,184,67,95,93,81,52,179,221,30,158,212,272,250,59,237,39,161,276,58,7,248,256,244,296,229,235,28,159,138,291,216,219,94,292,77,152,181,131,17,199,103,124,246,112,222,86,287,65,31,185,253,127,148,88,117,198,178,40,22,144,87,224,134,297,145,157,239,278,293,264,41,132,50,189,62,69,285,123,228,288,233,75,282,54,49,242,5,266,99,155,200,171,89,34,23,162,61,263,208,3,128,245,63,220,29,32,177,11]","arrowleft","","","0","4","70","300","[""0048_N0300_K0070_CLIQUE"",""0091_N0300_K0070_NOCLIQUE""]"
"","","","","","audio-keyboard-response","60","327939","0.0-52.2-0.2-1.2","","null","audio_feedback/shuffles/shuffle01.mp3","null","","","","","0","4","70","300","[""0048_N0300_K0070_CLIQUE"",""0091_N0300_K0070_NOCLIQUE""]"
"","","","","","canvas-keyboard-response","61","329583","0.0-52.3-0.3-0.3","","1588","","arrowleft","[254,149,232,253,276,288,73,234,129,31,169,116,177,49,211,139,47,16,76,239,179,180,37,290,282,4,131,80,222,81,185,128,258,158,293,157,264,226,202,204,114,285,230,208,261,62,120,51,164,173,298,41,248,142,86,210,241,28,150,193,98,140,34,296,61,205,236,269,186,194,229,272,55,130,108,134,94,83,68,227,287,255,176,46,159,235,215,286,113,122,90,137,161,91,219,217,192,74,297,111,7,19,38,207,5,221,156,75,262,199,257,100,218,279,206,141,183,178,36,243,103,8,106,275,67,93,198,136,299,223,12,42,82,58,2,66,48,196,15,0,14,70,27,78,72,283,18,89,53,225,265,249,143,175,166,127,165,167,213,220,189,39,144,271,29,209,26,238,118,25,291,97,295,201,102,256,244,273,148,191,242,105,23,50,109,123,135,13,214,278,22,188,190,69,168,32,63,138,281,233,52,35,187,56,172,247,200,203,17,145,251,284,95,182,181,59,40,263,121,160,294,119,21,147,126,170,11,77,104,88,30,85,231,125,96,65,24,87,9,92,3,245,237,171,163,124,115,289,268,154,270,260,292,60,10,155,259,6,240,197,151,110,250,57,277,117,195,33,71,84,246,152,43,132,274,112,280,133,64,266,44,174,54,99,162,45,107,79,267,1,184,224,101,216,212,228,20,252,153,146]","arrowleft","","true","0","4","70","300","[""0048_N0300_K0070_CLIQUE"",""0091_N0300_K0070_NOCLIQUE""]"
"","","","","","audio-keyboard-response","62","330009","0.0-52.3-0.3-1.3","","null","audio_feedback/right/coin01.mp3","null","","","","","0","4","70","300","[""0048_N0300_K0070_CLIQUE"",""0091_N0300_K0070_NOCLIQUE""]"
"","","","","","canvas-keyboard-response","63","332558","0.0-53.0-0.0-0.0","","2491",""," ","[260,270,21,276,152,36,254,120,250,114,194,70,134,220,40,222,208,247,45,93,28,153,159,241,136,140,137,213,97,46,149,92,108,50,225,265,167,243,11,64,101,219,71,204,190,184,0,216,255,280,244,202,17,56,58,53,212,96,181,72,274,105,106,100,166,207,48,176,3,10,160,251,125,33,209,84,246,229,122,29,27,257,99,163,104,138,80,115,165,42,285,271,81,182,63,266,156,267,87,8,44,168,110,142,98,62,95,76,88,13,249,6,112,34,183,227,157,9,1,127,102,146,234,230,171,187,23,118,4,278,7,162,261,228,75,66,232,22,147,263,268,283,141,226,224,154,5,126,258,51,20,235,41,196,200,68,16,293,85,245,288,24,192,287,186,173,135,297,169,121,284,49,12,32,117,89,275,124,264,286,215,116,206,185,193,296,161,248,38,18,290,57,191,77,262,109,259,188,199,211,107,39,144,90,233,150,103,198,178,61,231,158,221,269,189,195,197,19,164,79,272,295,54,155,145,179,128,37,177,210,143,217,123,139,60,148,291,277,83,86,242,256,239,218,292,113,175,299,25,273,30,65,201,151,52,298,111,294,55,14,236,237,94,253,132,289,43,170,15,69,281,129,26,131,240,35,91,238,180,82,279,133,74,174,252,2,214,203,172,31,47,119,67,282,78,59,205,130,223,73]","arrowright","","","0","5","70","300","[""0050_N0300_K0070_NOCLIQUE"",""0097_N0300_K0070_CLIQUE""]"
"","","","","","audio-keyboard-response","64","333123","0.0-53.0-0.0-1.0","","null","audio_feedback/shuffles/shuffle01.mp3","null","","","","","0","5","70","300","[""0050_N0300_K0070_NOCLIQUE"",""0097_N0300_K0070_CLIQUE""]"
"","","","","","canvas-keyboard-response","65","336639","0.0-53.1-0.1-0.1","","3459",""," ","[217,197,40,280,24,15,45,183,63,190,277,180,184,194,93,159,134,39,241,291,259,51,189,83,297,7,201,270,206,292,122,28,148,123,245,158,273,78,221,226,295,130,81,91,118,84,49,92,71,3,181,248,76,109,29,114,228,187,287,214,179,170,47,256,157,5,237,110,150,212,38,242,18,14,276,61,140,281,243,16,37,257,137,70,219,43,138,196,149,271,82,216,135,67,289,224,139,286,155,99,253,211,285,218,175,192,13,278,296,22,65,68,66,56,233,75,195,133,173,97,163,33,20,236,57,111,121,120,266,193,0,254,119,9,268,177,11,4,249,77,198,106,80,30,293,161,199,168,272,152,154,25,250,290,115,238,235,213,142,52,274,104,200,252,209,222,220,162,298,128,262,156,188,41,171,35,204,230,246,229,267,90,145,264,89,55,101,69,113,1,294,227,151,6,31,265,72,125,112,126,103,8,176,21,100,36,87,73,191,107,108,164,160,26,244,17,166,178,261,12,88,169,44,19,240,172,185,182,132,146,251,62,225,215,288,263,239,117,255,23,102,95,231,98,54,283,53,186,48,50,136,96,131,144,299,165,275,105,167,143,60,258,260,153,86,46,74,232,202,207,247,59,79,269,116,210,127,85,282,32,223,284,94,10,27,208,34,174,58,129,147,234,64,205,2,42,141,279,124,203]","arrowright","","","0","5","70","300","[""0050_N0300_K0070_NOCLIQUE"",""0097_N0300_K0070_CLIQUE""]"
"","","","","","audio-keyboard-response","66","337197","0.0-53.1-0.1-1.1","","null","audio_feedback/shuffles/shuffle01.mp3","null","","","","","0","5","70","300","[""0050_N0300_K0070_NOCLIQUE"",""0097_N0300_K0070_CLIQUE""]"
"","","","","","canvas-keyboard-response","67","346094","0.0-53.2-0.2-0.2","","8839",""," ","[127,251,89,43,245,244,196,180,215,93,287,281,170,290,255,1,132,62,110,162,229,113,214,190,25,153,98,154,232,33,53,274,165,85,135,99,206,104,18,189,101,143,216,29,239,205,81,169,182,95,175,97,192,34,228,231,76,269,8,209,15,2,16,137,55,241,178,17,289,166,39,84,50,264,94,86,123,125,35,139,41,105,115,140,184,111,10,186,108,60,158,288,254,75,266,198,271,68,117,138,90,46,63,298,26,159,22,54,131,173,219,130,73,59,194,5,20,109,157,273,11,58,52,177,210,77,213,276,164,100,253,223,172,91,133,282,237,188,141,80,149,74,202,279,88,187,83,121,246,283,56,129,183,114,295,119,262,249,9,45,191,258,13,152,240,208,277,106,220,181,48,3,128,0,197,24,103,78,124,151,161,61,286,212,263,193,156,126,72,226,204,23,171,176,57,42,284,242,14,37,36,148,199,211,257,142,292,66,285,256,82,145,294,40,230,247,167,146,71,96,265,136,28,70,31,260,155,236,87,222,6,235,270,267,21,293,65,217,122,51,259,27,224,12,163,44,280,144,120,179,203,19,147,278,201,7,291,233,185,160,200,49,268,272,168,150,238,47,243,248,221,227,64,195,79,275,102,32,261,252,234,38,67,92,69,207,174,30,4,107,112,116,134,296,218,250,299,225,118,297]","arrowright","","","0","5","70","300","[""0050_N0300_K0070_NOCLIQUE"",""0097_N0300_K0070_CLIQUE""]"
"","","","","","audio-keyboard-response","68","346670","0.0-53.2-0.2-1.2","","null","audio_feedback/shuffles/shuffle01.mp3","null","","","","","0","5","70","300","[""0050_N0300_K0070_NOCLIQUE"",""0097_N0300_K0070_CLIQUE""]"
"","","","","","canvas-keyboard-response","69","351550","0.0-53.3-0.3-0.3","","4822",""," ","[100,90,221,282,165,94,16,51,47,247,299,105,244,195,255,141,136,205,116,288,184,3,164,64,260,102,17,14,69,220,89,292,112,118,76,151,6,248,4,117,256,97,52,219,212,55,273,267,96,266,167,120,148,145,245,23,92,234,7,158,259,147,206,290,271,249,204,36,169,216,42,81,19,60,8,2,53,54,235,242,289,122,241,298,227,192,26,211,1,62,262,59,38,88,272,138,261,15,233,35,58,188,20,275,86,297,277,159,18,176,22,218,13,268,125,46,130,258,209,166,187,214,226,108,237,157,87,156,269,276,162,254,124,250,215,103,180,202,190,286,264,0,5,229,83,194,129,121,236,43,126,33,197,174,224,168,203,199,225,41,106,137,251,127,161,150,181,281,201,257,173,91,63,287,25,155,115,153,278,207,114,200,44,37,93,191,263,9,61,296,39,284,144,170,27,48,132,294,232,135,279,230,78,270,283,140,65,185,183,79,71,179,111,193,66,101,222,198,80,252,84,274,285,110,265,152,49,217,142,70,139,12,29,31,67,295,75,240,175,246,146,72,196,30,107,68,186,154,56,77,171,189,28,128,293,10,123,182,57,231,223,11,177,95,208,24,21,119,50,85,291,133,253,238,178,104,143,98,163,32,73,99,131,243,210,34,134,109,160,172,113,239,228,40,213,149,82,74,280,45]","arrowright","","","0","5","70","300","[""0050_N0300_K0070_NOCLIQUE"",""0097_N0300_K0070_CLIQUE""]"
"","","","","","audio-keyboard-response","70","352110","0.0-53.3-0.3-1.3","","null","audio_feedback/shuffles/shuffle01.mp3","null","","","","","0","5","70","300","[""0050_N0300_K0070_NOCLIQUE"",""0097_N0300_K0070_CLIQUE""]"
"","","","","","canvas-keyboard-response","71","354439","0.0-53.4-0.4-0.4","","2272","","arrowright","[166,211,155,107,123,197,161,190,106,148,58,114,241,267,246,142,271,46,135,104,16,216,247,196,62,83,146,27,255,131,36,259,143,184,80,137,145,33,71,127,120,245,43,126,150,257,157,94,187,13,214,283,160,174,60,248,293,69,117,261,7,183,21,167,180,32,5,66,231,168,53,23,19,225,118,34,138,76,292,92,169,227,93,176,253,74,10,25,228,14,119,153,164,232,244,199,0,275,2,202,229,132,51,129,298,254,217,274,287,291,84,198,265,55,100,182,52,49,8,110,17,111,218,103,194,181,64,234,38,264,98,29,233,173,68,154,262,276,31,178,41,177,223,105,6,72,219,191,226,57,136,297,222,299,282,1,296,97,70,61,102,11,28,144,141,130,215,188,124,204,243,170,3,151,63,156,40,159,95,50,116,220,54,273,158,24,139,87,179,78,162,175,240,172,89,101,235,91,185,59,270,128,48,90,242,268,258,250,88,22,230,213,286,269,99,140,35,65,86,193,133,73,121,203,201,239,18,209,47,15,112,67,134,221,249,163,256,278,237,266,39,236,224,186,206,289,30,252,251,277,290,192,171,295,12,45,208,4,285,96,9,44,82,125,272,149,284,79,200,165,288,238,75,279,207,113,56,77,147,195,294,210,212,85,20,115,26,152,37,81,205,280,109,260,281,263,122,189,42,108]","arrowright","","true","0","5","70","300","[""0050_N0300_K0070_NOCLIQUE"",""0097_N0300_K0070_CLIQUE""]"
"","","","","","audio-keyboard-response","72","354862","0.0-53.4-0.4-1.4","","null","audio_feedback/right/coin01.mp3","null","","","","","0","5","70","300","[""0050_N0300_K0070_NOCLIQUE"",""0097_N0300_K0070_CLIQUE""]"
"","","","","","canvas-keyboard-response","73","362253","0.0-54.0-0.0-0.0","","7335",""," ","[222,225,158,203,94,170,275,245,147,67,200,184,52,148,232,243,133,120,191,127,100,118,102,192,0,246,89,42,265,242,296,299,208,174,214,286,75,12,74,288,162,262,116,143,141,76,39,68,248,268,182,254,107,138,190,26,238,37,253,280,80,276,155,233,114,81,198,104,3,282,25,219,85,167,59,289,247,187,121,186,2,294,180,44,38,55,14,62,236,202,295,66,226,267,279,252,153,235,293,101,193,165,168,177,70,8,111,108,50,16,7,132,11,15,71,175,157,188,145,274,290,215,84,164,9,19,131,159,281,72,95,194,151,196,49,216,46,270,278,10,161,48,212,32,181,146,78,199,163,171,77,142,45,65,51,221,1,103,176,93,47,35,30,227,210,96,154,82,18,277,228,34,91,64,241,264,160,139,92,223,27,230,234,57,259,117,129,283,5,207,87,291,130,124,220,128,260,218,17,269,106,88,109,285,33,86,110,28,237,209,273,105,90,126,43,31,179,206,204,255,135,287,36,79,217,6,149,137,60,195,98,22,150,178,284,272,13,136,292,61,298,156,240,83,134,69,229,244,197,53,4,119,23,140,123,256,201,249,213,41,211,271,58,20,172,297,115,112,21,169,239,166,261,122,189,113,205,263,73,125,251,54,257,258,144,40,266,24,99,231,152,183,173,63,29,97,185,224,250,56]","arrowleft","","","0","6","65","300","[""0086_N0300_K0065_CLIQUE"",""0014_N0300_K0065_NOCLIQUE""]"
"","","","","","audio-keyboard-response","74","362819","0.0-54.0-0.0-1.0","","null","audio_feedback/shuffles/shuffle01.mp3","null","","","","","0","6","65","300","[""0086_N0300_K0065_CLIQUE"",""0014_N0300_K0065_NOCLIQUE""]"
"","","","","","canvas-keyboard-response","75","369159","0.0-54.1-0.1-0.1","","6281",""," ","[98,91,183,295,76,190,235,260,81,57,218,29,268,137,223,202,19,78,275,13,149,161,281,53,60,80,63,136,298,113,187,153,237,248,5,206,121,169,115,25,231,186,234,162,147,130,168,240,44,192,222,15,270,165,8,156,279,84,133,176,141,39,70,101,119,227,85,152,256,267,140,9,180,49,37,259,120,166,274,123,167,194,56,257,143,83,196,50,24,86,68,158,12,177,4,253,105,155,142,128,211,282,226,285,284,11,239,264,73,263,299,154,170,22,23,286,54,241,262,32,164,109,34,40,296,41,74,225,139,221,72,93,247,112,224,288,71,58,212,172,43,203,27,7,216,273,258,228,0,114,289,107,30,65,159,144,90,220,2,232,199,201,97,245,195,102,67,62,26,6,148,52,77,124,157,3,271,18,193,110,94,182,250,35,117,92,51,88,31,59,191,229,66,280,82,106,287,69,276,36,145,215,75,292,210,129,163,219,61,178,265,151,184,283,42,118,254,217,278,111,236,38,294,251,48,244,293,242,175,291,243,126,46,207,272,55,64,252,179,209,249,160,79,173,10,95,104,174,132,185,246,96,213,290,131,138,17,205,16,200,277,233,238,197,266,135,269,204,230,21,14,100,87,89,188,99,150,103,125,134,255,122,171,108,146,214,198,297,47,28,1,116,45,181,33,208,20,261,127,189]","arrowleft","","","0","6","65","300","[""0086_N0300_K0065_CLIQUE"",""0014_N0300_K0065_NOCLIQUE""]"
"","","","","","audio-keyboard-response","76","369732","0.0-54.1-0.1-1.1","","null","audio_feedback/shuffles/shuffle01.mp3","null","","","","","0","6","65","300","[""0086_N0300_K0065_CLIQUE"",""0014_N0300_K0065_NOCLIQUE""]"
"","","","","","canvas-keyboard-response","77","381332","0.0-54.2-0.2-0.2","","11542",""," ","[121,58,18,19,249,189,120,138,269,7,179,296,183,184,5,236,70,227,82,272,32,234,139,52,202,256,290,163,108,243,203,208,263,172,69,157,171,188,25,289,135,225,281,254,151,144,160,226,143,261,229,177,161,298,192,95,148,287,134,168,128,51,244,176,63,42,293,66,219,158,276,90,85,233,267,103,29,3,53,102,100,153,280,16,84,56,97,285,191,284,187,292,283,118,264,286,204,265,246,131,248,165,228,217,48,20,46,27,91,77,178,87,156,200,111,170,159,28,31,74,127,277,205,47,222,231,142,210,60,44,106,119,190,252,175,232,1,24,221,251,109,126,11,101,80,237,214,2,113,14,218,145,268,93,141,238,45,223,81,67,299,98,196,112,279,86,230,49,13,247,0,122,199,94,133,55,59,37,206,41,39,79,124,198,68,36,137,242,220,150,89,181,278,152,173,274,30,136,76,140,15,216,201,116,185,104,10,239,54,212,273,262,271,65,73,146,147,209,43,9,266,40,129,123,297,130,288,71,83,125,64,8,166,17,92,270,105,164,260,72,114,259,235,282,107,211,6,167,117,26,295,275,194,62,162,75,174,155,110,215,257,186,195,294,207,154,78,115,180,255,22,169,132,21,240,34,197,50,182,38,88,57,33,253,224,258,250,193,241,61,4,149,23,96,291,35,12,245,99,213]","arrowleft","","","0","6","65","300","[""0086_N0300_K0065_CLIQUE"",""0014_N0300_K0065_NOCLIQUE""]"
"","","","","","audio-keyboard-response","78","381860","0.0-54.2-0.2-1.2","","null","audio_feedback/shuffles/shuffle01.mp3","null","","","","","0","6","65","300","[""0086_N0300_K0065_CLIQUE"",""0014_N0300_K0065_NOCLIQUE""]"
"","","","","","canvas-keyboard-response","79","387210","0.0-54.3-0.3-0.3","","5294",""," ","[103,60,104,65,206,172,283,107,178,112,280,123,299,82,118,258,61,176,106,121,231,128,252,295,40,33,282,100,205,36,254,261,19,298,198,44,214,1,270,199,70,288,101,190,238,195,88,157,286,120,29,16,79,2,192,152,116,85,155,297,189,28,291,99,74,163,53,4,235,243,215,17,193,220,289,130,257,165,188,125,275,25,166,67,147,292,184,131,48,56,102,180,32,98,167,89,145,9,97,122,94,69,156,113,173,142,90,31,255,39,229,287,72,6,63,221,222,146,8,41,57,34,259,185,246,10,161,96,18,140,247,277,253,186,177,119,168,268,213,115,201,159,108,84,46,144,126,73,64,81,274,134,264,150,23,124,143,249,127,114,0,136,269,164,83,174,80,149,132,55,87,135,250,237,240,273,267,86,77,218,3,197,196,266,271,234,47,76,160,293,260,38,30,92,137,294,191,21,93,207,232,208,279,43,20,153,226,242,45,284,244,91,223,200,105,251,54,138,26,278,59,110,52,148,139,58,187,265,50,224,129,276,35,228,75,210,175,24,256,230,78,154,117,13,183,262,11,68,111,296,133,5,248,227,171,49,203,62,179,158,95,109,37,263,141,219,51,202,7,22,14,212,225,211,272,290,236,170,12,245,42,209,217,181,216,285,239,204,15,27,194,281,169,241,151,66,71,233,162,182]","arrowleft","","","0","6","65","300","[""0086_N0300_K0065_CLIQUE"",""0014_N0300_K0065_NOCLIQUE""]"
"","","","","","audio-keyboard-response","80","387770","0.0-54.3-0.3-1.3","","null","audio_feedback/shuffles/shuffle01.mp3","null","","","","","0","6","65","300","[""0086_N0300_K0065_CLIQUE"",""0014_N0300_K0065_NOCLIQUE""]"
"","","","","","canvas-keyboard-response","81","399353","0.0-54.4-0.4-0.4","","11524",""," ","[261,125,92,143,222,132,77,192,157,141,32,208,27,267,69,190,31,11,171,146,215,205,80,55,118,218,249,84,24,113,1,183,226,298,119,147,187,131,211,23,46,54,198,62,79,37,85,144,127,255,48,201,152,150,58,197,96,28,289,14,61,15,166,207,106,49,280,130,193,170,217,98,234,268,151,231,163,162,142,45,35,38,47,204,105,188,75,254,186,283,18,238,133,5,199,290,78,274,99,235,117,59,245,265,230,241,138,121,16,236,3,213,266,73,53,136,286,179,219,82,81,20,242,258,64,291,203,252,111,275,246,184,155,165,42,263,51,185,177,176,22,124,251,182,223,172,243,21,91,135,25,202,239,97,158,30,2,95,153,100,259,224,288,227,52,108,56,169,271,294,93,229,240,270,292,17,160,174,282,279,250,175,181,272,228,168,116,262,200,44,206,0,140,195,237,149,104,256,194,102,232,299,257,287,89,154,278,57,173,221,88,212,293,276,164,110,273,210,13,76,264,126,74,161,41,120,12,67,297,109,296,277,83,65,94,39,71,137,115,248,86,87,148,107,178,216,29,281,191,233,269,7,244,72,34,19,220,167,260,112,114,36,68,285,63,60,43,159,50,103,129,33,90,156,122,26,8,284,10,66,214,6,209,128,180,101,139,253,196,295,70,4,189,9,247,225,40,145,123,134]","arrowleft","","","0","6","65","300","[""0086_N0300_K0065_CLIQUE"",""0014_N0300_K0065_NOCLIQUE""]"
"","","","","","audio-keyboard-response","82","399880","0.0-54.4-0.4-1.4","","null","audio_feedback/shuffles/shuffle01.mp3","null","","","","","0","6","65","300","[""0086_N0300_K0065_CLIQUE"",""0014_N0300_K0065_NOCLIQUE""]"
"","","","","","canvas-keyboard-response","83","401250","0.0-54.5-0.5-0.5","","1313","","arrowleft","[195,274,193,27,268,270,62,197,202,166,217,9,93,52,291,115,205,218,243,281,26,17,37,34,59,216,99,100,221,58,129,298,229,250,181,79,146,86,80,89,296,14,155,264,200,236,192,28,122,57,134,196,172,112,29,30,294,11,238,265,98,194,65,280,25,83,103,78,22,70,176,164,5,209,88,67,118,169,64,40,97,231,133,136,226,55,139,170,203,43,47,199,204,285,290,249,41,287,50,177,142,33,74,251,15,163,171,175,295,45,201,101,124,255,126,214,227,248,258,188,234,237,187,3,161,120,135,31,223,259,53,275,151,256,261,94,19,206,207,138,165,148,111,253,178,210,244,90,61,189,119,158,1,266,4,154,123,104,212,13,12,38,262,109,107,160,211,44,110,242,132,173,230,21,2,147,51,143,36,167,84,190,228,299,183,105,102,269,168,179,73,23,85,174,81,276,222,185,225,267,20,224,186,91,272,282,220,150,56,239,121,156,114,297,92,252,293,46,48,32,10,247,271,191,72,245,60,96,254,145,113,286,277,116,8,283,0,279,144,75,180,184,82,284,117,39,162,288,76,153,260,213,240,18,77,233,182,141,263,95,130,198,140,215,66,127,157,131,71,54,152,137,7,63,149,24,69,42,68,128,273,87,219,6,289,125,235,292,49,108,208,278,246,257,106,16,232,35,159,241]","arrowleft","","true","0","6","65","300","[""0086_N0300_K0065_CLIQUE"",""0014_N0300_K0065_NOCLIQUE""]"
"","","","","","audio-keyboard-response","84","401672","0.0-54.5-0.5-1.5","","null","audio_feedback/right/coin01.mp3","null","","","","","0","6","65","300","[""0086_N0300_K0065_CLIQUE"",""0014_N0300_K0065_NOCLIQUE""]"
"","","","","","canvas-keyboard-response","85","407835","0.0-55.0-0.0-0.0","","6107",""," ","[14,116,224,226,70,113,36,107,156,86,270,131,166,175,154,33,150,279,186,228,195,45,4,110,262,287,24,12,246,147,144,56,25,223,214,196,157,29,7,75,268,229,231,64,61,271,283,85,95,20,51,243,16,69,295,169,275,188,111,102,178,3,193,212,6,200,83,215,34,101,49,40,168,87,221,9,286,225,244,201,177,11,172,57,96,281,38,124,123,17,233,76,137,119,125,289,105,264,216,98,54,117,21,280,79,151,235,189,100,94,53,138,251,192,52,227,259,41,293,170,26,148,48,252,112,55,299,263,253,73,162,141,44,276,194,203,145,274,187,121,240,285,91,183,239,211,265,90,245,18,161,160,219,81,158,132,106,241,269,249,210,258,152,254,78,118,217,127,208,198,182,32,134,298,236,155,204,108,133,180,19,139,0,58,88,109,291,284,288,260,163,266,159,230,135,15,165,257,5,256,255,207,206,190,297,218,199,290,179,23,104,77,248,277,171,62,167,82,39,261,28,278,146,213,232,31,13,65,59,273,174,247,120,153,42,84,80,128,68,250,205,143,267,149,122,242,191,164,184,10,63,35,50,1,222,30,220,72,140,103,282,22,43,197,234,238,136,296,60,67,129,272,46,185,130,209,89,71,99,142,8,66,237,126,202,114,176,115,173,292,2,93,74,92,27,97,294,47,181,37]","arrowleft","","","0","7","65","300","[""0002_N0300_K0065_CLIQUE"",""0079_N0300_K0065_NOCLIQUE""]"
"","","","","","audio-keyboard-response","86","408413","0.0-55.0-0.0-1.0","","null","audio_feedback/shuffles/shuffle01.mp3","null","","","","","0","7","65","300","[""0002_N0300_K0065_CLIQUE"",""0079_N0300_K0065_NOCLIQUE""]"
"","","","","","canvas-keyboard-response","87","428295","0.0-55.1-0.1-0.1","","19823",""," ","[147,283,28,255,97,59,41,272,179,187,241,64,176,167,38,153,215,55,103,208,130,239,299,29,253,19,237,54,189,178,209,170,193,6,116,95,88,3,30,269,53,192,252,106,258,243,50,67,100,26,133,7,224,211,49,9,78,140,65,278,75,282,0,168,213,240,281,83,268,12,99,77,61,87,230,138,155,185,74,287,154,137,94,181,182,108,142,227,92,46,90,204,96,265,141,273,4,24,260,127,235,62,188,298,217,15,184,165,126,110,35,172,236,20,5,152,271,2,37,25,80,43,135,143,13,8,131,33,166,210,251,275,207,186,228,276,295,254,259,23,159,72,163,48,104,146,279,231,261,31,225,190,73,1,18,112,183,214,149,291,91,223,21,233,157,267,280,296,76,246,105,17,93,134,292,191,129,297,121,42,158,125,27,101,221,198,71,82,245,109,102,34,161,117,257,249,247,45,266,120,118,81,114,203,238,262,222,128,136,206,63,10,70,79,277,248,244,220,148,47,264,294,195,216,119,162,69,171,123,132,234,14,286,199,293,98,68,284,86,151,44,52,164,218,173,16,226,40,111,290,219,144,124,22,36,89,156,194,145,229,177,66,150,205,58,180,160,202,107,212,288,285,263,232,57,56,85,32,200,169,250,201,139,242,174,113,122,60,256,274,270,196,39,84,51,289,175,115,197,11]","arrowleft","","","0","7","65","300","[""0002_N0300_K0065_CLIQUE"",""0079_N0300_K0065_NOCLIQUE""]"
"","","","","","audio-keyboard-response","88","429148","0.0-55.1-0.1-1.1","","null","audio_feedback/shuffles/shuffle01.mp3","null","","","","","0","7","65","300","[""0002_N0300_K0065_CLIQUE"",""0079_N0300_K0065_NOCLIQUE""]"
"","","","","","canvas-keyboard-response","89","439285","0.0-55.2-0.2-0.2","","10081",""," ","[73,201,25,95,154,260,166,289,256,174,204,45,152,51,46,220,286,134,120,160,266,2,176,298,245,115,227,180,80,69,110,66,16,71,225,157,237,161,196,100,92,105,81,272,118,156,126,59,249,240,279,222,101,164,158,153,162,143,39,54,215,229,135,8,168,267,83,22,111,206,28,235,167,280,99,296,76,264,34,243,252,75,151,221,33,149,36,232,82,37,208,23,172,238,63,146,24,102,213,141,254,12,17,271,171,183,31,253,132,136,113,283,21,96,195,43,41,29,185,270,285,11,78,117,19,181,224,175,74,155,257,277,259,159,203,199,13,231,122,187,7,112,77,193,65,114,67,299,129,79,139,68,265,44,234,55,295,148,293,91,18,147,282,3,248,53,89,244,124,61,292,107,98,133,281,40,88,86,211,188,64,130,287,170,32,121,30,233,56,137,104,85,26,123,6,269,278,47,194,210,35,288,239,70,142,207,230,273,4,27,127,297,263,290,197,214,103,108,57,42,217,284,140,106,241,191,84,93,276,15,275,258,189,218,49,177,198,38,116,184,50,173,250,216,58,128,212,219,205,169,163,291,145,255,131,228,1,165,186,190,87,97,182,223,192,48,226,251,262,150,209,14,138,109,9,20,242,236,62,119,247,294,202,60,261,144,72,125,179,200,5,10,90,268,0,94,246,178,274,52]","arrowleft","","","0","7","65","300","[""0002_N0300_K0065_CLIQUE"",""0079_N0300_K0065_NOCLIQUE""]"
"","","","","","audio-keyboard-response","90","439824","0.0-55.2-0.2-1.2","","null","audio_feedback/shuffles/shuffle01.mp3","null","","","","","0","7","65","300","[""0002_N0300_K0065_CLIQUE"",""0079_N0300_K0065_NOCLIQUE""]"
"","","","","","canvas-keyboard-response","91","451434","0.0-55.3-0.3-0.3","","11553","","arrowleft","[66,19,241,200,281,111,265,55,144,162,266,231,278,21,299,18,118,131,110,115,1,230,138,20,271,228,24,101,235,91,288,165,84,257,130,81,249,106,204,236,92,64,213,74,250,134,38,159,268,73,256,51,233,60,142,43,191,45,59,287,13,245,262,112,2,16,212,15,183,179,95,83,145,207,276,102,219,263,246,173,251,69,254,177,176,150,17,258,35,0,188,158,11,289,296,270,285,225,40,209,252,80,147,192,292,238,146,161,279,198,139,195,205,100,203,46,57,103,255,222,88,232,190,160,28,174,119,129,291,153,113,93,22,14,143,157,61,48,172,168,114,269,39,240,71,108,109,167,223,186,185,297,193,272,284,136,206,67,184,86,105,214,77,32,122,218,104,247,164,75,194,182,140,58,9,90,41,208,53,76,196,37,242,30,34,152,132,201,234,123,189,52,4,227,187,202,148,94,44,298,274,243,280,211,155,253,197,117,87,170,163,294,6,221,135,85,248,8,275,25,5,273,23,65,295,171,226,127,68,3,239,128,282,62,33,181,229,237,175,224,216,49,12,7,261,277,56,149,283,141,99,96,72,26,89,133,137,63,82,98,244,199,217,107,124,260,151,29,42,78,220,121,264,290,178,210,79,169,47,215,54,293,259,126,156,180,116,120,166,97,31,154,286,10,50,27,70,125,36,267]","arrowleft","","true","0","7","65","300","[""0002_N0300_K0065_CLIQUE"",""0079_N0300_K0065_NOCLIQUE""]"
"","","","","","audio-keyboard-response","92","451823","0.0-55.3-0.3-1.3","","null","audio_feedback/right/coin01.mp3","null","","","","","0","7","65","300","[""0002_N0300_K0065_CLIQUE"",""0079_N0300_K0065_NOCLIQUE""]"
"","","","","","canvas-keyboard-response","93","472879","0.0-56.0-0.0-0.0","","20999",""," ","[200,50,13,113,161,15,60,225,72,223,268,279,167,133,77,150,111,250,286,122,135,213,88,298,172,58,76,159,287,51,69,33,114,281,154,269,5,132,115,65,70,14,280,240,105,48,87,243,55,12,202,109,116,177,123,94,199,221,31,257,27,236,79,255,282,49,162,228,215,103,143,272,26,227,104,248,44,249,36,245,195,216,259,258,124,83,39,285,295,54,164,155,130,10,237,220,145,93,265,66,1,194,188,59,175,152,4,230,204,37,125,73,0,141,297,81,19,179,277,184,256,192,173,276,128,61,232,270,189,98,34,224,68,144,53,165,63,20,16,86,148,23,157,254,78,176,75,180,214,208,262,131,253,80,29,56,106,252,84,264,8,129,126,185,7,71,137,206,57,291,82,178,30,38,90,284,209,42,168,211,45,163,18,170,136,24,193,263,238,278,118,283,231,100,242,218,296,207,246,273,299,226,181,182,239,247,171,183,146,153,85,21,201,121,229,203,196,205,156,222,210,149,151,95,9,198,158,260,294,74,101,99,97,187,275,28,266,174,17,290,110,119,233,107,35,117,41,293,169,186,92,166,25,40,140,212,271,288,47,241,52,219,112,274,142,11,261,96,289,234,139,120,267,160,43,235,138,190,217,127,22,3,134,197,2,102,292,244,91,46,67,147,89,108,251,62,64,32,6,191]","arrowleft","","","0","8","60","300","[""0022_N0300_K0060_CLIQUE"",""0046_N0300_K0060_NOCLIQUE""]"
"","","","","","audio-keyboard-response","94","473769","0.0-56.0-0.0-1.0","","null","audio_feedback/shuffles/shuffle01.mp3","null","","","","","0","8","60","300","[""0022_N0300_K0060_CLIQUE"",""0046_N0300_K0060_NOCLIQUE""]"
"","","","","","canvas-keyboard-response","95","495928","0.0-56.1-0.1-0.1","","22102",""," ","[54,223,131,218,155,202,56,168,221,4,20,120,291,90,137,192,167,174,40,59,49,258,105,119,292,287,227,211,153,9,75,177,71,25,143,237,128,106,17,98,91,32,132,74,93,108,72,8,110,278,39,19,189,100,270,172,69,297,293,77,161,269,76,2,151,113,116,141,265,230,88,259,236,44,251,68,23,262,289,29,96,114,215,249,70,65,274,209,24,22,267,224,63,235,250,133,47,164,260,228,92,142,126,1,271,48,45,254,154,185,282,229,233,204,52,3,203,81,248,206,207,5,34,101,79,190,125,242,299,253,66,103,124,188,288,183,158,266,123,10,57,279,21,149,85,200,107,286,239,195,186,199,243,205,159,62,115,208,201,187,55,165,214,170,234,41,27,226,181,225,102,175,216,255,82,193,28,150,245,252,171,157,61,37,179,58,280,256,273,191,36,11,145,118,263,6,261,130,140,232,219,15,241,197,35,64,43,268,38,84,42,295,152,284,176,122,264,144,213,112,135,138,247,86,94,33,73,163,134,182,272,162,160,89,194,231,129,173,146,51,104,127,220,50,222,80,257,277,26,166,298,246,78,217,111,97,136,87,14,156,60,198,99,13,67,109,275,121,283,238,285,281,240,196,296,212,210,147,169,294,0,31,7,290,148,95,276,30,244,12,18,83,46,16,178,139,117,184,180,53]","arrowleft","","","0","8","60","300","[""0022_N0300_K0060_CLIQUE"",""0046_N0300_K0060_NOCLIQUE""]"
"","","","","","audio-keyboard-response","96","496817","0.0-56.1-0.1-1.1","","null","audio_feedback/shuffles/shuffle01.mp3","null","","","","","0","8","60","300","[""0022_N0300_K0060_CLIQUE"",""0046_N0300_K0060_NOCLIQUE""]"
"","","","","","canvas-keyboard-response","97","516860","0.0-56.2-0.2-0.2","","19985",""," ","[21,97,262,145,40,264,200,63,35,106,175,82,22,226,87,211,18,61,42,107,273,258,189,225,254,227,45,232,3,174,88,231,51,294,164,250,172,95,298,86,15,289,278,99,123,125,144,83,54,7,283,64,78,215,235,163,23,6,195,203,213,162,158,279,60,17,246,94,110,236,41,36,52,184,238,73,243,62,139,277,131,202,167,188,234,128,154,187,37,81,179,92,137,29,155,261,143,67,242,208,173,190,149,33,244,266,121,281,24,170,8,156,119,197,58,217,112,207,198,20,142,65,77,157,210,85,138,114,116,130,53,153,105,241,27,230,267,38,271,288,72,109,299,206,259,186,253,296,205,270,209,229,79,180,0,55,199,293,100,177,75,240,151,93,134,192,113,274,98,47,13,276,297,148,159,291,44,140,50,127,39,166,193,108,248,4,57,284,68,185,43,219,257,201,16,282,103,34,120,46,132,292,165,239,237,178,76,233,115,133,96,11,59,152,161,124,269,285,48,228,10,126,141,9,136,220,263,135,256,101,71,25,295,122,146,260,84,80,272,204,168,222,74,194,28,290,265,196,66,268,19,104,12,102,32,169,90,247,147,252,182,212,129,255,31,26,221,70,280,30,249,91,69,160,176,245,111,150,286,14,49,181,214,216,287,224,117,275,89,218,1,223,2,171,5,183,56,191,251,118]","arrowleft","","","0","8","60","300","[""0022_N0300_K0060_CLIQUE"",""0046_N0300_K0060_NOCLIQUE""]"
"","","","","","audio-keyboard-response","98","517714","0.0-56.2-0.2-1.2","","null","audio_feedback/shuffles/shuffle01.mp3","null","","","","","0","8","60","300","[""0022_N0300_K0060_CLIQUE"",""0046_N0300_K0060_NOCLIQUE""]"
"","","","","","canvas-keyboard-response","99","524543","0.0-56.3-0.3-0.3","","6772",""," ","[222,224,220,71,157,83,206,166,95,139,66,242,77,50,259,72,198,107,21,267,248,153,38,288,111,35,286,62,253,271,177,141,163,112,74,210,240,54,287,161,215,227,36,46,59,0,209,260,178,290,104,169,7,247,58,295,193,173,63,108,143,262,230,297,115,203,113,293,78,48,200,52,212,265,229,30,151,132,176,96,188,250,285,60,264,223,79,216,217,277,10,147,142,202,106,61,118,90,27,81,197,168,94,244,88,17,239,6,124,20,8,137,119,12,140,68,225,136,152,182,273,11,191,172,194,99,76,82,201,121,91,26,98,192,51,184,283,294,65,149,155,55,45,53,251,126,146,43,272,252,133,40,69,15,228,159,238,258,84,39,5,181,196,138,189,213,243,299,276,13,255,165,279,49,97,174,280,3,145,171,199,144,116,164,292,114,2,127,1,14,64,256,170,274,122,86,268,241,23,32,162,270,73,42,221,236,18,195,75,179,214,28,92,33,37,41,254,266,218,158,231,129,109,56,291,175,278,204,246,110,47,296,156,105,93,135,19,67,185,180,100,120,150,211,25,130,269,233,128,186,235,44,282,117,245,205,9,57,134,187,160,148,234,249,34,125,102,154,31,70,24,263,123,257,4,80,16,22,183,85,190,261,275,237,101,208,289,232,219,103,87,281,167,207,284,89,298,29,131,226]","arrowleft","","","0","8","60","300","[""0022_N0300_K0060_CLIQUE"",""0046_N0300_K0060_NOCLIQUE""]"
"","","","","","audio-keyboard-response","100","525116","0.0-56.3-0.3-1.3","","null","audio_feedback/shuffles/shuffle01.mp3","null","","","","","0","8","60","300","[""0022_N0300_K0060_CLIQUE"",""0046_N0300_K0060_NOCLIQUE""]"
"","","","","","canvas-keyboard-response","101","528244","0.0-56.4-0.4-0.4","","3070","","arrowleft","[75,47,224,166,66,43,16,70,20,104,11,52,45,57,141,178,279,202,272,299,281,115,50,262,259,292,185,103,60,30,190,294,261,184,24,121,236,118,266,125,172,148,231,95,2,19,55,14,254,252,229,167,250,27,110,69,15,163,195,130,249,58,44,135,297,12,258,273,153,264,82,286,232,152,275,204,37,101,188,265,226,164,155,243,287,196,256,293,87,123,240,186,179,210,151,205,203,219,193,157,93,111,168,18,144,89,53,28,72,84,128,274,59,248,71,79,189,170,174,244,3,107,194,158,116,98,113,207,233,62,208,237,67,23,199,108,85,92,100,182,32,228,80,215,13,39,54,124,94,298,91,241,212,213,143,245,102,133,177,78,282,284,271,81,138,159,253,160,90,68,120,288,225,61,31,214,269,285,25,223,260,136,276,65,4,222,139,140,161,289,112,295,156,146,51,114,117,270,142,29,106,132,86,216,291,150,280,99,247,181,277,227,8,119,180,83,187,238,251,35,9,126,206,176,242,5,64,278,122,192,7,127,137,73,268,235,239,34,149,33,283,77,201,36,234,17,246,49,96,109,41,296,134,26,220,154,21,197,221,42,22,255,1,38,165,218,10,48,267,162,145,198,175,131,56,105,0,183,290,169,46,191,209,147,211,40,6,200,97,76,74,263,171,129,257,217,63,230,173,88]","arrowleft","","true","0","8","60","300","[""0022_N0300_K0060_CLIQUE"",""0046_N0300_K0060_NOCLIQUE""]"
"","","","","","audio-keyboard-response","102","528679","0.0-56.4-0.4-1.4","","null","audio_feedback/right/coin01.mp3","null","","","","","0","8","60","300","[""0022_N0300_K0060_CLIQUE"",""0046_N0300_K0060_NOCLIQUE""]"
"","","","","","canvas-keyboard-response","103","549756","0.0-57.0-0.0-0.0","","21018",""," ","[36,293,227,278,237,138,132,110,180,48,257,182,133,289,148,268,12,279,87,126,255,264,195,91,223,248,120,38,260,9,35,77,174,295,44,109,256,94,189,70,215,202,168,63,159,74,262,219,56,194,37,128,176,192,83,55,287,221,199,161,64,157,124,6,151,172,23,112,266,163,98,32,28,144,252,239,101,19,51,254,169,129,21,41,26,178,147,113,131,67,258,216,111,69,186,134,275,10,288,165,249,198,121,265,218,93,263,16,187,33,285,229,96,0,122,224,42,162,45,105,190,200,284,4,261,17,143,155,54,193,233,116,175,137,30,90,217,11,226,201,181,281,119,117,270,290,47,185,153,242,212,43,73,247,225,80,71,31,52,228,78,286,136,234,50,58,76,211,259,184,208,7,99,204,145,34,231,213,14,188,100,139,276,179,271,205,135,81,62,123,60,299,196,72,267,53,66,24,141,75,20,3,183,25,154,39,220,142,89,108,15,104,156,210,164,130,214,291,140,102,272,65,57,298,125,40,197,244,206,85,5,253,59,269,88,84,241,158,149,250,222,280,232,18,27,92,207,245,277,106,61,114,115,79,2,251,68,283,49,82,191,29,246,173,238,86,160,152,292,171,236,297,103,166,127,95,97,235,46,1,167,243,107,296,209,273,282,230,146,118,203,170,8,274,294,22,240,177,13,150]","arrowleft","","","0","9","60","300","[""0026_N0300_K0060_CLIQUE"",""0044_N0300_K0060_NOCLIQUE""]"
"","","","","","audio-keyboard-response","104","550637","0.0-57.0-0.0-1.0","","null","audio_feedback/shuffles/shuffle01.mp3","null","","","","","0","9","60","300","[""0026_N0300_K0060_CLIQUE"",""0044_N0300_K0060_NOCLIQUE""]"
"","","","","","canvas-keyboard-response","105","567449","0.0-57.1-0.1-0.1","","16753",""," ","[10,160,35,220,149,216,255,143,41,241,273,51,42,99,61,19,179,239,20,201,175,65,178,213,92,7,125,252,127,224,40,107,67,286,96,207,106,176,261,115,272,236,155,135,75,283,189,166,27,159,5,68,285,172,256,14,234,284,33,290,39,145,18,281,289,194,112,188,16,208,268,11,165,60,52,253,199,71,150,9,28,140,29,148,45,222,102,247,297,226,288,138,257,12,69,265,235,53,58,249,26,237,13,203,24,100,238,206,221,78,192,232,263,62,142,21,82,228,132,190,108,128,246,233,91,57,168,230,85,170,3,114,191,271,73,72,124,223,81,48,97,161,152,202,260,146,6,186,126,36,119,63,83,131,123,181,95,103,173,77,270,59,25,153,180,167,84,244,118,183,292,139,196,218,37,277,162,280,293,187,204,130,154,215,50,90,54,121,30,276,101,157,195,38,34,158,231,295,136,171,94,117,8,278,46,264,177,111,182,240,164,133,266,49,134,258,0,267,55,151,209,184,79,87,137,110,294,212,163,248,109,23,229,64,242,296,225,47,70,200,104,291,86,174,31,98,245,88,93,44,147,279,227,141,219,217,211,22,74,113,269,193,2,144,156,282,43,251,76,214,250,287,197,275,56,259,198,299,210,15,298,129,32,274,17,116,66,1,205,89,243,169,4,120,80,105,262,185,122,254]","arrowleft","","","0","9","60","300","[""0026_N0300_K0060_CLIQUE"",""0044_N0300_K0060_NOCLIQUE""]"
"","","","","","audio-keyboard-response","106","568031","0.0-57.1-0.1-1.1","","null","audio_feedback/shuffles/shuffle01.mp3","null","","","","","0","9","60","300","[""0026_N0300_K0060_CLIQUE"",""0044_N0300_K0060_NOCLIQUE""]"
"","","","","","canvas-keyboard-response","107","582418","0.0-57.2-0.2-0.2","","14329",""," ","[75,160,153,62,6,130,25,103,174,28,73,43,141,170,58,27,37,176,4,267,132,214,171,201,23,175,158,38,296,104,92,72,284,89,270,290,146,289,261,82,172,13,98,69,49,184,107,258,40,255,86,41,183,26,3,138,218,256,219,188,292,76,133,248,134,273,297,91,167,102,22,239,81,285,17,274,131,227,231,151,129,220,202,221,165,94,46,262,163,157,291,109,212,226,21,140,177,187,252,24,118,11,10,241,209,137,52,197,100,199,194,272,55,288,287,2,286,271,233,276,117,106,205,161,60,159,152,169,207,19,191,113,263,204,121,16,251,114,1,211,232,70,123,64,85,115,206,168,247,39,90,186,293,245,87,154,0,33,230,275,260,42,142,147,135,215,51,125,150,144,294,50,127,97,185,34,57,181,164,238,145,7,128,5,79,32,124,139,234,240,259,18,78,244,65,110,200,66,45,30,112,265,179,210,236,237,279,53,223,299,178,120,295,111,47,148,67,257,68,80,283,216,195,56,277,213,254,12,61,182,208,242,29,190,77,298,222,268,14,229,228,246,84,173,63,149,96,31,243,266,192,189,269,217,108,95,264,282,93,105,253,74,8,166,156,15,136,9,203,225,35,71,281,196,59,162,224,54,122,155,44,101,198,116,235,250,143,249,193,99,88,83,126,36,280,180,20,119,48,278]","arrowleft","","","0","9","60","300","[""0026_N0300_K0060_CLIQUE"",""0044_N0300_K0060_NOCLIQUE""]"
"","","","","","audio-keyboard-response","108","583207","0.0-57.2-0.2-1.2","","null","audio_feedback/shuffles/shuffle01.mp3","null","","","","","0","9","60","300","[""0026_N0300_K0060_CLIQUE"",""0044_N0300_K0060_NOCLIQUE""]"
"","","","","","canvas-keyboard-response","109","610216","0.0-57.3-0.3-0.3","","26951","","arrowleft","[141,9,290,33,88,69,272,59,168,201,28,19,178,40,51,260,48,101,27,176,221,160,283,143,157,276,211,68,63,162,80,99,92,26,111,131,184,126,106,266,247,81,229,250,32,128,273,118,130,227,194,100,23,15,179,102,136,20,147,85,113,212,42,189,151,193,171,10,218,289,225,103,133,35,265,275,135,298,228,215,140,120,127,90,89,29,230,67,119,258,4,61,286,257,267,163,18,156,255,25,287,83,123,269,107,169,180,150,105,54,134,146,188,224,175,52,112,198,86,254,208,41,220,153,58,62,30,200,57,7,291,185,155,245,282,76,94,145,207,108,292,109,132,5,74,93,239,222,12,297,2,96,144,259,56,167,182,199,98,122,159,284,22,53,104,278,1,60,158,299,232,205,233,195,191,206,16,14,72,219,196,183,31,274,268,277,129,37,49,202,46,73,186,261,270,210,238,203,235,95,279,190,117,138,295,237,296,293,3,164,84,280,246,243,137,125,161,139,21,45,170,251,241,148,264,231,242,256,6,181,47,82,252,8,17,66,216,174,124,77,166,204,110,152,244,249,11,44,165,262,236,91,64,115,34,288,217,253,39,192,43,172,38,271,177,209,50,213,294,55,263,281,149,116,226,114,0,79,78,214,187,97,248,154,234,24,285,65,87,36,121,173,71,75,70,142,223,197,240,13]","arrowleft","","true","0","9","60","300","[""0026_N0300_K0060_CLIQUE"",""0044_N0300_K0060_NOCLIQUE""]"
"","","","","","audio-keyboard-response","110","611006","0.0-57.3-0.3-1.3","","null","audio_feedback/right/coin01.mp3","null","","","","","0","9","60","300","[""0026_N0300_K0060_CLIQUE"",""0044_N0300_K0060_NOCLIQUE""]"
"","","","","","canvas-keyboard-response","111","622040","0.0-58.0-0.0-0.0","","10977",""," ","[8,173,152,141,107,81,238,246,63,281,241,255,211,222,229,77,247,58,250,142,100,290,113,179,64,119,261,218,35,214,239,20,131,163,69,198,202,95,183,277,181,60,121,219,87,240,175,191,171,189,160,188,257,24,215,217,67,30,128,270,99,54,57,19,94,166,298,275,125,235,193,36,53,151,204,190,174,102,28,130,25,297,40,280,126,293,83,47,105,221,138,150,147,29,43,149,248,1,162,14,256,13,205,232,34,237,101,165,32,153,89,137,129,185,159,194,146,228,225,267,61,274,176,65,288,10,269,6,233,192,41,178,120,84,156,3,23,75,208,289,39,224,11,109,148,201,72,55,213,251,200,78,98,253,68,110,85,50,62,132,199,18,195,236,114,0,264,70,227,278,164,92,2,273,170,103,117,294,212,203,169,252,216,97,96,197,134,135,279,73,127,268,282,91,263,136,93,168,17,272,292,112,155,144,115,283,210,182,295,291,82,260,231,206,223,44,271,76,186,284,74,56,80,46,287,33,158,48,116,124,66,299,259,157,154,123,79,45,244,262,27,9,26,265,59,38,90,143,16,122,71,111,180,285,49,226,104,167,140,52,242,187,266,118,133,276,184,88,7,177,286,258,234,245,51,108,12,106,254,4,42,243,37,22,161,209,296,230,31,86,21,5,145,220,196,15,207,249,139,172]","arrowleft","","","0","10","55","300","[""0040_N0300_K0055_CLIQUE"",""0092_N0300_K0055_NOCLIQUE""]"
"","","","","","audio-keyboard-response","112","622578","0.0-58.0-0.0-1.0","","null","audio_feedback/shuffles/shuffle01.mp3","null","","","","","0","10","55","300","[""0040_N0300_K0055_CLIQUE"",""0092_N0300_K0055_NOCLIQUE""]"
"","","","","","canvas-keyboard-response","113","642616","0.0-58.1-0.1-0.1","","19980","","arrowleft","[125,10,32,25,1,145,165,135,285,142,99,78,15,177,96,66,257,295,254,73,89,234,80,146,277,62,167,75,2,123,58,171,212,136,282,184,44,61,5,129,149,221,166,173,298,53,130,188,16,193,8,288,14,283,128,79,263,151,141,21,158,230,97,201,223,259,19,36,124,82,261,235,251,153,24,299,191,132,233,87,227,279,209,164,54,192,88,210,108,101,284,7,240,219,120,225,186,91,187,182,23,112,98,258,246,42,238,81,52,168,220,267,65,274,0,115,250,287,264,157,265,178,214,152,273,286,174,137,245,150,183,297,231,224,83,292,103,269,26,170,268,236,156,111,222,55,119,253,289,9,296,148,110,239,281,86,17,56,117,159,72,34,147,31,228,252,203,217,200,47,39,143,271,207,216,116,176,11,77,266,131,30,229,41,280,169,45,248,6,226,243,213,133,144,185,18,27,49,199,244,105,40,74,232,255,208,127,291,218,106,196,37,90,57,290,3,262,247,175,163,237,241,46,172,71,242,126,205,260,294,293,195,180,33,272,256,179,122,94,114,202,204,139,154,211,121,160,109,275,270,92,95,20,38,4,60,206,64,12,102,93,161,194,162,198,85,140,76,197,138,278,190,134,249,155,189,63,69,84,51,48,68,67,28,50,13,70,43,104,215,107,22,118,181,100,113,35,29,59,276]","arrowleft","","true","0","10","55","300","[""0040_N0300_K0055_CLIQUE"",""0092_N0300_K0055_NOCLIQUE""]"
"","","","","","audio-keyboard-response","114","643304","0.0-58.1-0.1-1.1","","null","audio_feedback/right/coin01.mp3","null","","","","","0","10","55","300","[""0040_N0300_K0055_CLIQUE"",""0092_N0300_K0055_NOCLIQUE""]"
"","","","","","canvas-keyboard-response","115","654804","0.0-59.0-0.0-0.0","","11443",""," ","[120,150,31,12,183,141,241,4,253,290,122,71,34,108,189,5,75,50,133,203,76,39,298,262,30,267,274,297,87,95,6,136,72,36,180,38,215,292,289,7,246,119,216,250,145,100,163,27,209,237,139,210,162,161,287,134,179,66,291,265,154,135,176,90,170,9,238,62,272,257,256,60,239,43,64,252,286,28,201,97,32,200,295,195,46,197,20,279,57,8,165,263,105,182,156,82,70,3,153,171,99,273,173,16,109,151,86,261,164,213,172,152,184,132,41,81,40,14,158,202,142,214,58,11,266,127,293,255,15,168,56,236,24,51,288,143,26,21,54,107,137,131,18,103,88,69,93,79,167,282,78,244,126,44,278,19,227,204,240,225,275,118,121,144,181,98,188,140,254,155,232,2,125,1,104,45,33,61,22,166,211,96,228,111,49,243,186,146,249,235,84,48,299,233,269,268,218,208,13,116,277,73,59,178,281,285,147,221,52,192,42,199,17,193,63,138,224,260,222,74,0,106,91,264,102,160,77,35,205,23,110,29,248,47,174,55,159,187,94,129,230,271,10,190,68,83,177,251,284,169,259,101,130,123,234,25,191,92,294,247,226,114,67,185,113,223,65,89,270,124,283,212,220,85,229,245,175,37,217,115,258,128,198,80,231,53,276,242,117,219,280,149,296,148,196,112,206,207,157,194]","arrowright","","","0","11","55","300","[""0003_N0300_K0055_NOCLIQUE"",""0036_N0300_K0055_CLIQUE""]"
"","","","","","audio-keyboard-response","116","655343","0.0-59.0-0.0-1.0","","null","audio_feedback/shuffles/shuffle01.mp3","null","","","","","0","11","55","300","[""0003_N0300_K0055_NOCLIQUE"",""0036_N0300_K0055_CLIQUE""]"
"","","","","","canvas-keyboard-response","117","658866","0.0-59.1-0.1-0.1","","3464","","arrowright","[51,250,218,116,279,140,8,98,66,236,149,277,178,271,288,242,59,52,267,48,244,181,225,249,257,219,78,50,206,253,238,135,258,252,53,137,114,60,208,216,25,1,198,6,202,14,85,92,152,194,79,113,209,188,29,21,3,129,158,107,19,157,282,97,183,173,39,176,182,166,82,40,145,201,230,70,215,205,160,259,63,268,44,154,266,196,118,237,31,10,207,243,35,143,22,67,100,42,91,101,131,187,229,71,76,192,289,123,273,73,298,247,61,297,172,12,272,4,156,195,72,54,87,132,27,245,110,222,220,141,106,105,241,151,295,284,120,269,36,95,211,90,171,17,56,232,200,134,150,240,296,147,248,122,112,26,275,260,233,278,217,117,210,5,227,28,191,38,2,177,170,18,291,121,251,23,197,89,142,136,155,34,199,186,84,169,274,102,139,81,126,68,83,290,37,193,64,133,280,46,58,94,41,231,180,124,146,49,119,127,162,226,223,153,30,125,167,285,287,128,283,159,93,165,179,254,74,239,281,103,69,292,246,293,265,168,16,299,184,234,109,144,163,33,185,148,262,224,228,99,111,235,55,270,264,45,213,203,189,43,263,20,86,96,75,130,138,161,15,77,214,57,80,256,115,175,32,261,62,276,190,108,7,286,65,294,104,24,255,47,204,212,174,221,13,9,11,164,0,88]","arrowright","","true","0","11","55","300","[""0003_N0300_K0055_NOCLIQUE"",""0036_N0300_K0055_CLIQUE""]"
"","","","","","audio-keyboard-response","118","659290","0.0-59.1-0.1-1.1","","null","audio_feedback/right/coin01.mp3","null","","","","","0","11","55","300","[""0003_N0300_K0055_NOCLIQUE"",""0036_N0300_K0055_CLIQUE""]"
"","","","","","canvas-keyboard-response","119","666158","0.0-60.0-0.0-0.0","","6811",""," ","[64,237,162,150,268,15,65,247,174,265,28,62,73,134,187,116,36,158,236,60,13,34,52,270,51,48,23,47,165,83,195,224,177,7,94,290,96,119,299,297,279,95,201,156,199,159,111,277,262,54,220,8,190,246,153,291,223,85,61,14,122,257,82,5,228,182,88,205,180,9,202,46,197,212,192,292,244,283,98,145,4,137,91,221,163,211,70,169,118,66,288,217,154,272,209,206,49,26,68,198,254,45,148,33,136,99,117,129,16,18,77,146,31,285,227,22,110,218,280,101,80,193,170,267,35,37,50,138,42,274,87,248,55,196,41,255,123,216,121,175,171,242,109,296,144,185,172,230,278,10,219,130,104,56,126,17,203,147,100,19,284,240,92,189,3,157,253,93,58,256,275,79,107,152,59,57,250,234,186,38,149,141,282,276,69,207,29,27,76,271,233,143,124,226,75,263,215,179,173,231,260,166,81,86,108,0,25,127,266,67,24,72,184,222,135,164,112,2,131,140,120,160,204,90,21,294,245,167,259,225,102,178,89,139,113,287,39,20,71,53,229,289,286,200,106,214,133,264,232,12,239,114,241,32,1,142,63,188,181,269,105,273,155,293,30,11,168,78,281,128,208,243,210,44,261,40,252,295,103,251,249,235,194,183,191,258,97,6,74,161,43,84,151,132,125,176,298,115,213,238]","arrowleft","","","0","12","50","300","[""0001_N0300_K0050_CLIQUE"",""0093_N0300_K0050_NOCLIQUE""]"
"","","","","","audio-keyboard-response","120","666735","0.0-60.0-0.0-1.0","","null","audio_feedback/shuffles/shuffle01.mp3","null","","","","","0","12","50","300","[""0001_N0300_K0050_CLIQUE"",""0093_N0300_K0050_NOCLIQUE""]"
"","","","","","canvas-keyboard-response","121","674360","0.0-60.1-0.1-0.1","","7569",""," ","[217,175,52,87,209,203,265,76,193,296,264,241,156,271,138,75,4,281,142,72,239,168,3,88,228,293,12,226,10,230,93,127,0,53,214,233,148,253,29,26,37,158,54,69,30,285,263,204,57,130,287,115,90,249,210,89,291,223,145,107,225,102,24,207,290,14,117,16,245,153,35,274,242,258,20,111,177,188,38,195,50,172,140,251,100,118,114,197,116,22,25,61,286,42,125,126,60,244,240,261,220,11,186,280,143,180,159,173,56,86,194,31,247,95,49,41,19,73,224,48,150,46,82,133,165,298,146,260,45,289,36,137,112,34,208,8,183,227,110,162,279,84,216,238,98,123,17,71,276,47,191,192,65,278,122,178,189,236,250,273,243,15,62,213,199,83,58,284,246,101,154,144,27,206,18,232,99,202,81,161,182,282,269,187,96,237,141,85,21,196,167,33,176,44,151,292,79,166,67,219,59,109,39,147,171,295,1,152,155,255,179,185,51,77,262,184,78,55,120,200,270,6,229,136,256,257,201,190,174,248,235,181,169,32,13,9,68,74,268,222,231,124,254,299,139,272,160,164,288,170,132,40,80,212,2,104,163,215,234,294,205,157,91,131,70,198,119,121,252,283,128,134,211,149,7,277,218,108,97,94,92,266,113,135,63,297,106,129,105,275,267,23,221,43,28,64,5,259,66,103]","arrowleft","","","0","12","50","300","[""0001_N0300_K0050_CLIQUE"",""0093_N0300_K0050_NOCLIQUE""]"
"","","","","","audio-keyboard-response","122","674927","0.0-60.1-0.1-1.1","","null","audio_feedback/shuffles/shuffle01.mp3","null","","","","","0","12","50","300","[""0001_N0300_K0050_CLIQUE"",""0093_N0300_K0050_NOCLIQUE""]"
"","","","","","canvas-keyboard-response","123","681596","0.0-60.2-0.2-0.2","","6610",""," ","[153,37,27,14,132,29,5,168,238,265,228,252,8,262,24,42,12,161,90,31,189,116,79,36,245,143,61,115,121,23,95,290,43,15,13,59,51,178,218,110,257,26,10,192,198,223,81,248,25,104,136,135,38,216,7,84,259,256,194,159,103,67,177,107,187,176,131,280,93,17,193,231,52,142,282,271,170,204,39,19,172,269,120,47,139,69,30,233,183,57,72,210,278,20,277,226,28,130,222,200,279,289,146,97,237,155,60,165,112,154,147,207,249,102,105,191,266,229,255,175,190,166,264,86,174,215,150,127,50,64,44,63,145,293,263,53,242,45,202,98,113,258,203,56,88,22,284,149,100,75,213,212,209,71,234,227,296,134,65,276,221,206,128,138,141,87,197,125,144,171,254,251,3,157,123,129,219,58,292,297,68,18,272,208,244,185,114,33,48,82,118,11,205,299,119,163,109,2,195,156,270,274,180,186,126,124,295,211,201,34,239,66,283,74,179,78,85,247,96,101,196,182,275,140,169,21,99,148,162,287,73,137,181,83,217,80,76,281,92,94,0,77,6,241,285,173,250,188,151,1,89,62,261,167,9,184,273,225,41,253,40,32,236,152,133,55,288,54,260,246,160,117,232,106,286,111,35,230,220,267,243,235,158,224,291,122,240,268,16,298,199,46,108,49,214,164,294,70,91,4]","arrowleft","","","0","12","50","300","[""0001_N0300_K0050_CLIQUE"",""0093_N0300_K0050_NOCLIQUE""]"
"","","","","","audio-keyboard-response","124","682159","0.0-60.2-0.2-1.2","","null","audio_feedback/shuffles/shuffle01.mp3","null","","","","","0","12","50","300","[""0001_N0300_K0050_CLIQUE"",""0093_N0300_K0050_NOCLIQUE""]"
"","","","","","canvas-keyboard-response","125","685389","0.0-60.3-0.3-0.3","","3173","","arrowleft","[170,252,200,250,106,94,85,147,44,53,114,211,70,191,132,222,209,126,7,206,127,97,184,121,171,221,11,22,155,131,71,215,240,95,4,109,89,73,226,219,68,297,245,213,151,9,75,30,214,100,62,48,33,224,289,67,37,25,284,128,190,274,137,150,156,135,102,283,111,279,201,234,29,79,251,146,64,247,225,255,223,181,199,154,77,28,254,63,244,36,188,267,173,262,91,256,235,290,115,15,282,51,259,52,285,76,196,291,38,275,298,142,123,120,210,189,21,130,260,74,238,42,8,87,43,19,236,218,72,118,125,96,231,145,54,80,278,193,139,228,17,212,112,41,117,149,35,263,270,101,248,134,40,143,148,98,34,12,18,163,119,20,108,122,195,257,182,220,242,202,61,59,229,178,105,249,272,86,162,233,6,133,198,78,253,208,24,31,58,264,230,192,268,157,266,271,136,152,46,281,194,32,55,103,276,92,81,10,47,69,179,269,27,160,65,176,57,166,60,204,99,158,16,258,144,56,2,280,104,185,277,164,107,161,14,168,294,205,116,217,296,287,273,203,82,180,3,153,197,239,175,49,159,265,88,237,93,299,1,113,187,293,83,110,165,174,243,50,216,124,167,246,186,292,141,288,261,172,177,140,295,138,232,129,5,0,207,26,23,66,13,169,286,183,90,84,227,39,241,45]","arrowleft","","true","0","12","50","300","[""0001_N0300_K0050_CLIQUE"",""0093_N0300_K0050_NOCLIQUE""]"
"","","","","","audio-keyboard-response","126","685829","0.0-60.3-0.3-1.3","","null","audio_feedback/right/coin01.mp3","null","","","","","0","12","50","300","[""0001_N0300_K0050_CLIQUE"",""0093_N0300_K0050_NOCLIQUE""]"
"","","","","","canvas-keyboard-response","127","705705","0.0-61.0-0.0-0.0","","19819",""," ","[81,214,135,248,54,95,171,215,279,69,45,281,15,142,154,65,221,8,213,205,166,134,210,216,149,0,252,228,150,55,218,230,100,242,101,89,120,12,224,34,172,240,14,68,265,170,207,24,141,60,117,96,29,39,58,66,74,23,159,21,56,63,113,136,25,86,5,93,1,3,38,169,97,16,137,272,130,239,112,155,199,50,99,297,223,102,30,182,278,71,287,121,111,186,7,62,51,153,201,291,157,131,284,116,124,249,13,4,270,267,103,257,125,282,229,269,259,138,127,185,295,261,276,219,292,194,122,151,73,109,9,274,175,94,290,266,17,110,286,18,202,156,44,72,251,232,273,299,167,47,254,209,143,98,183,75,234,195,275,91,108,173,176,288,193,211,237,280,126,178,258,22,128,289,177,85,118,92,187,225,144,220,48,46,35,198,32,298,271,168,162,147,204,82,49,36,104,180,246,158,84,129,235,296,37,42,11,217,192,285,236,145,197,10,200,233,57,43,227,268,260,181,165,253,164,231,67,196,61,256,70,119,243,140,179,106,40,64,76,245,203,90,83,263,283,20,264,78,184,191,190,238,277,174,255,133,79,262,247,19,41,88,212,87,226,26,6,293,188,163,77,31,59,146,33,123,105,294,27,53,189,139,161,160,107,28,148,206,80,241,222,244,132,2,250,114,115,152,208,52]","arrowleft","","","0","13","50","300","[""0040_N0300_K0050_CLIQUE"",""0078_N0300_K0050_NOCLIQUE""]"
"","","","","","audio-keyboard-response","128","706550","0.0-61.0-0.0-1.0","","null","audio_feedback/shuffles/shuffle01.mp3","null","","","","","0","13","50","300","[""0040_N0300_K0050_CLIQUE"",""0078_N0300_K0050_NOCLIQUE""]"
"","","","","","canvas-keyboard-response","129","713283","0.0-61.1-0.1-0.1","","6676",""," ","[157,201,72,254,183,24,94,295,288,247,241,246,199,176,33,277,96,78,163,132,250,169,239,112,0,14,3,2,275,156,155,74,266,229,257,13,244,260,15,43,299,63,215,153,255,86,60,195,228,291,233,65,18,75,76,164,230,268,25,245,52,253,186,243,258,269,285,117,279,116,107,28,71,121,113,296,206,262,146,133,115,289,251,292,149,171,95,62,287,77,127,224,114,102,298,82,264,194,122,20,259,23,284,283,197,10,282,16,126,219,270,40,92,12,261,297,26,225,184,70,214,271,66,79,89,124,185,138,204,213,19,248,154,141,221,59,263,217,105,17,38,252,48,131,158,136,177,178,209,56,32,31,222,293,88,97,193,90,159,135,265,5,93,129,274,110,35,7,173,30,104,142,119,118,37,294,212,85,152,98,101,278,111,216,143,39,240,161,100,168,140,49,242,50,130,210,45,273,6,144,134,42,179,227,11,236,103,83,290,276,167,160,170,57,34,80,21,4,189,281,9,208,91,223,211,8,256,73,188,81,108,162,187,41,145,192,44,147,207,203,166,61,182,150,58,54,106,64,109,202,139,165,68,55,53,226,123,191,125,190,29,99,27,286,180,128,67,174,181,235,267,1,175,46,151,280,47,272,231,69,172,36,238,84,237,218,196,22,87,232,198,137,205,51,120,220,200,148,234,249]","arrowleft","","","0","13","50","300","[""0040_N0300_K0050_CLIQUE"",""0078_N0300_K0050_NOCLIQUE""]"
"","","","","","audio-keyboard-response","130","713845","0.0-61.1-0.1-1.1","","null","audio_feedback/shuffles/shuffle01.mp3","null","","","","","0","13","50","300","[""0040_N0300_K0050_CLIQUE"",""0078_N0300_K0050_NOCLIQUE""]"
"","","","","","canvas-keyboard-response","131","720178","0.0-61.2-0.2-0.2","","6275",""," ","[171,277,148,61,138,215,66,97,250,117,147,89,249,2,161,115,172,208,67,176,252,251,198,181,11,134,226,247,129,289,73,48,141,74,42,59,85,214,135,125,22,24,157,62,109,236,225,173,152,21,34,256,56,156,142,264,273,227,46,5,54,162,276,220,96,63,57,265,44,36,253,241,72,69,197,224,30,210,9,4,123,153,195,130,40,175,282,275,242,83,295,35,118,119,121,190,23,217,285,182,200,26,1,177,164,203,298,14,81,294,49,179,120,231,77,158,91,104,3,140,112,209,145,218,94,19,103,192,166,222,248,7,223,28,178,207,105,165,37,278,64,99,113,52,262,108,268,240,0,169,206,100,110,43,243,143,196,230,155,32,211,38,239,281,159,296,60,167,25,151,204,10,287,229,51,199,39,16,291,82,235,101,65,124,88,184,194,191,154,132,228,246,50,244,186,293,272,205,31,193,6,284,279,70,102,137,127,297,53,201,183,174,29,149,255,257,187,263,15,68,98,150,168,87,79,107,90,170,267,122,254,185,86,212,160,33,146,270,180,261,20,76,114,13,111,269,188,163,274,290,131,292,93,139,27,202,288,92,219,55,283,47,299,136,8,17,245,232,45,260,18,95,116,271,233,80,234,78,216,266,258,58,213,144,84,12,71,106,41,189,259,128,75,126,286,133,280,237,238,221]","arrowleft","","","0","13","50","300","[""0040_N0300_K0050_CLIQUE"",""0078_N0300_K0050_NOCLIQUE""]"
"","","","","","audio-keyboard-response","132","720737","0.0-61.2-0.2-1.2","","null","audio_feedback/shuffles/shuffle01.mp3","null","","","","","0","13","50","300","[""0040_N0300_K0050_CLIQUE"",""0078_N0300_K0050_NOCLIQUE""]"
"","","","","","canvas-keyboard-response","133","729547","0.0-61.3-0.3-0.3","","8753","","arrowleft","[213,250,108,117,16,122,81,110,208,174,244,36,38,70,29,126,233,82,291,106,284,179,265,268,0,253,262,72,12,257,185,31,218,79,55,275,59,231,192,289,152,194,119,160,243,27,223,11,62,281,118,299,205,133,40,220,28,100,58,161,177,140,4,173,56,277,98,159,260,150,171,248,66,18,136,5,23,49,57,154,123,89,73,199,212,196,216,19,186,137,139,138,93,124,215,34,86,295,115,178,97,249,87,145,227,204,91,8,198,224,258,246,104,134,242,226,169,52,24,25,235,77,42,286,105,254,68,39,113,296,236,214,167,114,191,259,269,157,129,71,165,164,237,155,211,44,61,131,135,241,202,127,3,189,184,109,168,153,225,272,102,65,76,50,221,69,13,297,245,63,149,17,20,147,201,148,170,234,125,279,187,33,266,294,240,53,141,120,88,30,283,238,271,209,219,270,193,276,2,21,282,229,158,41,285,116,75,74,290,83,43,292,94,176,1,142,288,274,197,111,217,107,251,255,48,54,95,267,195,121,188,203,264,143,22,85,222,92,247,64,232,156,190,9,206,287,103,130,90,172,252,10,46,163,182,14,166,78,151,183,210,298,96,200,32,84,6,45,273,60,128,80,261,175,278,26,112,37,180,101,263,35,7,256,230,132,293,99,280,51,15,162,228,146,181,207,239,67,47,144]","arrowleft","","true","0","13","50","300","[""0040_N0300_K0050_CLIQUE"",""0078_N0300_K0050_NOCLIQUE""]"
"","","","","","audio-keyboard-response","134","729974","0.0-61.3-0.3-1.3","","null","audio_feedback/right/coin01.mp3","null","","","","","0","13","50","300","[""0040_N0300_K0050_CLIQUE"",""0078_N0300_K0050_NOCLIQUE""]"
"","","","","","canvas-keyboard-response","135","746146","0.0-62.0-0.0-0.0","","16114",""," ","[119,28,179,67,235,8,227,298,52,224,189,222,74,167,278,242,202,182,41,17,257,82,263,27,294,124,277,245,289,177,69,214,153,259,195,116,88,187,164,55,251,211,50,43,75,25,255,297,142,77,87,101,160,106,178,188,102,247,163,47,61,272,145,258,192,1,261,218,14,91,191,78,122,121,296,209,168,204,236,273,199,281,9,292,73,83,228,290,193,16,270,137,150,225,256,129,274,134,237,92,147,3,243,226,65,165,32,271,152,267,139,84,184,250,111,6,136,30,71,24,140,223,194,115,180,166,201,175,99,279,109,37,239,230,85,291,207,275,126,268,249,285,141,45,56,280,265,112,57,107,208,158,72,10,29,5,70,269,38,54,155,68,283,203,197,215,299,286,22,246,190,4,295,172,39,31,34,253,64,95,48,23,131,104,154,97,11,59,49,248,198,18,93,19,229,266,159,284,135,33,217,58,42,0,15,252,36,132,114,89,63,232,238,96,100,282,44,233,127,143,62,231,157,183,205,108,53,287,288,293,241,60,90,181,185,186,103,162,51,26,46,2,244,206,210,149,161,234,144,113,196,66,174,110,262,79,221,128,105,130,12,240,86,98,146,21,117,212,138,264,171,170,20,220,13,219,81,173,94,254,123,260,35,120,80,169,125,276,40,76,7,133,151,176,216,148,200,118,213,156]","arrowleft","","","0","14","45","300","[""0090_N0300_K0045_CLIQUE"",""0097_N0300_K0045_NOCLIQUE""]"
"","","","","","audio-keyboard-response","136","746729","0.0-62.0-0.0-1.0","","null","audio_feedback/shuffles/shuffle01.mp3","null","","","","","0","14","45","300","[""0090_N0300_K0045_CLIQUE"",""0097_N0300_K0045_NOCLIQUE""]"
"","","","","","canvas-keyboard-response","137","749953","0.0-62.1-0.1-0.1","","3164","","arrowleft","[207,66,201,164,166,135,145,278,5,211,76,297,125,261,270,228,183,291,245,210,159,40,231,240,194,171,230,265,200,14,295,264,143,126,45,225,51,269,148,26,79,174,89,6,36,124,222,35,206,249,280,285,49,282,72,113,62,33,250,216,31,70,246,103,215,25,165,97,284,298,208,268,202,217,16,64,197,180,286,80,176,187,299,109,283,185,178,139,116,160,233,43,105,193,146,7,34,42,141,236,22,155,107,91,251,48,277,177,119,144,150,46,106,38,88,67,224,190,23,151,237,287,129,50,212,115,17,192,0,92,114,73,238,279,220,96,82,111,63,266,234,101,158,157,52,132,93,186,99,44,259,221,59,276,19,18,53,90,232,12,199,77,242,229,65,39,241,100,137,288,58,142,2,86,138,205,219,20,290,289,167,239,120,61,134,118,235,226,10,24,123,81,112,191,260,41,214,296,243,156,252,87,74,257,71,153,28,1,274,8,258,253,60,293,154,110,95,195,272,198,255,273,4,127,161,244,170,172,152,168,175,162,131,57,37,147,271,281,29,254,54,196,68,256,213,223,262,209,102,84,184,27,189,75,173,204,248,275,69,15,11,3,104,32,128,83,94,108,9,188,55,267,136,263,47,294,13,181,130,292,121,98,227,218,30,140,247,203,117,133,149,56,78,163,122,179,182,169,21,85]","arrowleft","","true","0","14","45","300","[""0090_N0300_K0045_CLIQUE"",""0097_N0300_K0045_NOCLIQUE""]"
"","","","","","audio-keyboard-response","138","750376","0.0-62.1-0.1-1.1","","null","audio_feedback/right/coin01.mp3","null","","","","","0","14","45","300","[""0090_N0300_K0045_CLIQUE"",""0097_N0300_K0045_NOCLIQUE""]"
"","","","","","canvas-keyboard-response","139","762894","0.0-63.0-0.0-0.0","","12460",""," ","[227,144,143,218,250,107,219,91,137,179,208,267,266,122,247,115,31,175,151,291,244,154,86,245,60,133,199,248,17,3,232,55,271,226,27,259,286,241,234,162,156,281,193,171,173,197,75,135,189,46,210,209,58,158,71,16,94,41,146,152,39,212,1,142,98,148,25,167,114,262,231,273,275,280,64,15,13,139,29,108,92,116,185,10,121,57,157,61,188,264,56,18,190,295,66,233,242,9,0,182,140,7,186,22,37,125,240,198,184,224,164,141,287,72,202,203,33,106,124,194,32,83,270,237,216,52,63,48,93,225,285,166,292,170,268,161,289,21,150,181,206,5,155,236,38,249,220,298,221,77,105,119,30,99,23,229,296,85,70,89,69,172,192,74,163,43,132,168,102,40,65,217,222,277,12,214,101,112,68,204,130,265,129,36,113,178,239,261,100,44,269,293,159,78,165,147,45,53,255,149,120,176,228,49,169,54,8,254,253,274,251,34,138,279,272,62,42,28,230,82,79,131,195,294,283,235,47,111,191,160,284,128,51,24,299,201,80,196,252,278,297,256,290,243,88,84,59,123,180,276,223,200,127,136,50,109,207,145,174,183,177,20,118,90,11,288,6,117,213,260,87,2,35,187,110,19,258,263,246,126,103,95,73,134,205,26,282,104,97,257,238,96,4,76,14,67,215,81,153,211]","arrowright","","","0","15","45","300","[""0072_N0300_K0045_NOCLIQUE"",""0059_N0300_K0045_CLIQUE""]"
"","","","","","audio-keyboard-response","140","763421","0.0-63.0-0.0-1.0","","null","audio_feedback/shuffles/shuffle01.mp3","null","","","","","0","15","45","300","[""0072_N0300_K0045_NOCLIQUE"",""0059_N0300_K0045_CLIQUE""]"
"","","","","","canvas-keyboard-response","141","771704","0.0-63.1-0.1-0.1","","8222",""," ","[157,0,107,29,282,171,30,97,43,39,187,192,37,261,200,230,274,148,172,247,73,145,273,205,119,215,144,51,45,152,142,136,24,86,264,50,210,249,16,79,125,212,176,3,109,137,253,118,284,189,181,263,7,262,2,280,214,87,38,219,246,258,208,36,211,20,47,182,88,117,165,169,161,256,103,177,99,288,254,193,140,83,128,180,90,52,191,46,61,259,113,8,10,70,269,218,248,153,223,206,222,6,183,286,291,96,85,95,298,59,195,294,275,156,64,184,244,228,231,48,266,106,82,72,93,68,242,271,203,19,154,28,13,139,233,115,92,111,110,60,239,130,133,34,216,44,173,159,108,226,11,135,240,151,35,69,126,175,237,122,178,147,204,232,100,227,26,272,71,67,146,250,260,257,243,134,213,188,162,281,53,57,143,94,74,89,267,81,76,221,167,21,295,120,217,225,104,220,56,199,62,102,285,196,121,66,12,170,49,186,65,279,194,18,245,276,278,168,127,5,252,289,15,160,290,277,255,132,234,75,270,63,283,91,27,164,297,54,77,25,129,116,202,158,1,229,197,112,296,155,224,138,207,150,265,251,80,209,190,40,17,174,293,163,78,292,241,238,23,141,185,131,149,32,166,98,14,58,101,41,179,235,123,31,114,198,4,9,105,33,124,299,268,42,201,22,287,55,236,84]","arrowright","","","0","15","45","300","[""0072_N0300_K0045_NOCLIQUE"",""0059_N0300_K0045_CLIQUE""]"
"","","","","","audio-keyboard-response","142","772276","0.0-63.1-0.1-1.1","","null","audio_feedback/shuffles/shuffle01.mp3","null","","","","","0","15","45","300","[""0072_N0300_K0045_NOCLIQUE"",""0059_N0300_K0045_CLIQUE""]"
"","","","","","canvas-keyboard-response","143","778386","0.0-63.2-0.2-0.2","","6054",""," ","[221,255,113,133,223,16,18,55,284,111,62,147,224,272,249,130,112,17,229,239,126,273,137,74,123,109,209,91,295,157,214,203,136,46,115,143,23,188,199,182,89,216,53,219,97,92,267,42,26,260,252,211,186,37,233,3,278,285,230,189,85,125,138,82,108,11,80,146,174,99,227,88,232,254,120,131,20,277,144,217,51,54,34,22,105,75,66,87,149,268,31,240,281,294,228,60,293,139,291,119,36,200,215,59,222,207,171,283,70,63,4,243,102,250,298,161,32,9,117,175,122,38,90,177,195,244,134,154,297,256,114,287,155,98,153,236,258,178,69,276,181,271,76,234,124,280,169,45,262,121,245,145,79,152,205,61,253,263,57,210,28,290,10,50,159,292,282,196,158,206,48,49,19,110,173,198,185,259,135,96,168,106,25,100,202,286,288,0,2,164,247,128,208,77,192,41,212,179,29,78,129,218,14,116,5,7,24,68,44,299,204,141,33,275,170,107,251,67,151,39,163,242,72,194,35,166,220,269,289,94,238,193,187,84,95,296,83,197,140,132,13,142,81,226,8,118,176,6,93,266,246,237,101,264,184,58,156,190,191,15,104,235,213,265,241,40,47,127,162,71,172,231,52,279,270,12,150,183,64,30,274,21,65,86,167,261,103,1,73,225,201,248,257,27,56,160,180,165,43,148]","arrowright","","","0","15","45","300","[""0072_N0300_K0045_NOCLIQUE"",""0059_N0300_K0045_CLIQUE""]"
"","","","","","audio-keyboard-response","144","778952","0.0-63.2-0.2-1.2","","null","audio_feedback/shuffles/shuffle01.mp3","null","","","","","0","15","45","300","[""0072_N0300_K0045_NOCLIQUE"",""0059_N0300_K0045_CLIQUE""]"
"","","","","","canvas-keyboard-response","145","787752","0.0-63.3-0.3-0.3","","8746",""," ","[233,214,158,53,38,258,43,162,152,27,238,232,10,117,207,299,187,17,247,174,182,287,210,56,175,295,226,135,112,89,94,23,205,275,101,200,192,107,159,95,15,62,267,298,9,76,161,201,218,290,133,136,289,130,215,83,283,282,173,13,69,134,204,55,261,100,71,1,199,154,20,271,241,6,190,124,157,177,184,48,256,0,216,291,153,195,42,127,5,39,219,137,149,197,242,41,186,288,203,120,276,189,259,236,75,171,35,244,185,297,97,208,165,198,49,180,92,102,188,294,278,14,51,115,98,81,131,18,118,220,263,280,248,3,78,178,249,254,246,86,65,274,105,32,170,139,87,253,26,61,163,155,7,183,24,194,30,45,223,151,126,148,202,67,66,213,245,224,206,260,230,129,64,270,29,293,85,12,34,114,19,8,272,265,266,262,36,46,21,16,22,106,193,88,160,176,84,145,234,33,255,239,179,281,122,169,284,93,243,292,40,144,212,72,119,167,225,52,231,141,99,168,235,229,113,252,110,191,143,50,257,80,58,250,90,196,59,109,181,146,2,251,77,79,121,44,128,96,166,268,140,217,286,123,111,221,227,240,91,25,104,237,125,147,277,63,4,37,31,132,142,74,11,269,108,211,60,103,273,209,116,285,54,228,28,222,264,138,57,150,68,279,296,70,82,164,73,172,156,47]","arrowright","","","0","15","45","300","[""0072_N0300_K0045_NOCLIQUE"",""0059_N0300_K0045_CLIQUE""]"
"","","","","","audio-keyboard-response","146","788318","0.0-63.3-0.3-1.3","","null","audio_feedback/shuffles/shuffle01.mp3","null","","","","","0","15","45","300","[""0072_N0300_K0045_NOCLIQUE"",""0059_N0300_K0045_CLIQUE""]"
"","","","","","canvas-keyboard-response","147","790774","0.0-63.4-0.4-0.4","","2399","","arrowright","[221,74,93,48,109,65,133,16,147,234,214,61,173,117,46,176,90,44,212,66,39,203,224,92,168,275,239,160,241,194,267,296,26,146,156,50,204,188,13,56,279,69,127,119,54,42,257,162,170,1,222,248,293,192,102,4,285,215,232,113,6,59,208,85,34,49,81,55,288,277,75,108,228,132,142,282,219,151,121,260,73,206,209,125,183,171,103,247,87,297,28,230,40,217,80,227,15,262,63,137,189,138,17,238,207,23,254,128,167,76,242,33,8,298,270,22,265,237,236,175,115,116,112,145,240,199,159,130,233,68,106,272,51,3,35,250,9,10,157,140,283,19,71,278,122,193,77,12,186,191,280,84,152,225,216,256,43,143,98,274,37,196,53,169,181,182,36,201,120,202,123,177,134,144,165,291,284,86,226,104,29,185,97,231,268,89,60,205,161,62,118,78,2,129,198,190,259,114,27,281,41,131,52,148,79,246,292,99,11,266,14,135,139,264,290,244,94,88,184,287,261,96,180,20,57,197,229,21,141,235,289,223,149,269,158,294,195,124,7,178,249,136,154,276,105,163,153,30,253,72,64,5,45,155,252,220,18,83,243,255,126,273,174,25,286,210,251,67,218,166,211,47,179,82,187,101,107,58,245,299,0,110,91,100,172,164,38,258,95,295,32,70,111,24,263,213,200,150,271,31]","arrowright","","true","0","15","45","300","[""0072_N0300_K0045_NOCLIQUE"",""0059_N0300_K0045_CLIQUE""]"
"","","","","","audio-keyboard-response","148","791199","0.0-63.4-0.4-1.4","","null","audio_feedback/right/coin01.mp3","null","","","","","0","15","45","300","[""0072_N0300_K0045_NOCLIQUE"",""0059_N0300_K0045_CLIQUE""]"
"","","","","","canvas-keyboard-response","149","816258","0.0-64.0-0.0-0.0","","25001",""," ","[91,38,220,89,166,95,235,231,183,177,256,50,51,136,46,23,121,10,190,210,102,198,42,88,246,155,269,40,75,233,27,147,138,119,69,6,284,139,128,279,297,73,277,285,130,169,83,19,77,57,174,84,148,135,260,112,4,144,61,153,71,181,236,294,26,66,203,97,137,99,76,237,264,134,103,197,82,258,216,85,110,295,8,266,25,65,140,251,201,293,18,275,199,87,267,53,78,195,191,273,161,126,228,244,151,64,221,36,187,62,211,45,238,259,214,133,289,176,262,86,158,22,109,280,202,101,287,234,206,117,33,32,209,47,108,59,232,173,175,141,116,254,265,149,219,1,146,58,226,94,124,125,20,72,298,270,252,291,224,223,239,67,107,180,49,263,39,5,122,283,207,35,186,282,127,208,29,245,274,120,271,281,188,68,159,241,248,7,111,156,299,106,3,243,172,160,162,192,17,288,0,70,114,145,255,261,247,2,168,276,52,60,93,240,196,123,185,11,132,257,242,218,14,165,225,215,79,115,253,100,129,54,63,55,154,189,167,179,205,44,104,163,182,41,200,92,143,150,204,142,48,193,212,290,230,278,170,113,292,118,184,16,296,249,98,131,13,74,217,105,34,21,229,227,28,222,81,12,152,43,157,178,213,9,56,164,268,31,194,171,15,250,90,30,80,96,37,286,24,272]","arrowleft","","","0","16","40","300","[""0002_N0300_K0040_CLIQUE"",""0003_N0300_K0040_NOCLIQUE""]"
"","","","","","audio-keyboard-response","150","817196","0.0-64.0-0.0-1.0","","null","audio_feedback/shuffles/shuffle01.mp3","null","","","","","0","16","40","300","[""0002_N0300_K0040_CLIQUE"",""0003_N0300_K0040_NOCLIQUE""]"
"","","","","","canvas-keyboard-response","151","827500","0.0-64.1-0.1-0.1","","10244",""," ","[168,199,260,181,197,14,1,290,164,8,11,130,280,134,183,211,263,234,90,0,191,71,215,56,270,213,275,2,105,131,44,25,3,138,271,226,133,282,235,253,287,182,238,246,193,159,7,227,34,261,218,58,247,109,35,179,184,240,178,241,63,173,283,29,28,293,201,223,175,52,94,41,110,148,288,57,256,32,155,163,267,172,47,15,220,43,81,48,194,54,209,292,298,276,106,30,88,208,190,230,19,222,259,167,166,75,278,86,132,180,55,46,242,39,113,277,221,85,186,141,245,60,92,111,23,207,151,192,72,144,100,64,89,229,203,135,93,158,73,231,98,74,4,128,258,143,202,140,117,36,185,80,84,157,69,50,294,119,176,205,214,286,262,120,82,272,219,188,244,257,16,169,70,296,83,299,66,59,104,170,40,162,13,154,279,108,195,269,251,273,187,27,116,237,76,12,152,216,161,165,137,297,115,233,265,206,255,284,65,160,250,87,204,198,125,252,217,129,249,112,147,99,96,266,122,5,139,232,53,264,295,95,236,200,212,243,225,196,210,156,268,174,254,123,91,189,20,24,10,45,18,121,103,289,124,142,118,285,77,149,291,38,31,281,61,114,37,9,146,26,22,107,274,33,150,79,102,42,62,17,68,153,248,67,136,239,171,49,78,228,51,126,101,224,21,127,6,97,145,177]","arrowleft","","","0","16","40","300","[""0002_N0300_K0040_CLIQUE"",""0003_N0300_K0040_NOCLIQUE""]"
"","","","","","audio-keyboard-response","152","828044","0.0-64.1-0.1-1.1","","null","audio_feedback/shuffles/shuffle01.mp3","null","","","","","0","16","40","300","[""0002_N0300_K0040_CLIQUE"",""0003_N0300_K0040_NOCLIQUE""]"
"","","","","","canvas-keyboard-response","153","840422","0.0-64.2-0.2-0.2","","12321",""," ","[188,113,72,41,163,279,189,81,0,183,66,249,225,117,111,6,83,4,54,114,120,171,136,139,65,288,67,204,211,86,222,62,233,215,219,146,170,173,76,32,200,298,99,161,35,245,39,255,77,52,5,50,95,108,138,100,232,246,109,11,101,98,79,299,125,24,297,281,30,142,227,266,110,93,147,118,254,234,271,82,51,259,265,103,283,195,127,153,166,44,25,97,85,199,237,180,151,148,278,280,91,122,140,2,10,19,256,267,239,248,106,176,115,150,253,131,3,191,74,262,45,165,18,71,193,296,286,210,214,13,105,130,192,89,116,23,294,273,242,187,228,164,55,7,181,107,57,61,155,1,177,40,22,247,291,121,53,49,15,287,135,282,56,201,159,174,126,149,276,78,123,12,172,203,284,205,229,268,152,63,194,48,158,96,209,38,60,231,185,43,258,34,73,178,270,235,141,277,175,17,206,20,230,289,21,80,33,31,184,26,42,221,168,69,207,112,186,236,240,134,128,145,64,58,252,257,295,213,226,251,84,47,220,102,290,133,8,29,244,275,196,261,160,36,92,46,285,293,68,223,162,75,238,59,224,250,202,70,119,137,129,28,218,269,143,156,157,88,292,90,212,169,274,104,9,87,272,132,241,27,94,198,208,14,216,179,264,197,260,167,182,243,263,144,217,154,190,124,37,16]","arrowleft","","","0","16","40","300","[""0002_N0300_K0040_CLIQUE"",""0003_N0300_K0040_NOCLIQUE""]"
"","","","","","audio-keyboard-response","154","840949","0.0-64.2-0.2-1.2","","null","audio_feedback/shuffles/shuffle01.mp3","null","","","","","0","16","40","300","[""0002_N0300_K0040_CLIQUE"",""0003_N0300_K0040_NOCLIQUE""]"
"","","","","","canvas-keyboard-response","155","852270","0.0-64.3-0.3-0.3","","11264",""," ","[248,121,97,57,200,278,229,77,98,62,261,271,99,204,150,247,270,107,151,1,61,263,184,188,215,157,76,252,258,289,297,140,2,130,58,8,251,83,154,15,177,292,249,231,182,218,296,168,287,186,236,242,237,122,187,63,9,149,20,167,11,48,119,211,219,80,193,162,29,228,88,45,153,50,27,6,199,126,235,4,7,68,103,273,5,189,178,212,24,94,295,118,230,138,286,240,191,206,89,32,266,127,90,70,59,176,205,53,244,69,208,169,185,175,288,113,152,243,221,190,290,253,116,12,18,279,196,213,31,23,96,64,135,17,269,49,223,214,255,26,156,134,275,277,85,52,299,293,148,179,93,246,298,40,209,67,257,291,19,47,105,232,120,3,250,91,163,282,87,55,78,110,42,136,132,41,79,139,268,165,14,74,73,202,264,111,71,100,161,36,25,39,216,239,256,72,101,21,192,102,112,160,124,125,224,220,173,60,155,226,207,180,227,217,16,81,30,37,280,131,172,28,285,197,225,75,104,143,46,66,170,109,22,194,13,210,44,260,195,117,56,201,181,234,115,171,284,146,174,183,51,33,141,137,92,203,159,222,129,241,145,84,142,254,276,166,65,272,274,267,35,123,0,114,144,133,82,259,164,86,38,294,245,262,265,108,238,34,198,95,10,147,106,43,281,233,158,283,128,54]","arrowleft","","","0","16","40","300","[""0002_N0300_K0040_CLIQUE"",""0003_N0300_K0040_NOCLIQUE""]"
"","","","","","audio-keyboard-response","156","852799","0.0-64.3-0.3-1.3","","null","audio_feedback/shuffles/shuffle01.mp3","null","","","","","0","16","40","300","[""0002_N0300_K0040_CLIQUE"",""0003_N0300_K0040_NOCLIQUE""]"
"","","","","","canvas-keyboard-response","157","858166","0.0-64.4-0.4-0.4","","5311",""," ","[43,144,299,63,40,152,96,143,25,6,65,194,52,113,225,276,28,172,123,125,53,213,246,126,216,182,134,146,292,184,102,191,188,158,56,46,237,86,92,101,135,196,88,257,226,14,10,108,109,200,11,139,35,98,133,111,286,210,236,297,18,266,279,66,57,190,44,151,204,7,205,140,254,258,112,227,235,270,159,75,153,34,59,2,16,163,114,231,165,36,170,173,128,61,155,121,207,4,5,291,82,138,19,116,245,264,221,192,180,185,214,130,161,208,175,168,142,193,176,222,294,67,296,256,259,122,157,275,263,265,20,136,169,58,217,72,218,93,178,45,17,85,55,201,187,132,166,154,181,203,87,244,209,42,288,167,252,100,202,33,64,41,149,71,104,223,273,206,240,281,255,242,68,156,261,269,199,3,32,89,0,250,164,215,49,22,9,150,189,293,60,183,54,186,23,27,77,80,298,271,211,195,30,197,251,90,70,118,247,120,47,106,115,94,31,262,253,283,230,73,105,62,79,39,78,1,145,84,38,127,83,260,239,177,15,97,174,234,131,229,171,241,268,148,37,272,50,274,124,224,107,287,162,110,81,290,69,24,48,285,278,117,249,12,103,119,233,228,232,289,13,29,248,179,280,284,267,129,26,238,21,99,141,282,8,160,219,95,212,137,76,147,220,198,51,295,91,243,74,277]","arrowleft","","","0","16","40","300","[""0002_N0300_K0040_CLIQUE"",""0003_N0300_K0040_NOCLIQUE""]"
"","","","","","audio-keyboard-response","158","858729","0.0-64.4-0.4-1.4","","null","audio_feedback/shuffles/shuffle01.mp3","null","","","","","0","16","40","300","[""0002_N0300_K0040_CLIQUE"",""0003_N0300_K0040_NOCLIQUE""]"
"","","","","","canvas-keyboard-response","159","864210","0.0-64.5-0.5-0.5","","5423",""," ","[192,19,190,156,157,52,164,225,298,34,238,182,249,173,137,31,226,41,5,224,299,71,107,187,3,207,245,160,106,261,13,82,14,50,78,235,100,295,77,184,276,74,229,95,266,45,241,252,265,236,139,282,277,290,178,129,22,275,220,239,115,10,101,108,278,86,127,111,47,72,242,250,198,40,222,168,202,44,73,98,211,274,119,185,213,48,147,284,79,26,177,120,103,176,210,6,289,285,29,109,256,114,175,116,212,181,104,112,232,7,81,12,206,200,96,247,83,2,271,80,23,146,110,165,17,263,43,230,27,113,39,260,138,183,30,65,143,161,67,273,292,216,214,105,286,243,166,259,209,199,219,268,193,20,21,42,132,70,121,215,191,280,248,251,125,130,59,153,237,16,134,294,197,87,136,155,246,240,133,145,28,24,37,84,90,68,297,203,233,58,188,254,25,122,221,234,201,264,228,281,159,227,54,279,18,231,118,148,269,9,287,64,205,179,55,88,195,89,38,172,76,217,223,123,93,174,204,167,253,288,163,270,150,69,154,97,63,244,8,257,171,162,102,11,152,53,149,208,186,141,92,144,262,151,1,142,32,170,0,140,131,35,46,15,272,158,196,4,85,49,66,117,126,99,267,293,180,124,60,57,255,91,51,94,75,128,56,61,296,283,135,36,33,258,62,194,218,189,291,169]","arrowleft","","","0","16","40","300","[""0002_N0300_K0040_CLIQUE"",""0003_N0300_K0040_NOCLIQUE""]"
"","","","","","audio-keyboard-response","160","864788","0.0-64.5-0.5-1.5","","null","audio_feedback/shuffles/shuffle01.mp3","null","","","","","0","16","40","300","[""0002_N0300_K0040_CLIQUE"",""0003_N0300_K0040_NOCLIQUE""]"
"","","","","","canvas-keyboard-response","161","869132","0.0-64.6-0.6-0.6","","4287","","arrowleft","[204,29,272,47,247,88,113,193,192,256,72,227,295,180,16,46,71,54,172,7,190,96,114,28,248,228,56,230,22,99,150,292,259,274,161,197,260,117,51,287,276,282,199,237,254,214,70,108,52,289,140,95,33,265,157,64,196,174,211,181,27,123,162,39,203,219,55,257,188,14,299,236,263,38,84,76,293,58,176,18,102,15,93,297,262,240,57,187,229,142,155,235,132,40,223,11,164,171,243,118,83,253,6,206,109,252,100,4,178,119,179,168,136,32,264,283,170,255,44,246,67,86,202,268,21,115,148,233,208,10,2,24,261,221,147,226,191,184,36,66,194,3,250,104,49,266,81,20,17,231,215,59,103,222,238,110,207,141,280,74,186,198,245,294,232,296,138,278,73,165,234,167,41,298,30,159,133,158,61,201,34,26,45,130,50,82,139,5,175,166,200,239,105,80,122,77,210,281,48,291,79,173,160,137,75,120,69,9,288,209,169,153,25,94,216,224,23,62,143,91,205,106,68,258,185,217,35,189,177,92,149,183,225,273,269,78,195,124,98,87,152,290,251,285,146,8,0,89,279,271,156,125,270,154,127,182,97,121,163,112,107,145,151,284,42,126,85,241,134,212,19,13,128,31,275,131,60,218,90,277,242,135,116,43,213,244,12,129,1,286,111,220,37,144,65,249,63,267,101,53]","arrowleft","","true","0","16","40","300","[""0002_N0300_K0040_CLIQUE"",""0003_N0300_K0040_NOCLIQUE""]"
"","","","","","audio-keyboard-response","162","869566","0.0-64.6-0.6-1.6","","null","audio_feedback/right/coin01.mp3","null","","","","","0","16","40","300","[""0002_N0300_K0040_CLIQUE"",""0003_N0300_K0040_NOCLIQUE""]"
"","","","","","canvas-keyboard-response","163","877061","0.0-65.0-0.0-0.0","","7437",""," ","[1,206,265,54,278,91,220,213,143,285,251,60,121,185,299,17,235,268,256,58,77,94,158,172,75,288,247,266,124,126,78,212,240,219,90,130,191,262,114,224,259,174,73,274,155,153,83,95,161,79,51,215,34,255,279,170,0,226,96,270,117,107,142,160,252,103,102,133,281,67,294,44,20,207,277,88,125,28,37,188,297,6,149,104,165,276,200,258,244,233,69,223,55,289,229,25,129,13,39,171,84,52,195,178,152,242,284,250,241,71,23,264,217,156,47,205,181,275,65,196,231,128,18,176,5,248,228,68,131,210,86,9,175,132,138,101,92,179,57,238,236,137,66,24,162,99,15,29,202,12,287,141,106,260,232,19,40,184,146,272,59,120,154,234,246,22,245,123,16,30,61,230,147,261,164,118,282,85,199,291,116,292,180,267,227,214,27,49,127,50,80,72,168,63,286,119,33,93,189,122,150,31,21,151,290,159,293,187,134,43,42,253,100,167,225,87,204,148,10,105,186,166,298,32,280,7,64,221,110,201,135,296,38,112,81,295,74,194,218,108,203,182,273,46,82,14,239,193,145,183,109,211,144,257,263,283,97,62,111,271,140,2,173,197,157,35,209,4,3,76,163,198,48,192,139,70,53,222,41,98,56,216,26,243,237,190,177,169,11,136,269,113,254,45,8,208,115,89,249,36]","arrowleft","","","0","17","40","300","[""0097_N0300_K0040_CLIQUE"",""0079_N0300_K0040_NOCLIQUE""]"
