"success","timeout","failed_images","failed_audio","failed_video","trial_type","trial_index","time_elapsed","internal_node_id","view_history","rt","stimulus","response","nodes_order","correct_response","block_index","presentation_index","clique_size","graph_size","graphs_names","graphs_couple","accuracy"
"true","false","[]","[]","[]","preload","0","97","0.0-0.0","","","","","","","","","","","","",""
"","","","","","pavlovia","1","678","0.0-1.0","","","","","","","","","","","","",""
"","","","","","instructions","2","9503","0.0-2.0","[{""page_index"":0,""viewing_time"":6614},{""page_index"":1,""viewing_time"":2209}]","8823","","","","","","","","","","",""
"true","false","[]","[]","[]","preload","3","10260","0.0-3.0","","","","","","","","","","","","",""
"","","","","","instructions","4","44388","0.0-4.0","[{""page_index"":0,""viewing_time"":1709},{""page_index"":1,""viewing_time"":688},{""page_index"":2,""viewing_time"":893},{""page_index"":3,""viewing_time"":735},{""page_index"":4,""viewing_time"":212},{""page_index"":5,""viewing_time"":182},{""page_index"":6,""viewing_time"":163},{""page_index"":7,""viewing_time"":157},{""page_index"":8,""viewing_time"":164},{""page_index"":9,""viewing_time"":166},{""page_index"":10,""viewing_time"":151},{""page_index"":11,""viewing_time"":170},{""page_index"":12,""viewing_time"":175},{""page_index"":13,""viewing_time"":164},{""page_index"":14,""viewing_time"":166},{""page_index"":15,""viewing_time"":275},{""page_index"":16,""viewing_time"":183},{""page_index"":17,""viewing_time"":209},{""page_index"":18,""viewing_time"":439},{""page_index"":19,""viewing_time"":361},{""page_index"":20,""viewing_time"":754},{""page_index"":21,""viewing_time"":170},{""page_index"":22,""viewing_time"":167},{""page_index"":23,""viewing_time"":177},{""page_index"":24,""viewing_time"":377},{""page_index"":25,""viewing_time"":157},{""page_index"":26,""viewing_time"":177},{""page_index"":27,""viewing_time"":174},{""page_index"":28,""viewing_time"":325},{""page_index"":29,""viewing_time"":3065},{""page_index"":30,""viewing_time"":341},{""page_index"":31,""viewing_time"":566},{""page_index"":32,""viewing_time"":197},{""page_index"":33,""viewing_time"":525},{""page_index"":34,""viewing_time"":1820},{""page_index"":33,""viewing_time"":4315},{""page_index"":34,""viewing_time"":688},{""page_index"":35,""viewing_time"":628},{""page_index"":36,""viewing_time"":729},{""page_index"":37,""viewing_time"":396},{""page_index"":38,""viewing_time"":291},{""page_index"":39,""viewing_time"":683},{""page_index"":40,""viewing_time"":603},{""page_index"":41,""viewing_time"":472},{""page_index"":42,""viewing_time"":220},{""page_index"":43,""viewing_time"":231},{""page_index"":44,""viewing_time"":2037},{""page_index"":43,""viewing_time"":2431},{""page_index"":44,""viewing_time"":1102},{""page_index"":45,""viewing_time"":805},{""page_index"":46,""viewing_time"":475},{""page_index"":47,""viewing_time"":422},{""page_index"":48,""viewing_time"":327},{""page_index"":49,""viewing_time"":331},{""page_index"":50,""viewing_time"":296},{""page_index"":51,""viewing_time"":293}]","34127","","","","","","","","","","",""
"","","","","","instructions","5","47149","0.0-5.0","[{""page_index"":0,""viewing_time"":2760}]","2760","","","","","","","","","","",""
"true","false","[]","[]","[]","preload","6","48180","0.0-6.0","","","","","","","","","","","","",""
"","","","","","image-keyboard-response","7","58929","0.0-7.0","","10745","tutorial/task_familiarization_images/part 1/01_N160_K90_cliqueRight_question1.PNG"," ","","","","","","","","",""
"","","","","","image-keyboard-response","8","60499","0.0-8.0","","1573","tutorial/task_familiarization_images/part 1/02_N160_K90_cliqueRight_question2.PNG"," ","","","","","","","","",""
"","","","","","image-keyboard-response","9","63171","0.0-9.0","","2670","tutorial/task_familiarization_images/part 1/03_N160_K90_cliqueRight_question3.PNG","arrowright","","","","","","","","",""
"","","","","","image-keyboard-response","10","66043","0.0-10.0","","2869","tutorial/task_familiarization_images/part 1/04_N160_K90_cliqueRight_solution.PNG"," ","","","","","","","","",""
"","","","","","image-keyboard-response","11","68067","0.0-11.0","","2024","tutorial/task_familiarization_images/part 1/05_N160_K65_cliqueRight_question1.PNG"," ","","","","","","","","",""
"","","","","","image-keyboard-response","12","68465","0.0-12.0","","396","tutorial/task_familiarization_images/part 1/06_N160_K65_cliqueRight_question2.PNG"," ","","","","","","","","",""
"","","","","","image-keyboard-response","13","69357","0.0-13.0","","890","tutorial/task_familiarization_images/part 1/07_N160_K65_cliqueRight_question3.PNG","arrowright","","","","","","","","",""
"","","","","","image-keyboard-response","14","70622","0.0-14.0","","1263","tutorial/task_familiarization_images/part 1/08_N160_K65_cliqueRight_solution.PNG"," ","","","","","","","","",""
"","","","","","image-keyboard-response","15","71847","0.0-15.0","","1222","tutorial/task_familiarization_images/part 1/09_N160_K50_cliqueLeft_question1.PNG"," ","","","","","","","","",""
"","","","","","image-keyboard-response","16","72884","0.0-16.0","","1035","tutorial/task_familiarization_images/part 1/10_N160_K50_cliqueLeft_question2.PNG"," ","","","","","","","","",""
"","","","","","image-keyboard-response","17","75016","0.0-17.0","","2130","tutorial/task_familiarization_images/part 1/11_N160_K50_cliqueLeft_question3.PNG","arrowleft","","","","","","","","",""
"","","","","","image-keyboard-response","18","76301","0.0-18.0","","1282","tutorial/task_familiarization_images/part 1/12_N160_K50_cliqueLeft_solution.PNG"," ","","","","","","","","",""
"","","","","","image-keyboard-response","19","77715","0.0-19.0","","1412","tutorial/task_familiarization_images/part 1/13_N160_K80_cliqueLeft_question1.PNG"," ","","","","","","","","",""
"","","","","","image-keyboard-response","20","78209","0.0-20.0","","492","tutorial/task_familiarization_images/part 1/14_N160_K80_cliqueLeft_question2.PNG"," ","","","","","","","","",""
"","","","","","image-keyboard-response","21","79049","0.0-21.0","","839","tutorial/task_familiarization_images/part 1/15_N160_K80_cliqueLeft_question3.PNG","arrowleft","","","","","","","","",""
"","","","","","image-keyboard-response","22","79796","0.0-22.0","","745","tutorial/task_familiarization_images/part 1/16_N160_K80_cliqueLeft_solution.PNG"," ","","","","","","","","",""
"","","","","","image-keyboard-response","23","80778","0.0-23.0","","981","tutorial/task_familiarization_images/part 1/17_N160_K40_cliqueRight_question1.PNG"," ","","","","","","","","",""
"","","","","","image-keyboard-response","24","82587","0.0-24.0","","1807","tutorial/task_familiarization_images/part 1/18_N160_K40_cliqueRight_question2.PNG"," ","","","","","","","","",""
"","","","","","image-keyboard-response","25","85208","0.0-25.0","","2620","tutorial/task_familiarization_images/part 1/19_N160_K40_cliqueRight_question3.PNG","arrowright","","","","","","","","",""
"","","","","","image-keyboard-response","26","86293","0.0-26.0","","1083","tutorial/task_familiarization_images/part 1/20_N160_K40_cliqueRight_solution.PNG"," ","","","","","","","","",""
"","","","","","image-keyboard-response","27","87828","0.0-27.0","","1533","tutorial/task_familiarization_images/part 1/21_N160_K70_cliqueLeft_question1.PNG"," ","","","","","","","","",""
"","","","","","image-keyboard-response","28","89621","0.0-28.0","","1791","tutorial/task_familiarization_images/part 1/22_N160_K70_cliqueLeft_question2.PNG"," ","","","","","","","","",""
"","","","","","image-keyboard-response","29","90418","0.0-29.0","","795","tutorial/task_familiarization_images/part 1/23_N160_K70_cliqueLeft_question3.PNG","arrowleft","","","","","","","","",""
"","","","","","image-keyboard-response","30","91317","0.0-30.0","","898","tutorial/task_familiarization_images/part 1/24_N160_K70_cliqueLeft_solution.PNG"," ","","","","","","","","",""
"true","false","[]","[]","[]","preload","31","91988","0.0-31.0","","","","","","","","","","","","",""
"","","","","","image-keyboard-response","32","95795","0.0-32.0","","3805","tutorial/task_familiarization_images/part 2/01_160_80_cliqueLeft_withFeedback_1.PNG"," ","","","","","","","","",""
"","","","","","image-keyboard-response","33","96133","0.0-33.0","","336","tutorial/task_familiarization_images/part 2/02_160_80_cliqueLeft_withFeedback_1.PNG"," ","","","","","","","","",""
"","","","","","image-keyboard-response","34","96695","0.0-34.0","","560","tutorial/task_familiarization_images/part 2/03_160_80_cliqueLeft_withFeedback_3.PNG","arrowleft","","","","","","","","",""
"","","","","","image-keyboard-response","35","97500","0.0-35.0","","803","tutorial/task_familiarization_images/part 2/04_160_80_cliqueLeft_withFeedback_correct.PNG"," ","","","","","","","","",""
"","","","","","image-keyboard-response","36","98686","0.0-36.0","","1184","tutorial/task_familiarization_images/part 2/05_160_55_cliqueRight_withFeedback_1.PNG"," ","","","","","","","","",""
"","","","","","image-keyboard-response","37","98897","0.0-37.0","","209","tutorial/task_familiarization_images/part 2/06_160_55_cliqueRight_withFeedback_2.PNG"," ","","","","","","","","",""
"","","","","","image-keyboard-response","38","99435","0.0-38.0","","536","tutorial/task_familiarization_images/part 2/07_160_55_cliqueRight_withFeedback_3.PNG","arrowright","","","","","","","","",""
"","","","","","image-keyboard-response","39","100179","0.0-39.0","","743","tutorial/task_familiarization_images/part 2/08_160_55_cliqueRight_withFeedback_correct.PNG"," ","","","","","","","","",""
"","","","","","image-keyboard-response","40","100971","0.0-40.0","","787","tutorial/task_familiarization_images/part 2/09_160_70_cliqueLeft_withFeedback_1.PNG"," ","","","","","","","","",""
"","","","","","image-keyboard-response","41","101151","0.0-41.0","","178","tutorial/task_familiarization_images/part 2/10_160_70_cliqueLeft_withFeedback_2.PNG"," ","","","","","","","","",""
"","","","","","image-keyboard-response","42","101509","0.0-42.0","","356","tutorial/task_familiarization_images/part 2/11_160_70_cliqueLeft_withFeedback_3.PNG","arrowleft","","","","","","","","",""
"","","","","","image-keyboard-response","43","102251","0.0-43.0","","741","tutorial/task_familiarization_images/part 2/12_160_70_cliqueLeft_withFeedback_correct.PNG"," ","","","","","","","","",""
"","","","","","survey-html-form","44","112274","0.0-44.0","","10019","","{""gender"":""male"",""age"":""23""}","","","","","","","","",""
"","","","","","instructions","45","117483","0.0-45.0","[{""page_index"":0,""viewing_time"":5207}]","5208","","","","","","","","","","",""
"true","","","","","fullscreen","46","122025","0.0-47.0","","","","","","","","","","","","",""
"","","","","","canvas-keyboard-response","47","126135","0.0-48.0-0.0-0.0","","3994",""," ","[54,62,101,230,57,187,141,5,213,76,168,225,143,91,88,199,130,292,135,11,43,162,206,155,139,170,67,129,34,106,85,72,265,37,79,111,165,154,13,256,10,291,30,94,47,231,285,31,32,153,234,105,197,138,28,260,278,184,224,167,103,204,107,277,183,220,299,156,229,251,295,53,23,49,20,134,216,280,163,274,123,254,36,114,293,122,176,248,267,60,3,174,151,164,258,52,104,121,124,120,188,247,80,262,40,296,288,152,257,239,42,221,45,186,272,283,87,19,145,27,192,245,92,227,208,241,77,126,281,212,58,98,276,287,70,100,179,298,39,250,55,46,214,286,159,268,35,190,102,82,219,4,97,243,131,146,68,246,149,203,189,109,18,193,112,0,142,63,69,242,185,71,217,238,144,294,200,158,108,237,74,93,171,211,117,180,194,64,41,9,128,48,14,191,169,56,235,249,133,222,290,160,284,81,195,50,116,84,89,297,7,198,61,147,29,166,253,21,12,240,78,119,269,264,207,232,271,181,215,90,244,273,140,33,252,228,75,157,16,44,173,275,259,113,73,95,279,6,1,66,59,218,161,270,150,148,26,96,205,118,24,51,289,115,263,282,202,178,2,136,83,201,261,127,226,175,38,22,65,137,233,8,255,210,196,25,132,209,172,15,86,17,266,236,177,99,223,182,125,110]","arrowright","0","0","90","300","[""0042_N0300_K0090_NOCLIQUE"",""0062_N0300_K0090_CLIQUE""]","",""
"","","","","","audio-keyboard-response","48","127475","0.0-48.0-0.0-1.0","","null","audio_feedback/shuffles/shuffle01.mp3","null","","","0","0","90","300","[""0042_N0300_K0090_NOCLIQUE"",""0062_N0300_K0090_CLIQUE""]","",""
"","","","","","canvas-keyboard-response","49","129563","0.0-48.1-0.1-0.1","","2018",""," ","[274,222,248,39,35,123,189,99,83,111,270,107,18,112,286,23,118,268,69,266,88,100,56,75,188,200,213,277,63,125,71,176,177,158,78,130,46,211,133,22,216,157,167,168,138,174,113,289,24,195,166,120,156,237,29,214,208,28,137,281,254,262,220,242,60,264,40,290,247,271,185,287,265,43,1,129,61,4,37,19,209,244,95,155,251,13,82,173,250,33,55,7,233,183,58,128,90,50,114,285,0,143,184,257,41,101,103,131,193,77,245,9,132,282,163,5,36,223,57,178,259,218,119,84,152,171,201,238,42,79,278,59,115,236,136,217,10,53,93,32,212,206,181,229,294,198,210,205,96,12,153,194,86,106,70,296,48,44,298,288,165,91,241,148,207,124,65,116,154,179,253,134,180,76,150,26,204,6,135,272,240,196,85,104,261,197,280,105,121,145,249,51,146,30,227,2,27,170,186,202,292,160,11,140,199,52,31,102,3,159,191,224,235,89,187,276,38,228,190,291,109,203,279,25,144,225,122,110,230,64,232,269,126,147,299,92,68,284,215,231,108,151,293,258,260,219,142,97,221,34,15,267,273,297,66,243,16,162,87,182,14,62,98,234,255,239,81,54,94,295,67,263,139,164,275,192,246,74,80,252,169,8,45,283,72,47,21,73,256,127,172,175,141,149,161,117,49,17,226,20]","arrowright","0","0","90","300","[""0042_N0300_K0090_NOCLIQUE"",""0062_N0300_K0090_CLIQUE""]","",""
"","","","","","audio-keyboard-response","50","130133","0.0-48.1-0.1-1.1","","null","audio_feedback/shuffles/shuffle01.mp3","null","","","0","0","90","300","[""0042_N0300_K0090_NOCLIQUE"",""0062_N0300_K0090_CLIQUE""]","",""
"","","","","","canvas-keyboard-response","51","131643","0.0-48.2-0.2-0.2","","1440",""," ","[181,36,179,29,283,53,284,27,104,224,42,88,119,164,109,195,137,256,178,202,165,291,5,184,214,75,157,229,201,158,140,153,61,100,216,0,144,252,143,213,20,97,118,209,93,270,247,28,130,152,38,115,99,276,142,105,60,180,18,146,81,204,191,102,68,268,66,98,141,211,31,274,299,6,273,117,84,293,59,259,235,169,186,33,246,272,94,65,122,244,193,298,167,257,286,47,221,189,156,277,227,245,198,208,23,44,290,64,280,69,150,147,46,287,4,74,125,269,215,200,45,281,49,41,162,192,132,154,135,203,261,134,174,297,296,139,13,15,248,187,243,8,279,212,254,73,207,182,82,242,223,295,171,106,12,79,1,225,267,234,3,220,160,83,237,22,120,173,76,175,67,107,72,16,262,176,166,172,56,51,285,55,183,85,197,226,240,138,108,206,168,58,110,205,50,71,294,114,232,78,9,218,116,70,159,57,124,190,101,86,32,289,145,241,161,26,112,266,63,170,91,151,155,230,43,258,249,199,219,52,253,177,123,231,260,126,14,271,222,113,239,210,264,288,129,35,95,90,89,148,25,236,275,250,11,163,282,48,19,292,10,136,34,21,24,185,128,233,40,62,54,278,194,263,7,103,39,30,92,255,149,17,87,131,265,77,133,127,196,37,111,251,217,238,80,121,188,228,2,96]","arrowright","0","0","90","300","[""0042_N0300_K0090_NOCLIQUE"",""0062_N0300_K0090_CLIQUE""]","",""
"","","","","","audio-keyboard-response","52","132215","0.0-48.2-0.2-1.2","","null","audio_feedback/shuffles/shuffle01.mp3","null","","","0","0","90","300","[""0042_N0300_K0090_NOCLIQUE"",""0062_N0300_K0090_CLIQUE""]","",""
"","","","","","canvas-keyboard-response","53","133467","0.0-48.3-0.3-0.3","","1154",""," ","[289,183,225,274,162,201,4,248,96,68,217,260,13,266,141,222,220,31,205,16,66,299,62,259,7,90,206,22,146,213,136,288,291,211,128,269,73,245,0,101,121,176,249,51,157,106,135,237,41,142,279,144,120,219,14,2,184,111,153,60,189,79,56,127,89,110,99,264,171,265,40,255,207,1,290,181,276,108,43,172,67,156,26,104,20,9,163,86,69,55,125,48,117,166,83,147,25,93,168,59,94,126,254,21,230,45,100,191,298,229,148,215,169,102,118,50,46,87,139,109,64,210,235,23,292,35,268,243,218,78,247,240,98,28,295,246,10,115,232,19,275,42,271,296,282,263,244,281,88,39,231,151,159,286,140,122,250,209,44,5,6,228,173,204,242,29,58,277,95,12,278,52,71,37,193,92,267,198,11,155,113,112,224,284,190,61,258,241,239,253,119,273,130,192,251,208,272,49,103,236,174,178,15,8,283,199,65,97,145,252,194,76,195,134,105,180,54,84,261,164,257,214,27,85,287,138,160,158,107,24,74,297,170,187,221,203,33,238,161,3,129,182,72,202,294,227,132,152,32,82,17,185,186,143,34,197,212,77,137,36,91,114,293,30,70,223,18,177,188,63,165,167,38,81,124,131,285,154,47,149,200,270,234,75,196,116,280,150,53,123,179,80,226,256,175,216,133,57,233,262]","arrowright","0","0","90","300","[""0042_N0300_K0090_NOCLIQUE"",""0062_N0300_K0090_CLIQUE""]","",""
"","","","","","audio-keyboard-response","54","134035","0.0-48.3-0.3-1.3","","null","audio_feedback/shuffles/shuffle01.mp3","null","","","0","0","90","300","[""0042_N0300_K0090_NOCLIQUE"",""0062_N0300_K0090_CLIQUE""]","",""
"","","","","","canvas-keyboard-response","55","135228","0.0-48.4-0.4-0.4","","1131",""," ","[123,128,209,92,239,50,148,156,93,54,194,155,106,289,65,224,159,255,230,247,59,24,99,38,98,217,157,63,87,234,12,36,18,280,264,294,68,179,136,35,13,23,193,287,240,33,259,226,41,204,127,52,237,219,42,271,90,81,100,118,11,0,10,282,124,80,203,207,56,285,295,171,82,197,291,102,185,168,47,57,138,187,22,298,26,141,51,28,222,299,71,263,116,231,165,199,86,145,188,244,79,258,192,1,276,249,140,69,94,184,109,70,9,288,189,275,265,152,46,105,266,7,72,89,77,5,114,196,119,178,177,216,180,270,64,227,235,274,220,246,232,49,257,233,62,149,238,6,73,78,8,75,214,210,133,223,248,34,16,273,212,3,296,154,176,37,284,245,267,83,173,228,161,272,251,66,252,169,132,242,283,277,125,4,60,134,137,174,144,97,250,58,67,261,31,151,55,170,143,150,117,206,25,262,85,200,101,186,153,48,139,111,30,213,221,254,297,29,243,218,39,183,278,286,198,160,130,195,74,21,279,112,190,205,107,84,45,27,2,17,241,201,166,181,115,40,202,44,142,290,175,96,256,268,158,225,53,167,129,253,88,164,191,32,131,43,172,182,135,281,61,120,15,236,162,146,269,104,14,292,229,260,20,91,19,113,147,163,122,76,110,121,103,95,211,208,126,293,108,215]","arrowright","0","0","90","300","[""0042_N0300_K0090_NOCLIQUE"",""0062_N0300_K0090_CLIQUE""]","",""
"","","","","","audio-keyboard-response","56","135795","0.0-48.4-0.4-1.4","","null","audio_feedback/shuffles/shuffle01.mp3","null","","","0","0","90","300","[""0042_N0300_K0090_NOCLIQUE"",""0062_N0300_K0090_CLIQUE""]","",""
"","","","","","canvas-keyboard-response","57","138121","0.0-48.5-0.5-0.5","","2242","","arrowright","[234,36,299,87,1,287,65,89,207,53,126,17,123,149,44,237,171,274,193,280,258,55,122,9,64,18,129,105,292,0,275,254,150,35,175,134,187,99,220,250,227,79,197,216,174,27,141,199,15,46,165,209,248,272,279,242,111,5,47,269,48,73,295,260,162,2,110,131,224,232,225,91,132,182,31,67,222,247,75,125,239,54,103,194,21,144,173,290,289,243,184,74,218,83,16,92,4,20,230,219,228,145,246,168,160,183,60,104,298,266,45,153,164,77,14,107,119,203,169,204,148,135,29,28,157,71,33,88,177,214,198,34,51,201,233,278,93,52,253,57,128,257,172,38,22,206,283,11,49,37,252,50,3,72,236,84,80,277,255,286,58,176,68,263,66,180,163,297,256,127,114,267,291,124,6,223,62,115,32,261,96,78,238,265,161,192,56,154,215,13,61,30,95,190,270,231,156,273,137,133,259,23,210,26,191,213,140,202,43,276,205,101,25,94,284,188,158,41,138,143,245,282,117,181,76,235,139,147,118,102,241,195,121,208,136,152,69,229,166,251,186,293,211,240,170,81,217,100,109,10,151,200,288,42,296,159,285,146,196,271,221,212,179,116,189,268,142,12,90,86,178,39,85,7,264,19,262,113,40,226,167,120,59,185,155,281,8,63,249,70,112,294,106,97,98,244,82,24,108,130]","arrowright","0","0","90","300","[""0042_N0300_K0090_NOCLIQUE"",""0062_N0300_K0090_CLIQUE""]","","true"
"","","","","","audio-keyboard-response","58","138555","0.0-48.5-0.5-1.5","","null","audio_feedback/right/coin01.mp3","null","","","0","0","90","300","[""0042_N0300_K0090_NOCLIQUE"",""0062_N0300_K0090_CLIQUE""]","",""
"","","","","","canvas-keyboard-response","59","140984","0.0-49.0-0.0-0.0","","2365","","arrowright","[197,145,234,107,15,174,76,292,250,119,71,157,124,159,66,131,238,88,244,241,252,245,171,11,190,168,82,42,290,208,141,294,153,147,213,139,158,34,7,43,189,144,286,260,267,36,39,0,95,272,23,96,60,253,117,299,172,29,63,199,133,20,118,138,72,167,3,135,33,155,19,67,257,163,123,276,279,126,239,8,152,285,150,258,178,85,109,83,182,264,81,198,289,240,48,246,114,261,195,132,201,41,44,231,122,80,130,68,101,53,262,284,31,186,106,204,161,298,108,37,223,228,4,263,191,35,22,100,219,113,27,288,165,28,206,99,247,230,90,110,179,125,49,278,222,160,226,12,193,151,142,254,21,212,282,128,148,217,92,270,51,232,251,47,116,56,137,17,154,61,273,218,175,177,269,295,55,143,203,296,181,75,89,121,277,291,40,162,180,105,91,129,112,202,211,94,170,6,98,164,46,185,281,216,74,86,59,57,77,62,93,127,287,233,54,210,115,183,205,65,187,87,221,297,24,214,220,156,104,280,78,229,224,184,243,194,5,140,134,13,275,45,52,188,120,73,102,169,136,1,249,266,259,227,265,50,79,26,215,225,58,237,70,30,14,268,242,146,293,166,32,274,18,176,255,235,2,10,69,9,84,192,64,97,38,236,283,196,111,16,207,271,149,103,25,256,248,200,209,173]","arrowright","0","1","90","300","[""0050_N0300_K0090_NOCLIQUE"",""0008_N0300_K0090_CLIQUE""]","","true"
"","","","","","audio-keyboard-response","60","141395","0.0-49.0-0.0-1.0","","null","audio_feedback/right/coin01.mp3","null","","","0","1","90","300","[""0050_N0300_K0090_NOCLIQUE"",""0008_N0300_K0090_CLIQUE""]","",""
"","","","","","canvas-keyboard-response","61","142483","0.0-50.0-0.0-0.0","","1020",""," ","[151,293,42,1,198,296,64,90,278,215,98,99,193,140,97,36,169,250,78,229,70,123,82,10,272,134,130,231,254,178,246,222,282,285,34,238,173,192,62,266,156,3,209,205,46,182,19,6,230,221,165,138,45,297,223,203,15,145,137,103,54,189,214,13,44,244,129,104,14,117,109,11,264,135,279,32,23,85,58,148,88,21,124,39,289,4,283,213,245,179,242,255,29,186,170,17,108,291,35,267,160,249,47,280,55,81,110,206,225,38,211,126,197,208,9,290,154,101,114,184,91,163,171,53,72,143,157,83,128,43,33,175,260,247,73,262,92,133,87,194,159,235,102,25,181,37,18,118,195,258,77,144,190,200,153,150,263,261,71,268,199,180,275,216,152,251,52,187,30,224,257,132,31,131,41,220,50,115,286,228,79,237,233,217,56,219,259,48,122,60,226,22,127,299,185,158,276,196,66,167,191,2,94,218,298,292,248,20,147,274,111,100,183,287,28,207,116,172,241,119,243,141,146,201,120,67,95,84,176,239,168,294,277,80,89,271,210,63,112,295,125,105,113,86,96,139,5,202,7,227,65,121,162,40,204,57,177,232,269,164,281,273,107,27,59,136,106,284,69,256,234,188,93,142,16,174,76,51,61,155,0,68,288,270,166,236,8,74,49,75,161,240,149,24,12,212,253,26,252,265]","arrowleft","0","2","80","300","[""0035_N0300_K0080_CLIQUE"",""0050_N0300_K0080_NOCLIQUE""]","",""
"","","","","","audio-keyboard-response","62","143053","0.0-50.0-0.0-1.0","","null","audio_feedback/shuffles/shuffle01.mp3","null","","","0","2","80","300","[""0035_N0300_K0080_CLIQUE"",""0050_N0300_K0080_NOCLIQUE""]","",""
"","","","","","canvas-keyboard-response","63","144295","0.0-50.1-0.1-0.1","","1182","","arrowleft","[156,175,83,227,105,13,121,61,126,138,161,235,137,4,63,263,108,55,23,239,198,260,84,253,110,39,236,149,176,114,49,256,169,278,162,243,144,66,170,43,104,125,37,42,111,269,17,56,140,219,99,21,196,268,216,257,179,194,299,107,132,87,58,38,255,204,5,141,271,291,109,167,171,174,199,80,288,150,259,246,100,265,136,57,62,25,228,275,158,232,217,147,31,135,298,128,229,252,177,296,163,46,48,168,220,59,75,157,266,26,184,214,97,74,29,264,191,248,143,189,180,41,218,50,85,27,282,290,165,283,71,101,119,65,222,238,286,190,281,262,0,193,241,129,52,123,293,91,54,186,249,12,231,3,120,250,181,106,242,93,19,254,202,225,9,273,261,127,102,7,94,151,51,30,292,289,142,15,160,139,295,86,146,78,8,64,251,237,274,115,270,117,67,207,20,280,200,81,258,6,267,2,183,34,28,272,233,103,145,96,60,172,277,45,73,294,24,159,124,95,32,155,211,284,152,245,76,213,14,118,134,130,244,90,182,98,164,68,70,197,203,188,122,285,208,287,10,247,47,192,240,223,53,210,88,44,212,22,221,201,166,209,215,79,234,116,69,279,226,92,131,33,16,133,187,276,112,113,153,230,154,195,40,82,206,77,297,224,185,173,178,72,18,1,35,36,148,89,11,205]","arrowleft","0","2","80","300","[""0035_N0300_K0080_CLIQUE"",""0050_N0300_K0080_NOCLIQUE""]","","true"
"","","","","","audio-keyboard-response","64","144715","0.0-50.1-0.1-1.1","","null","audio_feedback/right/coin01.mp3","null","","","0","2","80","300","[""0035_N0300_K0080_CLIQUE"",""0050_N0300_K0080_NOCLIQUE""]","",""
"","","","","","canvas-keyboard-response","65","149637","0.0-51.0-0.0-0.0","","4842","","arrowleft","[232,98,295,177,210,12,227,207,167,241,1,20,37,138,202,192,259,66,260,81,161,22,224,76,208,290,294,74,251,258,276,179,247,106,279,220,291,86,188,181,166,197,272,28,256,142,288,185,193,34,212,239,91,183,122,118,186,53,205,51,26,151,92,215,115,148,270,40,191,201,198,146,252,283,137,64,72,218,136,275,116,174,211,155,139,282,4,5,277,55,62,271,48,79,265,182,223,29,8,126,180,219,244,254,39,43,249,269,200,113,250,171,266,150,88,297,165,293,50,158,132,9,84,58,262,274,100,99,119,233,41,298,203,21,7,267,163,32,83,117,31,110,65,87,61,284,225,73,213,278,25,97,108,95,121,226,30,93,296,152,236,154,10,248,129,71,67,105,24,54,120,286,69,107,169,75,164,264,45,49,140,187,18,287,189,38,14,245,162,0,195,3,101,47,89,6,94,102,77,56,131,111,217,127,141,156,173,143,285,176,280,70,63,268,190,261,263,96,78,216,255,257,234,11,206,2,153,133,145,19,168,281,16,246,184,240,44,299,289,36,13,194,27,124,15,253,46,243,114,292,35,68,144,125,123,134,229,221,109,112,128,85,52,230,103,160,235,157,273,42,237,60,196,214,231,59,175,149,135,33,57,199,104,17,147,242,209,228,23,82,90,238,172,204,130,222,178,80,159,170]","arrowleft","0","3","80","300","[""0083_N0300_K0080_CLIQUE"",""0007_N0300_K0080_NOCLIQUE""]","","true"
"","","","","","audio-keyboard-response","66","150055","0.0-51.0-0.0-1.0","","null","audio_feedback/right/coin01.mp3","null","","","0","3","80","300","[""0083_N0300_K0080_CLIQUE"",""0007_N0300_K0080_NOCLIQUE""]","",""
"","","","","","canvas-keyboard-response","67","151381","0.0-52.0-0.0-0.0","","1245",""," ","[96,294,250,172,42,297,287,209,253,296,201,235,186,268,67,202,265,161,101,0,100,137,180,152,157,218,98,106,16,254,36,193,5,133,18,24,72,114,112,260,63,142,280,89,83,262,230,41,204,86,159,257,121,26,203,148,245,118,21,229,232,214,242,169,216,47,163,288,81,128,191,251,187,27,129,170,6,272,31,138,143,289,34,84,219,40,130,49,224,35,109,119,285,79,64,154,168,247,274,19,15,74,207,165,132,249,192,75,71,236,293,28,150,299,176,110,183,166,85,125,167,76,290,269,223,111,20,198,141,7,25,240,127,221,92,271,158,82,226,156,255,29,116,113,59,104,259,277,273,33,3,38,65,211,123,61,246,196,261,22,70,135,147,295,220,292,144,206,8,62,188,164,199,298,32,281,200,162,120,94,57,160,181,2,239,77,78,146,178,213,233,17,54,175,208,139,1,43,155,117,97,238,73,103,45,51,217,282,286,48,122,275,134,50,151,136,212,190,210,11,10,145,195,264,90,278,258,23,66,291,105,12,46,115,215,140,231,283,102,107,179,267,153,55,131,279,182,184,69,91,234,244,87,222,194,241,9,173,95,270,197,56,284,252,185,58,60,189,126,225,39,30,237,266,228,149,243,88,93,37,263,4,80,124,205,52,99,171,177,227,276,44,13,53,108,68,256,14,248,174]","arrowright","0","4","70","300","[""0012_N0300_K0070_NOCLIQUE"",""0074_N0300_K0070_CLIQUE""]","",""
"","","","","","audio-keyboard-response","68","151953","0.0-52.0-0.0-1.0","","null","audio_feedback/shuffles/shuffle01.mp3","null","","","0","4","70","300","[""0012_N0300_K0070_NOCLIQUE"",""0074_N0300_K0070_CLIQUE""]","",""
"","","","","","canvas-keyboard-response","69","153482","0.0-52.1-0.1-0.1","","1471","","arrowright","[155,98,73,297,20,264,289,51,150,144,3,5,255,106,184,62,232,21,32,81,25,186,274,152,143,270,142,101,229,113,107,154,237,75,179,207,175,258,125,132,55,226,194,43,15,103,124,100,2,284,210,225,167,134,116,169,224,275,36,282,201,131,139,287,220,65,158,42,181,67,177,4,256,18,260,227,157,88,17,31,85,204,84,187,33,265,66,114,70,105,110,94,170,228,161,290,269,128,240,129,173,76,248,118,216,178,46,52,230,145,83,8,296,9,54,135,189,13,172,53,37,171,221,285,80,277,234,193,24,38,28,153,133,254,23,195,253,267,102,190,251,86,198,97,241,10,183,247,271,34,208,95,71,261,283,40,212,299,99,57,298,27,259,122,200,164,82,96,91,39,141,205,162,72,56,121,119,92,166,127,217,159,11,196,6,22,238,115,185,213,291,231,211,286,268,69,233,246,252,223,59,273,222,136,214,108,93,176,262,278,29,35,63,109,202,89,288,249,280,41,87,180,236,293,50,245,1,151,137,148,130,58,281,147,138,123,112,78,74,219,149,61,156,111,30,206,292,276,120,163,68,174,235,294,19,295,192,16,64,60,244,48,7,257,168,140,266,47,104,14,49,197,79,218,146,242,191,279,165,26,209,45,182,263,199,126,243,272,117,0,188,44,160,203,77,215,90,239,12,250]","arrowright","0","4","70","300","[""0012_N0300_K0070_NOCLIQUE"",""0074_N0300_K0070_CLIQUE""]","","true"
"","","","","","audio-keyboard-response","70","153895","0.0-52.1-0.1-1.1","","null","audio_feedback/right/coin01.mp3","null","","","0","4","70","300","[""0012_N0300_K0070_NOCLIQUE"",""0074_N0300_K0070_CLIQUE""]","",""
"","","","","","canvas-keyboard-response","71","155529","0.0-53.0-0.0-0.0","","1553",""," ","[224,114,75,147,178,277,22,118,11,98,167,79,231,52,223,86,297,200,73,205,207,148,0,130,10,239,287,25,190,15,259,175,94,154,293,250,107,196,90,50,62,230,215,273,134,19,162,210,7,21,116,92,63,296,42,88,26,188,85,103,35,195,252,17,197,221,271,251,47,280,163,256,127,46,204,81,139,155,58,193,263,78,156,136,71,262,128,160,133,142,219,74,281,173,177,151,226,278,152,69,238,240,33,27,264,283,51,299,44,253,131,220,124,214,5,232,41,138,14,217,37,119,237,110,99,170,270,6,80,45,112,184,269,77,31,168,117,206,1,199,189,158,54,246,249,192,222,100,93,59,291,265,56,120,13,233,183,36,40,228,202,174,268,30,213,20,135,209,258,109,55,274,34,182,83,108,65,122,137,279,201,288,84,272,254,132,169,166,115,243,129,96,248,61,172,229,105,101,194,255,295,144,60,9,89,276,2,225,298,266,275,43,216,292,57,245,70,146,106,97,123,191,82,286,290,4,32,28,289,16,260,38,198,3,68,261,145,140,95,143,113,212,244,284,282,66,179,176,8,164,149,294,181,208,218,227,159,91,53,247,29,87,234,126,180,185,72,153,39,24,161,76,64,111,242,121,150,285,23,49,102,171,257,187,157,236,235,125,267,104,48,67,141,12,186,211,203,165,18,241]","arrowleft","0","5","70","300","[""0059_N0300_K0070_CLIQUE"",""0041_N0300_K0070_NOCLIQUE""]","",""
"","","","","","audio-keyboard-response","72","156093","0.0-53.0-0.0-1.0","","null","audio_feedback/shuffles/shuffle01.mp3","null","","","0","5","70","300","[""0059_N0300_K0070_CLIQUE"",""0041_N0300_K0070_NOCLIQUE""]","",""
"","","","","","canvas-keyboard-response","73","159853","0.0-53.1-0.1-0.1","","3700",""," ","[233,9,121,1,255,280,68,278,12,203,180,214,160,147,247,52,224,74,33,207,93,84,196,192,14,37,159,85,53,64,133,58,16,109,108,23,232,267,142,198,238,213,235,208,276,46,218,55,102,29,285,241,299,178,103,91,275,168,48,154,17,67,0,234,229,63,56,41,117,244,184,272,259,95,143,197,236,201,92,146,262,211,128,79,5,231,284,222,248,100,99,227,291,101,87,2,169,149,126,15,215,186,297,98,155,132,124,60,20,217,42,245,27,57,39,190,140,246,40,51,289,177,134,71,294,242,116,105,182,237,279,183,157,165,273,45,50,209,230,254,250,171,110,221,88,25,219,6,270,266,86,120,292,156,206,21,150,188,185,210,125,240,3,44,4,264,243,163,112,61,277,268,166,170,181,13,191,202,239,11,22,258,204,19,252,129,138,65,205,127,36,223,228,293,135,106,131,7,193,30,200,145,286,115,282,43,139,257,298,38,263,113,111,89,114,94,265,271,75,72,130,18,73,49,152,167,31,104,249,251,253,174,287,137,281,283,216,164,296,83,97,187,212,66,35,70,261,119,62,148,47,8,158,269,195,24,28,175,82,151,69,90,123,136,194,173,220,179,78,274,107,260,290,122,54,172,76,225,26,81,118,162,59,176,153,77,256,141,226,295,32,34,80,144,189,10,96,161,288,199]","arrowleft","0","5","70","300","[""0059_N0300_K0070_CLIQUE"",""0041_N0300_K0070_NOCLIQUE""]","",""
"","","","","","audio-keyboard-response","74","160435","0.0-53.1-0.1-1.1","","null","audio_feedback/shuffles/shuffle01.mp3","null","","","0","5","70","300","[""0059_N0300_K0070_CLIQUE"",""0041_N0300_K0070_NOCLIQUE""]","",""
"","","","","","canvas-keyboard-response","75","163307","0.0-53.2-0.2-0.2","","2809","","arrowleft","[246,193,173,143,83,191,98,81,31,50,205,44,226,148,68,177,162,127,183,26,261,290,42,159,171,5,298,141,125,235,292,54,62,113,75,234,100,84,252,250,94,188,240,53,273,200,152,221,206,231,57,244,59,296,12,79,43,49,154,174,258,118,219,131,248,170,295,198,146,291,268,222,208,147,262,63,217,88,37,13,22,229,239,111,242,175,121,17,47,58,52,179,218,65,249,110,20,299,288,156,276,41,140,2,224,114,180,272,251,6,286,69,209,29,82,135,109,25,116,197,169,3,133,38,257,130,78,16,280,7,96,137,285,104,196,255,45,297,278,139,238,92,132,105,56,204,119,89,67,87,138,115,164,48,86,213,189,233,80,134,168,185,265,150,199,165,10,243,77,212,284,202,264,136,27,161,55,66,4,178,230,19,24,194,237,14,76,253,117,190,122,232,106,195,74,103,160,97,129,274,35,163,124,120,36,72,144,0,266,267,85,283,289,30,277,259,145,228,282,46,64,227,254,128,275,236,216,245,215,11,107,203,32,210,269,211,214,51,294,223,155,93,151,60,9,260,207,201,176,73,270,70,158,256,293,192,40,166,18,241,186,126,220,153,91,281,28,187,61,1,263,34,112,71,101,39,149,123,99,157,95,287,225,33,247,172,108,167,271,184,23,102,90,8,182,279,21,142,181,15]","arrowleft","0","5","70","300","[""0059_N0300_K0070_CLIQUE"",""0041_N0300_K0070_NOCLIQUE""]","","true"
"","","","","","audio-keyboard-response","76","163716","0.0-53.2-0.2-1.2","","null","audio_feedback/right/coin01.mp3","null","","","0","5","70","300","[""0059_N0300_K0070_CLIQUE"",""0041_N0300_K0070_NOCLIQUE""]","",""
"","","","","","canvas-keyboard-response","77","166077","0.0-54.0-0.0-0.0","","2254",""," ","[108,191,88,287,164,213,284,137,229,223,177,242,230,37,28,135,30,105,91,71,243,275,25,218,160,147,52,83,44,193,60,248,276,217,78,273,93,92,9,228,268,23,155,10,109,94,249,182,95,127,194,245,75,62,208,18,185,220,7,201,236,120,123,176,53,57,40,34,148,190,174,136,76,144,181,271,167,251,298,158,56,51,68,59,255,186,106,82,157,126,6,128,222,263,270,203,15,257,12,31,114,232,17,219,140,277,170,153,32,231,55,278,132,293,204,252,227,130,54,63,58,99,264,247,289,283,129,206,77,104,180,161,73,152,119,166,189,281,0,172,118,143,1,226,290,138,21,260,24,3,101,199,80,64,265,107,85,197,49,285,117,184,46,111,124,282,39,173,280,121,295,256,159,4,209,42,38,292,253,168,112,90,150,244,5,70,269,297,299,96,239,162,149,61,97,87,274,142,102,22,151,72,267,221,286,74,246,89,14,254,131,258,139,35,110,235,115,192,211,250,202,215,183,163,296,100,165,103,212,179,26,8,43,36,205,210,141,225,47,19,279,134,13,67,41,154,65,198,79,33,216,195,16,27,133,116,240,11,146,294,187,169,50,48,238,145,156,86,20,272,2,291,171,234,45,196,262,288,261,224,113,188,237,69,175,178,81,207,214,98,29,200,266,241,66,84,122,259,233,125]","arrowleft","0","6","65","300","[""0042_N0300_K0065_CLIQUE"",""0061_N0300_K0065_NOCLIQUE""]","",""
"","","","","","audio-keyboard-response","78","166655","0.0-54.0-0.0-1.0","","null","audio_feedback/shuffles/shuffle01.mp3","null","","","0","6","65","300","[""0042_N0300_K0065_CLIQUE"",""0061_N0300_K0065_NOCLIQUE""]","",""
"","","","","","canvas-keyboard-response","79","167563","0.0-54.1-0.1-0.1","","846",""," ","[150,182,57,174,93,167,183,145,290,200,149,100,110,230,190,24,58,144,278,232,296,17,286,27,82,116,208,169,171,107,287,223,89,192,59,299,256,61,210,26,127,163,79,158,103,197,236,88,72,109,215,153,135,219,157,250,220,198,159,115,16,242,140,204,10,42,5,141,218,152,240,39,168,119,222,112,22,86,185,134,51,257,205,46,121,234,267,53,138,260,98,56,297,55,191,15,125,266,92,96,31,95,206,249,259,13,154,292,288,63,279,211,289,151,226,1,148,283,34,252,123,129,173,253,91,65,108,8,235,106,84,276,139,3,28,229,74,298,155,130,75,131,285,80,161,181,265,66,237,73,189,29,269,199,97,291,245,193,25,137,64,179,102,261,20,227,231,70,294,177,124,282,67,122,243,221,90,6,217,85,23,213,50,268,33,241,52,175,132,49,263,136,30,272,225,36,239,126,170,14,188,262,60,165,273,104,274,0,251,35,277,9,281,203,164,19,118,228,187,238,233,254,4,184,172,87,47,247,271,255,142,117,216,133,293,114,143,244,186,76,224,146,62,201,2,37,195,38,41,83,111,81,248,246,212,45,77,258,69,94,21,270,160,176,11,166,7,275,128,162,194,209,214,101,284,12,48,147,120,207,280,196,18,99,44,295,40,54,32,68,156,113,178,71,78,105,180,264,43,202]","arrowleft","0","6","65","300","[""0042_N0300_K0065_CLIQUE"",""0061_N0300_K0065_NOCLIQUE""]","",""
"","","","","","audio-keyboard-response","80","168133","0.0-54.1-0.1-1.1","","null","audio_feedback/shuffles/shuffle01.mp3","null","","","0","6","65","300","[""0042_N0300_K0065_CLIQUE"",""0061_N0300_K0065_NOCLIQUE""]","",""
"","","","","","canvas-keyboard-response","81","169214","0.0-54.2-0.2-0.2","","1025",""," ","[110,97,262,63,215,24,154,19,297,237,236,173,46,95,240,247,115,295,32,72,208,225,289,104,116,34,259,133,293,100,165,294,106,233,276,258,137,198,298,253,13,249,279,37,150,209,151,59,273,194,139,38,31,256,107,241,175,269,191,218,84,74,243,33,22,68,287,17,251,114,11,118,117,288,219,4,12,75,120,145,149,41,55,264,182,286,64,131,230,14,94,171,125,90,206,213,187,204,183,274,123,53,277,290,281,6,170,130,254,141,164,271,79,3,136,226,52,20,156,224,138,112,252,266,169,248,102,178,152,86,122,278,211,16,197,217,113,267,15,36,69,76,61,216,160,148,23,9,80,40,275,199,96,195,30,212,234,265,108,257,179,56,161,220,49,121,203,260,221,192,282,26,214,109,186,263,255,284,83,0,42,91,147,189,67,126,202,232,7,54,87,45,60,155,128,127,89,143,65,101,39,98,144,167,129,25,270,124,176,291,8,200,2,21,163,283,58,244,43,238,190,180,142,153,132,92,177,103,185,261,268,296,93,222,134,205,188,47,66,111,250,172,292,81,239,201,231,227,105,159,77,71,228,285,246,88,272,10,223,242,210,48,99,235,27,57,29,5,196,44,168,1,135,82,193,229,157,73,78,174,18,140,207,50,85,184,245,28,162,70,181,280,146,62,299,166,119,51,35,158]","arrowleft","0","6","65","300","[""0042_N0300_K0065_CLIQUE"",""0061_N0300_K0065_NOCLIQUE""]","",""
"","","","","","audio-keyboard-response","82","169795","0.0-54.2-0.2-1.2","","null","audio_feedback/shuffles/shuffle01.mp3","null","","","0","6","65","300","[""0042_N0300_K0065_CLIQUE"",""0061_N0300_K0065_NOCLIQUE""]","",""
"","","","","","canvas-keyboard-response","83","171388","0.0-54.3-0.3-0.3","","1526",""," ","[249,126,226,52,2,241,149,44,173,262,252,13,25,155,184,180,213,156,101,128,114,79,207,117,124,259,197,119,282,292,176,111,266,127,291,190,41,19,61,221,167,115,97,299,53,109,202,264,270,229,209,8,92,6,5,178,93,201,211,276,40,29,32,160,296,275,235,77,102,164,205,87,245,273,290,294,84,88,189,42,73,26,11,10,200,204,37,49,230,258,91,72,194,166,107,47,57,251,280,51,141,142,214,90,34,223,125,140,67,174,203,68,135,86,165,113,76,159,130,146,58,158,137,218,231,238,219,284,228,281,4,59,60,45,118,199,78,74,96,134,110,188,148,279,179,33,22,287,27,39,75,36,18,242,56,254,23,283,247,3,261,21,16,232,64,98,71,129,212,240,152,105,85,122,153,132,62,69,234,295,145,227,112,133,191,20,206,100,215,278,293,274,81,143,248,89,162,123,239,138,150,154,216,30,116,66,50,243,181,185,187,31,210,272,70,175,186,35,12,298,104,147,38,163,139,288,182,244,7,171,268,224,169,43,246,286,250,14,195,15,120,265,297,80,151,82,63,267,83,48,198,144,255,256,55,253,269,46,193,177,271,196,168,24,192,0,285,289,260,131,237,28,236,17,108,277,1,157,161,9,257,54,217,222,121,220,183,172,65,233,94,99,208,170,225,103,106,136,95,263]","arrowleft","0","6","65","300","[""0042_N0300_K0065_CLIQUE"",""0061_N0300_K0065_NOCLIQUE""]","",""
"","","","","","audio-keyboard-response","84","171955","0.0-54.3-0.3-1.3","","null","audio_feedback/shuffles/shuffle01.mp3","null","","","0","6","65","300","[""0042_N0300_K0065_CLIQUE"",""0061_N0300_K0065_NOCLIQUE""]","",""
"","","","","","canvas-keyboard-response","85","174146","0.0-54.4-0.4-0.4","","2131","","arrowleft","[39,94,136,195,167,155,227,104,247,99,150,219,3,88,238,29,86,75,92,217,6,138,66,272,8,112,46,152,236,192,105,254,103,68,262,82,21,248,271,209,246,147,220,137,299,116,141,265,196,156,183,54,53,48,131,80,84,297,163,206,212,128,225,60,278,197,230,157,69,153,25,57,37,62,28,294,49,74,191,176,17,18,109,295,55,177,170,261,203,65,93,15,256,45,169,274,126,285,117,97,205,234,42,61,135,231,113,110,269,224,268,31,283,245,211,244,50,79,19,148,38,44,260,250,144,249,221,189,63,243,7,114,280,107,161,182,142,298,58,284,70,12,96,0,89,173,207,267,14,184,102,10,154,178,101,78,186,119,166,118,134,87,132,16,202,9,174,242,198,270,275,40,180,208,20,290,32,289,90,164,171,129,41,293,281,73,4,223,181,24,139,71,279,77,27,146,175,64,34,98,296,1,106,288,252,214,81,264,85,120,213,59,23,111,33,216,149,43,159,122,257,123,36,258,273,263,172,239,291,52,259,218,228,235,56,185,145,160,130,151,47,255,253,266,276,72,115,215,26,100,76,165,83,22,226,143,35,125,121,237,240,187,277,91,282,233,199,200,127,11,13,95,286,287,108,210,2,194,162,67,30,140,229,251,5,201,158,241,179,124,133,222,188,232,51,292,190,193,168,204]","arrowleft","0","6","65","300","[""0042_N0300_K0065_CLIQUE"",""0061_N0300_K0065_NOCLIQUE""]","","true"
"","","","","","audio-keyboard-response","86","174555","0.0-54.4-0.4-1.4","","null","audio_feedback/right/coin01.mp3","null","","","0","6","65","300","[""0042_N0300_K0065_CLIQUE"",""0061_N0300_K0065_NOCLIQUE""]","",""
"","","","","","canvas-keyboard-response","87","175785","0.0-55.0-0.0-0.0","","1150",""," ","[49,293,145,53,211,271,37,148,279,105,79,151,219,181,272,46,169,75,289,222,126,24,23,142,163,225,268,122,125,128,146,140,101,44,266,207,113,221,180,137,5,22,224,70,176,131,43,209,73,87,90,274,12,277,171,28,76,241,232,288,103,104,214,189,115,240,238,17,267,161,183,175,144,179,66,184,168,85,64,7,110,152,86,89,278,273,95,228,205,192,25,286,159,270,280,107,160,269,218,33,285,32,109,4,239,147,111,196,297,47,200,134,237,264,106,16,182,100,185,72,21,138,157,97,263,58,6,129,41,84,149,56,292,141,229,130,162,262,51,212,226,195,276,2,283,197,233,118,55,14,227,170,174,287,202,166,198,120,243,156,281,45,35,62,39,40,121,294,245,204,215,242,0,18,172,257,208,99,252,201,216,119,29,65,191,74,150,235,178,158,193,69,154,48,80,8,194,206,282,203,26,136,244,135,223,59,108,57,298,143,275,92,50,265,246,60,34,112,231,164,36,114,19,167,31,236,260,3,82,1,187,295,253,20,124,13,173,153,251,127,88,255,259,42,38,71,256,63,139,217,250,249,83,11,247,96,54,61,230,234,123,254,15,296,27,102,299,133,30,190,78,77,94,188,91,291,132,213,93,155,68,210,290,98,248,199,165,177,284,52,117,186,10,81,9,116,220,261,258,67]","arrowleft","0","7","65","300","[""0085_N0300_K0065_CLIQUE"",""0096_N0300_K0065_NOCLIQUE""]","",""
"","","","","","audio-keyboard-response","88","176355","0.0-55.0-0.0-1.0","","null","audio_feedback/shuffles/shuffle01.mp3","null","","","0","7","65","300","[""0085_N0300_K0065_CLIQUE"",""0096_N0300_K0065_NOCLIQUE""]","",""
"","","","","","canvas-keyboard-response","89","178659","0.0-55.1-0.1-0.1","","2244",""," ","[226,119,28,292,293,257,252,91,16,205,56,101,154,273,107,125,73,108,180,70,115,6,84,190,68,254,80,224,260,45,139,287,233,152,291,122,258,225,266,32,105,58,99,44,263,1,283,151,49,39,18,3,60,207,217,52,176,100,130,264,24,165,173,297,66,87,237,261,128,0,156,31,38,48,40,144,268,169,47,85,57,251,13,246,59,236,46,284,43,141,203,188,61,127,298,98,189,290,272,271,42,67,51,223,110,199,192,96,228,175,142,174,102,259,116,193,285,181,241,201,155,230,171,25,262,250,41,93,10,269,83,150,5,64,227,86,89,62,275,97,126,104,11,146,179,170,200,50,286,69,231,243,206,113,76,137,120,177,20,111,295,136,132,72,220,182,178,147,186,114,160,65,7,248,19,63,244,159,185,208,289,296,163,242,14,216,71,135,221,168,277,194,213,53,196,235,198,187,214,172,134,282,209,215,112,222,121,27,234,195,211,239,92,256,167,117,81,29,9,232,183,4,36,8,77,276,166,23,153,280,54,299,158,245,265,247,249,26,267,143,124,90,229,74,145,133,34,288,219,255,131,17,281,274,79,157,15,88,204,197,210,30,55,278,37,148,253,164,2,238,35,95,191,279,202,123,184,82,103,33,149,270,212,78,161,22,218,109,162,12,140,294,75,138,240,106,118,21,129,94]","arrowleft","0","7","65","300","[""0085_N0300_K0065_CLIQUE"",""0096_N0300_K0065_NOCLIQUE""]","",""
"","","","","","audio-keyboard-response","90","179235","0.0-55.1-0.1-1.1","","null","audio_feedback/shuffles/shuffle01.mp3","null","","","0","7","65","300","[""0085_N0300_K0065_CLIQUE"",""0096_N0300_K0065_NOCLIQUE""]","",""
"","","","","","canvas-keyboard-response","91","180562","0.0-55.2-0.2-0.2","","1243",""," ","[12,4,177,228,218,198,174,296,211,66,179,241,78,143,216,250,74,286,117,7,207,230,178,6,152,154,284,283,119,68,265,153,73,145,98,233,109,170,268,20,187,97,26,132,29,60,86,249,202,166,140,267,99,31,219,49,288,280,240,47,131,0,298,59,226,253,188,220,155,93,164,96,118,217,161,79,83,221,245,234,129,244,254,135,121,75,112,294,235,17,5,94,64,124,182,134,229,8,71,108,194,87,46,263,40,282,35,271,34,91,110,258,33,28,255,63,37,193,1,171,180,157,62,55,137,292,76,165,215,48,200,23,43,30,126,50,101,90,181,10,3,295,14,141,139,274,95,167,104,299,293,72,237,52,77,61,205,225,57,277,113,279,111,158,56,130,147,58,38,261,209,114,144,127,210,36,297,231,163,278,24,169,123,213,148,85,84,54,156,133,203,27,186,16,160,176,41,51,65,53,199,184,11,285,236,185,290,81,281,243,162,105,103,270,287,138,289,21,82,149,18,273,120,201,70,168,262,69,212,100,45,39,239,159,125,13,92,150,22,89,238,291,107,173,106,42,275,2,190,25,151,172,252,15,142,88,115,276,19,251,183,214,44,256,128,227,196,189,191,266,269,67,195,122,192,224,272,206,222,146,248,246,232,223,264,175,247,208,260,242,259,136,197,116,32,9,257,204,80,102]","arrowleft","0","7","65","300","[""0085_N0300_K0065_CLIQUE"",""0096_N0300_K0065_NOCLIQUE""]","",""
"","","","","","audio-keyboard-response","92","181133","0.0-55.2-0.2-1.2","","null","audio_feedback/shuffles/shuffle01.mp3","null","","","0","7","65","300","[""0085_N0300_K0065_CLIQUE"",""0096_N0300_K0065_NOCLIQUE""]","",""
"","","","","","canvas-keyboard-response","93","183246","0.0-55.3-0.3-0.3","","2050",""," ","[70,38,175,63,25,44,297,287,268,34,219,207,86,40,115,187,211,199,99,295,202,222,154,281,82,254,241,216,176,291,21,256,258,237,151,147,14,56,140,193,236,22,3,109,210,117,251,220,215,192,221,87,273,107,148,28,299,218,123,223,248,12,46,7,139,174,197,173,124,209,183,95,259,41,5,179,226,294,155,58,112,116,240,111,204,170,79,249,230,182,253,126,23,166,283,144,247,114,19,238,30,65,262,16,163,196,278,47,255,269,64,277,234,271,24,152,205,26,201,244,83,189,89,101,250,149,228,48,93,71,153,130,27,227,128,171,158,54,164,32,165,33,0,121,75,66,50,141,284,13,270,232,94,157,279,181,20,134,110,206,190,104,108,85,257,88,280,261,265,288,200,195,51,80,231,57,293,274,229,102,191,264,29,55,203,245,150,78,217,185,103,53,275,239,214,135,177,224,276,131,188,8,69,208,35,62,292,2,113,105,266,9,129,138,172,92,252,184,17,243,169,18,73,60,282,31,161,127,145,286,61,125,212,186,194,43,142,11,162,137,118,178,272,49,15,156,91,10,180,72,36,97,42,246,235,198,120,6,167,132,122,289,77,298,96,84,146,260,133,267,68,168,1,213,100,67,37,52,74,119,233,290,159,242,76,90,160,225,45,106,59,296,136,98,39,81,143,285,263,4]","arrowleft","0","7","65","300","[""0085_N0300_K0065_CLIQUE"",""0096_N0300_K0065_NOCLIQUE""]","",""
"","","","","","audio-keyboard-response","94","183813","0.0-55.3-0.3-1.3","","null","audio_feedback/shuffles/shuffle01.mp3","null","","","0","7","65","300","[""0085_N0300_K0065_CLIQUE"",""0096_N0300_K0065_NOCLIQUE""]","",""
"","","","","","canvas-keyboard-response","95","185995","0.0-55.4-0.4-0.4","","2116",""," ","[254,230,287,199,59,196,22,240,166,195,208,127,86,226,205,108,164,170,10,223,137,119,78,224,222,239,295,75,29,156,258,148,92,93,33,32,136,284,11,141,71,200,177,203,122,206,211,237,143,64,114,154,204,133,175,54,261,250,201,47,49,202,24,262,274,65,28,188,99,209,105,102,140,14,38,19,253,107,184,151,264,272,193,165,52,245,293,247,180,132,131,90,271,169,83,213,260,172,70,44,74,97,176,118,113,0,112,238,130,158,6,197,76,207,275,147,273,17,160,94,111,299,210,256,292,144,162,233,41,243,251,121,48,63,217,228,100,73,285,246,263,18,281,278,69,159,282,72,234,267,45,85,289,163,56,1,95,153,221,183,36,167,55,15,235,244,248,20,5,104,42,270,266,198,81,77,88,259,60,185,115,286,13,229,128,241,7,134,150,232,58,117,276,242,255,116,161,190,51,43,139,110,37,149,106,277,215,155,146,218,35,174,89,68,252,181,123,231,39,290,265,21,236,220,297,30,189,191,23,4,101,182,31,80,82,120,3,268,269,171,227,16,288,157,98,186,50,187,212,25,225,87,283,214,294,138,2,27,279,219,53,291,62,216,249,257,66,192,26,173,178,103,126,129,125,142,296,61,194,145,280,91,34,179,40,46,135,12,96,8,79,84,168,109,67,298,152,124,57,9]","arrowleft","0","7","65","300","[""0085_N0300_K0065_CLIQUE"",""0096_N0300_K0065_NOCLIQUE""]","",""
"","","","","","audio-keyboard-response","96","186573","0.0-55.4-0.4-1.4","","null","audio_feedback/shuffles/shuffle01.mp3","null","","","0","7","65","300","[""0085_N0300_K0065_CLIQUE"",""0096_N0300_K0065_NOCLIQUE""]","",""
"","","","","","canvas-keyboard-response","97","189273","0.0-55.5-0.5-0.5","","2628","","arrowleft","[152,257,127,214,258,180,244,223,267,144,47,248,34,249,87,107,12,241,112,146,272,188,220,10,269,234,268,263,67,280,129,119,8,116,124,282,9,290,136,265,32,35,133,163,288,156,151,125,275,81,130,91,296,123,284,11,166,1,86,202,168,113,271,80,287,36,228,231,153,78,39,49,131,161,251,185,40,211,155,135,60,122,73,58,29,205,6,221,149,165,7,224,197,99,143,92,44,215,227,189,154,177,72,19,54,207,38,252,159,134,104,283,96,216,62,232,139,172,254,55,167,93,237,212,25,264,45,243,66,100,21,204,126,229,83,3,253,138,206,48,176,110,145,262,42,198,88,2,102,85,242,219,158,16,71,230,293,84,279,41,109,33,182,140,178,117,128,18,260,15,53,23,193,101,208,238,82,194,24,246,46,236,31,273,213,292,118,170,217,65,299,121,286,70,148,256,26,111,183,298,297,97,255,266,261,171,203,162,259,108,191,64,184,4,247,52,89,120,186,90,75,239,103,28,195,79,51,0,192,157,142,174,285,56,61,43,201,218,190,222,68,76,137,226,50,274,74,179,5,57,209,141,164,278,235,277,30,150,37,187,281,69,173,20,14,160,295,196,210,291,22,250,199,200,181,17,106,13,289,63,245,233,225,77,132,27,105,98,270,94,114,294,95,175,169,276,59,240,115,147]","arrowleft","0","7","65","300","[""0085_N0300_K0065_CLIQUE"",""0096_N0300_K0065_NOCLIQUE""]","","true"
"","","","","","audio-keyboard-response","98","189695","0.0-55.5-0.5-1.5","","null","audio_feedback/right/coin01.mp3","null","","","0","7","65","300","[""0085_N0300_K0065_CLIQUE"",""0096_N0300_K0065_NOCLIQUE""]","",""
"","","","","","canvas-keyboard-response","99","191213","0.0-56.0-0.0-0.0","","1456",""," ","[10,261,244,81,273,73,158,268,280,76,292,206,171,166,91,219,140,285,16,127,278,50,88,117,62,64,68,225,122,120,237,84,12,83,108,287,275,198,38,41,175,185,29,37,15,98,178,232,224,220,195,252,63,136,243,176,263,238,139,85,130,26,210,24,113,179,222,71,133,173,92,203,11,42,75,90,254,293,79,59,80,208,101,163,290,159,126,180,218,131,97,153,51,124,229,246,289,8,69,48,82,154,148,193,128,156,242,269,188,250,167,199,100,118,56,33,286,67,3,221,164,146,14,291,135,106,191,149,103,1,298,19,77,0,46,170,187,297,27,294,215,53,248,249,9,189,45,162,23,5,233,119,228,265,272,22,230,216,266,270,181,39,87,279,295,4,70,236,212,235,204,223,132,55,172,251,134,183,2,115,95,58,217,226,105,207,214,186,107,111,196,168,138,109,253,152,43,78,271,40,94,18,283,227,20,277,13,6,282,192,52,30,184,32,74,57,143,66,160,234,35,61,264,169,231,267,288,213,89,165,144,151,125,17,209,116,86,21,155,299,197,247,256,202,44,161,150,174,102,28,296,7,260,60,284,262,31,177,114,25,200,141,121,281,147,137,259,72,112,245,276,182,257,36,201,34,142,255,190,241,194,205,145,258,99,274,104,65,47,96,123,54,211,93,110,129,157,239,49,240]","arrowright","0","8","60","300","[""0090_N0300_K0060_NOCLIQUE"",""0007_N0300_K0060_CLIQUE""]","",""
"","","","","","audio-keyboard-response","100","191793","0.0-56.0-0.0-1.0","","null","audio_feedback/shuffles/shuffle01.mp3","null","","","0","8","60","300","[""0090_N0300_K0060_NOCLIQUE"",""0007_N0300_K0060_CLIQUE""]","",""
"","","","","","canvas-keyboard-response","101","194292","0.0-56.1-0.1-0.1","","2428",""," ","[282,243,253,162,79,52,28,107,201,48,32,293,75,171,92,275,231,24,86,16,225,116,132,154,268,169,21,29,42,218,166,66,35,262,167,195,235,139,183,148,13,50,82,150,134,85,145,135,140,6,113,63,115,2,209,284,111,62,289,210,57,292,254,208,61,37,43,72,152,30,96,286,205,178,295,70,99,3,179,269,285,246,211,4,78,170,216,110,278,250,133,202,88,296,277,281,12,264,214,163,182,104,221,106,146,18,240,90,267,33,147,71,173,77,142,196,236,58,165,0,191,251,172,112,109,194,46,177,41,215,121,238,199,137,59,76,261,219,55,103,44,100,74,224,299,185,288,181,232,141,229,27,287,45,73,67,31,197,189,130,125,89,83,157,123,283,122,15,159,255,249,222,226,168,127,228,39,256,8,1,149,26,131,164,257,102,297,51,263,87,151,91,136,271,237,290,47,10,80,138,259,248,81,186,64,158,245,212,260,220,114,234,22,175,101,184,193,272,5,60,187,244,241,36,176,188,129,98,119,204,11,273,25,174,23,233,213,34,227,128,239,105,124,108,279,93,19,160,144,14,203,117,17,156,266,69,49,252,84,68,258,223,53,40,120,200,207,276,294,153,126,247,230,7,291,9,265,161,97,95,198,143,38,94,180,56,190,270,20,280,118,217,206,274,192,54,65,298,242,155]","arrowright","0","8","60","300","[""0090_N0300_K0060_NOCLIQUE"",""0007_N0300_K0060_CLIQUE""]","",""
"","","","","","audio-keyboard-response","102","194875","0.0-56.1-0.1-1.1","","null","audio_feedback/shuffles/shuffle01.mp3","null","","","0","8","60","300","[""0090_N0300_K0060_NOCLIQUE"",""0007_N0300_K0060_CLIQUE""]","",""
"","","","","","canvas-keyboard-response","103","196543","0.0-56.2-0.2-0.2","","1601",""," ","[57,77,205,23,54,13,113,293,8,133,290,22,126,206,155,219,121,209,67,91,253,265,14,262,117,68,105,63,298,153,163,4,270,188,200,201,278,123,250,160,15,30,150,178,124,1,289,204,284,212,79,279,65,252,169,42,69,128,87,33,248,280,127,236,46,244,256,47,96,129,217,0,264,50,98,288,32,211,185,171,111,36,241,273,173,139,51,186,9,182,214,5,104,53,159,167,268,83,156,78,95,103,7,154,125,245,196,220,267,110,162,20,56,190,164,197,243,258,271,97,136,58,297,61,72,287,231,240,120,62,215,202,235,161,180,229,17,116,172,227,276,210,39,239,115,199,233,141,71,85,176,251,263,84,291,24,59,181,48,137,140,257,294,40,135,151,261,18,224,101,249,28,198,216,184,66,170,11,43,299,45,286,269,247,152,122,246,138,254,109,93,221,145,207,119,157,175,275,281,37,94,192,99,81,82,208,12,41,80,292,166,134,34,106,102,114,60,274,144,64,187,226,223,193,189,25,255,174,272,118,277,168,73,242,218,266,285,194,19,213,295,38,44,234,142,108,90,146,6,89,259,52,55,143,225,35,260,222,130,191,2,177,16,112,132,76,203,148,158,10,26,86,228,149,179,183,3,92,49,282,238,131,195,165,296,147,21,29,27,100,70,107,75,88,283,237,232,230,74,31]","arrowright","0","8","60","300","[""0090_N0300_K0060_NOCLIQUE"",""0007_N0300_K0060_CLIQUE""]","",""
"","","","","","audio-keyboard-response","104","197115","0.0-56.2-0.2-1.2","","null","audio_feedback/shuffles/shuffle01.mp3","null","","","0","8","60","300","[""0090_N0300_K0060_NOCLIQUE"",""0007_N0300_K0060_CLIQUE""]","",""
"","","","","","canvas-keyboard-response","105","198567","0.0-56.3-0.3-0.3","","1392","","arrowright","[269,89,179,10,275,40,231,30,66,33,122,146,109,256,43,283,20,105,147,127,54,133,288,272,140,116,297,174,46,153,191,264,253,128,196,159,237,198,282,143,296,130,277,200,17,84,6,62,51,106,101,170,172,225,18,45,177,65,144,135,298,293,149,246,14,3,5,38,182,214,47,204,9,294,160,218,252,82,132,107,16,189,48,28,61,85,100,145,155,138,74,249,276,70,175,199,257,240,194,115,68,248,178,289,91,162,42,150,215,278,226,287,29,136,250,103,239,121,90,11,193,273,98,229,57,123,222,210,49,219,87,21,102,80,50,56,72,36,58,241,15,203,79,233,224,207,286,161,208,64,183,39,97,67,262,157,243,271,126,185,110,71,201,263,291,192,202,242,173,168,34,63,4,44,156,78,26,187,176,94,76,186,267,284,93,165,13,12,27,59,169,152,274,92,142,164,180,281,134,223,238,148,217,270,31,77,220,96,131,292,209,216,113,211,234,139,259,190,120,251,112,75,73,23,81,1,41,236,181,151,255,258,35,53,129,197,55,158,232,299,7,124,221,108,205,285,279,268,213,37,206,167,52,230,195,166,171,141,118,117,8,99,69,119,88,19,212,261,295,125,2,60,280,163,111,188,22,184,235,244,114,0,25,290,154,83,266,245,95,24,247,86,254,104,265,260,137,228,32,227]","arrowright","0","8","60","300","[""0090_N0300_K0060_NOCLIQUE"",""0007_N0300_K0060_CLIQUE""]","","true"
"","","","","","audio-keyboard-response","106","198975","0.0-56.3-0.3-1.3","","null","audio_feedback/right/coin01.mp3","null","","","0","8","60","300","[""0090_N0300_K0060_NOCLIQUE"",""0007_N0300_K0060_CLIQUE""]","",""
"","","","","","canvas-keyboard-response","107","199949","0.0-57.0-0.0-0.0","","909",""," ","[81,180,11,142,123,166,136,199,157,15,31,269,183,4,137,189,2,257,245,113,87,280,237,287,282,258,95,37,59,109,158,200,188,295,224,194,173,139,91,153,233,246,125,55,33,220,296,149,230,77,231,275,175,46,222,186,97,144,62,261,141,279,19,198,120,122,138,208,256,203,75,162,84,221,218,110,28,61,195,85,127,241,297,126,238,278,54,111,40,202,34,239,64,82,197,234,124,94,247,242,184,215,57,32,89,187,44,206,107,5,43,78,213,146,151,249,196,170,93,260,228,150,284,205,35,21,154,119,101,227,176,79,226,132,290,17,27,143,42,274,36,163,177,152,266,7,251,131,117,268,112,182,96,232,161,212,116,223,108,204,129,217,72,48,190,134,185,210,262,172,38,235,259,121,60,167,229,244,207,286,128,164,41,147,250,88,6,12,253,63,148,52,104,80,289,281,9,67,130,68,105,66,209,254,270,24,26,0,255,267,293,219,277,160,45,99,10,23,51,76,103,169,291,133,288,13,56,145,248,168,201,58,165,211,22,65,92,159,191,271,16,50,20,156,118,214,192,135,243,181,216,8,265,71,264,272,86,292,276,155,70,98,100,47,225,263,283,294,102,69,140,49,83,193,240,298,39,29,115,3,106,171,18,73,285,53,174,30,252,90,299,179,14,25,273,178,236,74,1,114]","arrowright","0","9","60","300","[""0094_N0300_K0060_NOCLIQUE"",""0077_N0300_K0060_CLIQUE""]","",""
"","","","","","audio-keyboard-response","108","200515","0.0-57.0-0.0-1.0","","null","audio_feedback/shuffles/shuffle01.mp3","null","","","0","9","60","300","[""0094_N0300_K0060_NOCLIQUE"",""0077_N0300_K0060_CLIQUE""]","",""
"","","","","","canvas-keyboard-response","109","201671","0.0-57.1-0.1-0.1","","1085",""," ","[262,189,294,236,98,213,253,252,39,225,67,66,72,224,2,83,184,229,219,260,292,214,206,118,185,250,104,233,103,102,234,47,230,8,99,256,18,20,16,258,132,48,137,95,244,168,94,85,273,238,78,40,177,295,215,110,201,279,176,152,31,156,24,10,198,59,181,282,127,77,56,148,38,14,22,19,32,5,68,223,146,131,111,128,138,124,79,166,170,30,46,200,275,237,222,240,285,179,193,45,62,112,3,246,139,283,211,89,86,291,293,58,84,202,41,182,271,114,178,174,241,142,12,299,197,92,63,106,54,27,278,61,43,6,195,49,88,218,51,140,60,194,286,220,289,87,133,69,23,147,96,11,126,172,135,26,287,163,36,28,37,150,192,228,274,71,29,297,209,266,145,175,188,76,0,123,183,231,33,281,204,117,81,264,199,129,263,191,259,169,162,55,288,255,121,226,216,82,143,261,1,50,205,130,108,276,35,7,149,254,269,207,154,242,144,251,221,272,42,15,65,80,284,180,109,212,73,158,186,248,93,235,157,64,268,210,257,247,196,141,17,187,155,116,245,232,53,52,100,243,171,190,136,9,249,265,167,165,208,280,91,267,4,134,113,151,160,296,217,74,122,277,227,290,21,97,119,239,70,161,203,107,57,153,44,90,13,125,34,173,120,270,25,298,101,164,159,75,105,115]","arrowright","0","9","60","300","[""0094_N0300_K0060_NOCLIQUE"",""0077_N0300_K0060_CLIQUE""]","",""
"","","","","","audio-keyboard-response","110","202234","0.0-57.1-0.1-1.1","","null","audio_feedback/shuffles/shuffle01.mp3","null","","","0","9","60","300","[""0094_N0300_K0060_NOCLIQUE"",""0077_N0300_K0060_CLIQUE""]","",""
"","","","","","canvas-keyboard-response","111","204375","0.0-57.2-0.2-0.2","","2059","","arrowright","[108,42,31,194,253,233,126,72,239,100,238,263,2,134,183,240,14,64,184,39,142,206,208,140,163,99,286,267,257,236,219,80,132,70,299,190,111,145,107,243,68,97,276,10,131,273,30,282,216,28,8,222,20,4,60,121,196,181,278,29,281,135,22,37,198,143,118,91,187,55,67,254,265,9,26,182,170,87,88,175,261,101,63,232,147,89,162,152,214,90,74,204,179,287,280,113,217,224,59,264,52,252,272,248,47,25,48,171,262,150,129,61,19,258,110,218,35,57,202,82,7,81,249,11,16,178,155,298,104,120,168,102,24,235,105,46,160,211,270,201,274,212,223,40,210,292,106,141,191,109,268,116,127,154,66,180,271,209,234,242,79,76,0,296,221,185,86,220,166,73,290,176,5,293,230,161,294,13,177,213,137,1,130,32,27,277,259,138,246,186,33,115,289,156,78,95,56,12,215,125,6,119,75,295,112,158,124,164,229,188,49,291,77,144,23,237,227,197,241,297,207,123,93,51,50,38,146,199,41,195,15,43,169,226,148,44,21,205,172,85,94,174,200,62,244,58,266,193,54,167,245,128,117,247,288,17,269,71,84,69,283,151,122,103,203,255,250,96,251,275,231,36,225,165,34,192,139,260,133,279,149,285,189,228,92,45,18,65,83,157,114,256,136,153,53,3,98,173,284,159]","arrowright","0","9","60","300","[""0094_N0300_K0060_NOCLIQUE"",""0077_N0300_K0060_CLIQUE""]","","true"
"","","","","","audio-keyboard-response","112","204795","0.0-57.2-0.2-1.2","","null","audio_feedback/right/coin01.mp3","null","","","0","9","60","300","[""0094_N0300_K0060_NOCLIQUE"",""0077_N0300_K0060_CLIQUE""]","",""
"","","","","","canvas-keyboard-response","113","205756","0.0-58.0-0.0-0.0","","895",""," ","[178,284,29,118,115,257,176,57,281,152,135,52,126,140,212,258,27,159,162,61,274,34,275,262,30,158,157,70,202,253,273,259,94,250,45,133,219,261,7,0,8,71,238,60,108,138,24,200,161,77,132,222,227,203,230,208,64,186,95,20,252,141,235,130,55,110,169,43,251,272,99,48,209,41,236,166,153,185,136,239,121,112,107,84,51,289,76,12,282,18,291,47,294,125,255,72,286,74,260,26,188,293,81,155,97,21,75,232,78,56,137,215,117,54,50,287,11,65,279,207,124,37,59,22,144,73,62,205,49,189,165,44,184,191,270,19,213,1,225,139,68,91,10,4,101,36,46,193,240,195,256,283,156,146,87,85,196,265,88,148,103,181,160,100,197,182,38,243,58,271,242,14,268,264,249,210,295,277,3,179,82,206,15,298,129,164,288,28,233,226,173,90,119,234,199,104,122,224,5,89,201,66,237,278,131,113,216,167,134,266,86,290,246,123,96,221,111,204,69,172,174,228,163,13,299,244,98,32,229,150,147,83,245,297,263,218,170,67,276,40,116,183,42,151,31,190,114,120,194,296,39,102,63,9,269,6,2,105,223,23,180,25,35,80,92,79,217,241,214,280,292,127,231,149,177,248,220,143,171,254,198,128,17,33,175,187,16,106,109,267,53,192,142,247,154,93,211,168,285,145]","arrowright","0","10","55","300","[""0074_N0300_K0055_NOCLIQUE"",""0034_N0300_K0055_CLIQUE""]","",""
"","","","","","audio-keyboard-response","114","206335","0.0-58.0-0.0-1.0","","null","audio_feedback/shuffles/shuffle01.mp3","null","","","0","10","55","300","[""0074_N0300_K0055_NOCLIQUE"",""0034_N0300_K0055_CLIQUE""]","",""
"","","","","","canvas-keyboard-response","115","207464","0.0-58.1-0.1-0.1","","1047",""," ","[151,277,117,43,84,121,41,184,144,20,210,75,294,88,143,195,134,111,53,298,225,37,61,207,79,89,29,241,276,27,126,44,10,246,216,71,35,32,50,268,58,101,292,273,48,28,169,232,0,269,267,166,106,287,286,49,188,147,19,5,52,175,178,260,196,72,78,18,135,200,26,46,42,221,148,266,189,177,16,282,91,152,198,80,107,257,296,160,76,185,115,243,118,288,228,21,140,109,235,145,279,249,252,74,119,99,94,22,217,108,157,136,265,132,130,64,162,11,194,24,270,234,182,65,156,67,247,236,86,38,45,192,283,15,137,170,173,285,133,255,226,250,181,289,293,97,209,124,172,179,222,161,34,153,256,237,229,258,186,176,62,299,131,190,85,125,193,25,95,164,214,218,105,60,233,240,242,238,56,70,204,167,206,23,205,63,201,116,261,36,30,272,202,113,180,103,1,100,93,199,227,83,150,220,231,171,96,13,219,141,9,291,224,165,57,110,211,163,174,248,98,154,215,112,203,14,212,239,138,82,263,146,90,251,208,191,230,290,271,12,73,155,297,159,8,275,104,66,6,197,262,244,129,278,17,59,68,259,55,114,31,223,274,128,69,47,295,3,127,253,87,81,120,158,254,102,245,168,281,33,2,92,284,77,40,7,213,280,51,39,264,142,149,183,122,54,4,123,139,187]","arrowright","0","10","55","300","[""0074_N0300_K0055_NOCLIQUE"",""0034_N0300_K0055_CLIQUE""]","",""
"","","","","","audio-keyboard-response","116","208035","0.0-58.1-0.1-1.1","","null","audio_feedback/shuffles/shuffle01.mp3","null","","","0","10","55","300","[""0074_N0300_K0055_NOCLIQUE"",""0034_N0300_K0055_CLIQUE""]","",""
"","","","","","canvas-keyboard-response","117","209574","0.0-58.2-0.2-0.2","","1452",""," ","[109,21,204,275,99,179,147,169,122,191,244,133,148,171,279,12,225,120,269,186,27,134,137,127,243,67,201,150,149,80,113,181,139,296,234,54,89,138,146,36,228,250,219,221,90,37,52,51,235,283,167,144,131,271,154,64,114,22,264,182,254,129,180,28,177,20,214,157,209,41,249,84,207,226,9,173,162,287,230,262,156,270,245,203,289,199,142,116,266,175,217,79,121,220,2,184,227,135,8,267,106,261,42,299,117,92,208,231,282,172,240,124,91,285,215,73,277,168,85,78,294,223,119,4,130,232,65,247,87,83,7,88,14,158,136,29,276,17,49,248,290,56,284,213,242,108,32,25,112,241,211,256,189,236,145,34,110,237,274,97,196,259,6,82,35,39,192,165,153,128,252,224,253,63,61,272,239,55,183,166,206,93,292,170,159,86,293,98,229,298,176,255,11,16,163,218,281,238,178,62,58,3,30,118,194,260,174,212,45,43,102,72,15,140,24,268,160,107,33,246,96,53,257,233,69,210,263,141,111,101,195,161,193,286,95,40,185,188,190,187,77,94,291,115,57,44,126,59,155,278,132,251,71,104,216,143,125,198,66,273,100,105,19,205,222,46,103,288,60,164,13,18,197,10,76,48,200,295,68,1,75,5,265,74,280,47,38,26,70,202,151,297,31,258,123,152,0,50,81,23]","arrowright","0","10","55","300","[""0074_N0300_K0055_NOCLIQUE"",""0034_N0300_K0055_CLIQUE""]","",""
"","","","","","audio-keyboard-response","118","210153","0.0-58.2-0.2-1.2","","null","audio_feedback/shuffles/shuffle01.mp3","null","","","0","10","55","300","[""0074_N0300_K0055_NOCLIQUE"",""0034_N0300_K0055_CLIQUE""]","",""
"","","","","","canvas-keyboard-response","119","212628","0.0-58.3-0.3-0.3","","2415",""," ","[194,220,252,166,185,227,271,204,62,88,16,69,9,294,151,14,208,251,101,102,217,4,262,59,199,139,39,40,223,186,178,158,54,66,173,197,73,281,293,135,45,201,82,291,233,107,84,266,52,265,47,10,168,231,169,298,123,261,148,299,97,137,75,212,263,170,243,273,172,249,174,129,140,70,55,3,28,244,109,18,162,134,292,131,145,57,25,96,157,176,38,32,180,161,163,21,6,216,218,106,214,19,193,232,196,44,68,225,192,245,177,203,211,239,37,130,90,188,146,150,149,280,103,295,92,43,288,255,11,268,272,56,118,276,235,154,143,207,119,219,264,49,34,80,91,167,289,78,202,254,159,41,240,165,24,156,94,12,99,152,13,8,205,121,132,5,228,221,253,270,183,234,136,171,50,226,60,35,274,260,277,124,30,76,189,15,242,42,86,187,17,110,164,229,269,98,113,267,26,115,108,247,29,191,77,48,74,287,222,7,2,153,179,259,198,117,63,184,206,83,195,116,72,85,210,213,238,33,46,58,147,283,100,22,278,128,87,93,65,296,285,190,81,20,51,230,155,112,27,175,257,236,215,181,125,127,209,64,286,256,71,120,160,1,61,246,200,142,284,237,282,290,104,182,275,79,248,224,105,53,144,133,241,258,31,89,23,279,126,297,36,111,122,95,114,0,141,250,67,138]","arrowright","0","10","55","300","[""0074_N0300_K0055_NOCLIQUE"",""0034_N0300_K0055_CLIQUE""]","",""
"","","","","","audio-keyboard-response","120","213195","0.0-58.3-0.3-1.3","","null","audio_feedback/shuffles/shuffle01.mp3","null","","","0","10","55","300","[""0074_N0300_K0055_NOCLIQUE"",""0034_N0300_K0055_CLIQUE""]","",""
"","","","","","canvas-keyboard-response","121","215316","0.0-58.4-0.4-0.4","","2039","","arrowright","[260,186,140,139,254,24,156,110,159,138,71,44,256,100,113,282,242,116,258,191,228,189,129,252,43,133,76,185,208,51,157,286,270,149,30,39,249,10,11,195,49,118,173,178,236,246,21,277,232,17,279,0,216,273,41,13,98,72,245,212,287,152,32,172,45,134,264,213,175,126,135,296,255,83,35,50,36,266,237,75,143,187,268,68,146,136,105,147,184,165,215,283,37,181,53,31,85,90,217,234,1,285,174,106,38,229,171,196,154,84,151,82,103,67,244,64,4,160,81,291,79,267,117,33,12,104,127,131,272,169,177,221,292,225,251,248,298,88,70,77,247,120,290,65,5,92,198,25,280,142,7,161,128,109,253,97,203,148,205,69,19,193,121,93,223,199,107,95,183,42,141,6,15,46,243,153,111,8,210,262,167,276,124,66,293,20,227,284,162,202,94,23,163,220,239,259,150,86,22,294,180,233,170,123,226,214,265,99,250,55,9,47,164,137,269,27,190,209,211,240,73,231,16,218,14,28,108,204,235,295,179,114,122,96,48,87,188,34,125,222,192,289,59,40,241,63,194,271,145,197,52,102,230,119,275,155,3,281,74,158,257,201,112,166,219,54,26,263,297,78,299,206,288,224,238,132,62,60,2,91,18,144,57,29,89,182,115,130,274,101,56,261,200,207,278,61,58,176,168,80]","arrowright","0","10","55","300","[""0074_N0300_K0055_NOCLIQUE"",""0034_N0300_K0055_CLIQUE""]","","true"
"","","","","","audio-keyboard-response","122","215735","0.0-58.4-0.4-1.4","","null","audio_feedback/right/coin01.mp3","null","","","0","10","55","300","[""0074_N0300_K0055_NOCLIQUE"",""0034_N0300_K0055_CLIQUE""]","",""
"","","","","","canvas-keyboard-response","123","216624","0.0-59.0-0.0-0.0","","806",""," ","[111,28,59,291,115,176,155,58,146,10,181,200,267,130,119,80,201,186,144,78,177,26,131,219,8,178,11,66,133,36,41,152,128,218,69,99,38,153,231,238,157,274,48,151,22,140,246,283,88,114,123,227,295,7,210,270,95,21,209,13,288,14,255,94,43,263,250,269,137,135,100,183,84,180,202,62,70,93,268,286,260,83,74,65,248,234,56,34,172,285,228,132,15,92,279,266,171,61,293,184,281,273,51,298,289,145,294,166,18,254,87,12,156,86,197,236,264,1,258,106,170,212,214,190,102,173,54,208,182,232,277,9,280,169,242,0,179,203,161,239,67,76,89,147,138,159,23,163,85,49,4,37,272,39,117,20,5,98,55,16,30,25,136,113,211,121,262,53,167,252,284,142,112,206,63,168,19,275,29,256,230,109,79,165,297,229,149,104,52,45,116,17,6,82,154,73,243,249,46,96,105,253,40,187,150,244,189,110,120,207,134,108,175,287,139,124,129,185,204,247,27,215,194,31,47,261,68,265,241,222,213,278,235,107,205,32,240,271,35,290,198,191,192,141,72,127,225,162,33,158,245,3,296,292,118,237,220,143,299,193,259,50,174,233,221,122,77,81,251,71,282,101,216,44,90,160,75,64,2,125,217,164,199,276,126,188,24,97,91,195,223,196,103,257,60,57,224,226,42,148]","arrowleft","0","11","55","300","[""0009_N0300_K0055_CLIQUE"",""0076_N0300_K0055_NOCLIQUE""]","",""
"","","","","","audio-keyboard-response","124","217195","0.0-59.0-0.0-1.0","","null","audio_feedback/shuffles/shuffle01.mp3","null","","","0","11","55","300","[""0009_N0300_K0055_CLIQUE"",""0076_N0300_K0055_NOCLIQUE""]","",""
"","","","","","canvas-keyboard-response","125","218757","0.0-59.1-0.1-0.1","","1481",""," ","[142,5,14,262,153,101,146,46,23,80,198,228,141,233,7,272,159,265,126,102,19,269,258,38,108,155,266,284,166,292,24,298,93,124,26,223,128,35,267,91,17,41,231,177,181,78,144,241,288,4,51,187,264,200,32,50,235,150,135,291,96,84,285,279,39,164,36,131,203,193,12,52,275,105,174,74,224,295,194,168,220,119,25,149,280,218,112,61,286,263,59,15,82,202,2,20,29,60,213,56,244,111,154,83,49,71,48,204,107,219,197,255,109,121,133,134,214,94,75,253,185,299,260,232,47,170,147,221,116,117,44,37,248,27,249,66,217,186,31,34,251,65,190,183,95,90,290,161,70,165,76,237,196,180,13,206,92,18,53,225,89,129,79,85,297,138,246,73,247,72,195,259,176,268,122,106,11,294,289,293,172,43,239,296,114,148,184,234,68,28,178,42,45,211,88,145,139,113,257,21,87,281,9,140,63,171,179,86,189,64,270,123,162,151,1,169,58,98,215,115,282,158,40,209,277,276,97,278,240,137,210,55,271,6,167,175,207,188,30,287,22,250,242,81,205,136,156,236,16,216,3,157,254,238,191,283,99,199,212,54,182,125,256,226,208,273,132,118,192,222,261,130,104,69,33,8,110,173,163,143,245,152,10,57,243,227,274,100,0,103,229,62,77,127,230,201,252,120,160,67]","arrowleft","0","11","55","300","[""0009_N0300_K0055_CLIQUE"",""0076_N0300_K0055_NOCLIQUE""]","",""
"","","","","","audio-keyboard-response","126","219335","0.0-59.1-0.1-1.1","","null","audio_feedback/shuffles/shuffle01.mp3","null","","","0","11","55","300","[""0009_N0300_K0055_CLIQUE"",""0076_N0300_K0055_NOCLIQUE""]","",""
"","","","","","canvas-keyboard-response","127","220694","0.0-59.2-0.2-0.2","","1274",""," ","[60,295,270,217,26,228,141,5,135,299,137,8,0,193,293,191,222,14,36,61,120,15,212,85,281,153,215,152,225,94,177,136,288,187,108,151,87,275,164,21,17,265,116,248,250,156,258,218,30,1,99,255,292,234,253,101,91,53,128,47,115,220,9,45,183,77,140,11,49,276,282,160,4,150,89,113,58,109,142,103,24,52,23,257,25,296,241,70,169,98,158,38,284,80,149,125,138,78,166,127,195,133,186,206,75,242,163,68,189,48,271,62,277,123,32,256,239,27,247,119,188,261,82,84,203,154,199,251,55,185,233,297,174,192,106,16,130,107,272,59,44,213,42,147,252,33,100,175,12,146,209,144,28,54,46,10,40,43,95,263,194,201,173,104,221,238,76,260,90,285,50,73,102,168,57,93,110,243,289,155,196,223,210,269,18,287,83,298,34,121,167,244,72,6,111,208,259,264,182,69,227,37,97,179,159,124,279,148,162,294,273,219,114,79,112,274,267,13,126,20,176,81,180,39,19,132,157,96,117,105,229,118,237,122,214,216,67,235,131,66,92,207,181,205,139,204,290,71,161,246,224,254,3,240,226,41,236,200,211,56,190,65,262,280,249,197,86,230,232,74,178,266,29,286,64,283,51,143,88,171,2,134,165,291,202,268,172,31,170,245,145,184,278,129,231,22,63,35,198,7]","arrowleft","0","11","55","300","[""0009_N0300_K0055_CLIQUE"",""0076_N0300_K0055_NOCLIQUE""]","",""
"","","","","","audio-keyboard-response","128","221275","0.0-59.2-0.2-1.2","","null","audio_feedback/shuffles/shuffle01.mp3","null","","","0","11","55","300","[""0009_N0300_K0055_CLIQUE"",""0076_N0300_K0055_NOCLIQUE""]","",""
"","","","","","canvas-keyboard-response","129","222900","0.0-59.3-0.3-0.3","","1558",""," ","[23,258,130,121,197,237,201,126,137,8,132,42,27,21,139,37,217,16,144,289,89,9,189,84,96,191,100,87,135,138,265,0,288,236,153,224,227,142,161,240,113,292,295,285,77,141,169,25,40,202,151,164,1,179,98,115,106,175,95,214,266,4,143,226,117,47,198,119,81,162,264,205,85,114,80,290,55,271,60,207,216,211,210,14,262,13,254,277,94,129,166,159,72,268,298,67,249,73,269,41,78,291,193,213,196,123,136,54,180,116,112,99,26,299,62,110,293,294,76,228,241,250,255,187,206,63,101,218,31,174,39,270,120,248,10,107,233,74,168,287,75,184,238,170,6,44,134,247,102,158,128,220,66,133,190,38,48,178,260,182,150,235,246,261,259,140,183,28,12,11,165,230,276,70,118,146,122,232,105,35,65,83,296,204,223,82,18,68,29,208,15,93,199,160,2,297,284,273,36,109,256,92,200,195,234,108,163,57,125,186,90,103,3,124,20,177,145,52,91,243,251,194,171,104,176,278,17,275,274,172,257,79,152,267,19,244,215,59,280,272,156,173,43,185,222,221,188,71,45,24,49,86,286,245,69,209,154,22,111,64,203,61,148,225,56,181,97,192,53,147,127,253,51,229,34,263,149,157,50,231,219,242,281,30,282,283,32,212,131,167,279,5,252,7,46,58,33,239,88,155]","arrowleft","0","11","55","300","[""0009_N0300_K0055_CLIQUE"",""0076_N0300_K0055_NOCLIQUE""]","",""
"","","","","","audio-keyboard-response","130","223475","0.0-59.3-0.3-1.3","","null","audio_feedback/shuffles/shuffle01.mp3","null","","","0","11","55","300","[""0009_N0300_K0055_CLIQUE"",""0076_N0300_K0055_NOCLIQUE""]","",""
"","","","","","canvas-keyboard-response","131","226014","0.0-59.4-0.4-0.4","","2471",""," ","[296,201,208,186,235,227,48,170,117,221,106,281,229,53,165,81,68,263,274,54,103,293,139,46,4,49,132,176,143,230,86,266,275,215,136,185,228,35,241,205,155,203,90,22,122,70,273,174,223,91,20,138,34,78,251,23,222,177,66,210,0,159,63,216,14,62,112,102,189,252,257,219,52,57,283,85,133,79,41,137,175,152,206,261,5,280,115,121,163,193,213,184,55,125,270,236,129,200,92,268,169,286,56,104,96,6,100,45,131,9,294,65,146,29,71,61,144,240,47,220,180,173,265,38,166,254,1,264,147,156,217,40,141,135,19,248,127,164,269,12,168,33,298,278,195,171,67,114,25,246,44,11,74,212,187,77,58,59,289,224,204,154,88,123,245,119,282,3,295,8,207,51,277,291,255,202,198,234,211,199,226,253,43,120,13,30,101,111,218,239,10,142,149,167,50,250,80,76,140,72,260,110,60,225,36,99,15,17,181,93,113,75,238,157,26,130,32,97,285,231,292,116,82,107,179,64,188,161,134,178,24,2,276,284,288,98,258,109,183,247,214,243,89,21,69,192,83,233,39,162,153,105,242,18,94,232,259,37,279,160,194,190,145,87,191,150,124,84,7,31,108,151,299,297,267,196,118,148,209,95,290,126,73,27,128,28,197,256,182,16,271,249,272,262,244,237,42,172,158,287]","arrowleft","0","11","55","300","[""0009_N0300_K0055_CLIQUE"",""0076_N0300_K0055_NOCLIQUE""]","",""
"","","","","","audio-keyboard-response","132","226594","0.0-59.4-0.4-1.4","","null","audio_feedback/shuffles/shuffle01.mp3","null","","","0","11","55","300","[""0009_N0300_K0055_CLIQUE"",""0076_N0300_K0055_NOCLIQUE""]","",""
"","","","","","canvas-keyboard-response","133","231551","0.0-59.5-0.5-0.5","","4893","","arrowleft","[174,197,109,144,105,224,122,132,90,279,258,60,75,168,244,48,184,192,182,62,149,240,219,79,206,267,63,71,131,24,290,136,54,61,68,98,260,15,229,74,101,10,266,126,150,176,204,179,170,281,155,97,181,121,53,171,118,43,99,3,264,151,8,30,256,242,227,9,115,82,249,273,29,167,135,40,88,271,210,296,243,57,160,158,187,138,123,94,228,92,213,100,91,268,78,2,196,137,202,47,31,18,4,17,248,287,108,225,191,259,285,107,16,222,7,211,207,153,283,245,261,12,230,193,140,278,194,156,209,11,236,102,119,134,28,199,262,299,162,120,110,5,86,263,293,72,195,20,276,96,1,147,233,292,203,255,19,77,183,186,165,247,22,212,116,241,49,154,81,250,106,89,161,117,125,130,164,58,237,51,265,289,295,65,148,291,87,23,142,208,13,169,269,124,46,175,35,133,217,76,56,198,188,239,42,163,298,34,254,93,234,6,294,26,257,67,45,280,215,231,25,70,95,145,218,66,277,272,232,282,38,104,205,146,83,21,141,220,129,270,200,14,0,44,251,235,297,127,201,55,41,80,238,253,172,39,36,166,189,226,246,112,64,286,85,114,180,69,50,178,157,159,52,27,177,103,32,221,139,33,216,252,111,113,37,190,284,73,152,59,185,274,214,84,288,173,275,128,223,143]","arrowleft","0","11","55","300","[""0009_N0300_K0055_CLIQUE"",""0076_N0300_K0055_NOCLIQUE""]","","true"
"","","","","","audio-keyboard-response","134","231973","0.0-59.5-0.5-1.5","","null","audio_feedback/right/coin01.mp3","null","","","0","11","55","300","[""0009_N0300_K0055_CLIQUE"",""0076_N0300_K0055_NOCLIQUE""]","",""
"","","","","","canvas-keyboard-response","135","232725","0.0-60.0-0.0-0.0","","689",""," ","[206,141,248,75,43,279,12,238,244,231,212,53,91,44,79,208,227,226,276,6,271,149,239,213,48,225,247,56,282,240,3,29,121,246,64,191,201,251,280,166,146,176,14,204,85,154,292,228,205,47,229,281,109,120,203,76,4,184,99,57,104,175,66,233,49,272,183,187,165,5,148,16,171,152,39,179,216,163,55,285,185,37,218,264,129,18,290,196,207,9,144,270,11,125,51,71,41,40,257,168,188,107,19,260,289,95,288,268,293,173,138,77,58,68,28,275,202,222,254,93,78,105,277,38,230,36,287,52,195,42,59,278,30,265,193,123,46,73,83,169,10,72,170,134,255,63,116,155,286,252,115,62,117,181,100,274,250,178,118,0,127,190,172,33,88,266,74,26,111,150,135,160,256,35,262,180,267,235,142,177,110,236,65,96,17,97,297,24,296,60,209,15,210,87,186,124,269,215,232,162,158,224,84,237,23,220,243,151,13,70,156,223,273,101,261,89,147,133,249,174,258,61,159,161,45,295,92,245,80,22,200,82,27,294,90,197,21,140,259,94,131,217,291,136,20,126,122,34,86,192,234,263,8,50,67,198,98,153,2,54,167,189,108,106,182,31,128,143,241,242,219,283,299,81,7,139,214,69,164,145,298,211,132,25,284,130,253,113,221,137,112,119,32,102,103,194,114,199,157,1]","arrowright","0","12","50","300","[""0008_N0300_K0050_NOCLIQUE"",""0043_N0300_K0050_CLIQUE""]","",""
"","","","","","audio-keyboard-response","136","233293","0.0-60.0-0.0-1.0","","null","audio_feedback/shuffles/shuffle01.mp3","null","","","0","12","50","300","[""0008_N0300_K0050_NOCLIQUE"",""0043_N0300_K0050_CLIQUE""]","",""
"","","","","","canvas-keyboard-response","137","234309","0.0-60.1-0.1-0.1","","933",""," ","[97,43,69,286,94,271,111,170,12,145,202,284,190,140,173,134,297,256,107,197,209,102,110,177,106,52,38,220,133,76,60,143,238,64,46,253,207,246,44,247,279,113,259,249,233,175,203,33,239,215,13,289,37,176,85,55,79,272,11,241,103,193,243,149,191,139,8,87,119,123,71,260,40,112,25,157,78,235,91,135,194,41,204,23,225,51,120,62,201,50,105,116,245,280,73,21,59,228,30,160,127,291,282,19,67,298,218,144,93,29,128,265,293,248,275,292,129,22,26,270,118,163,27,36,90,227,229,189,211,83,10,172,99,98,63,148,184,158,15,195,285,264,108,147,216,234,150,95,252,4,68,222,262,109,255,124,34,196,288,296,237,161,31,61,244,242,42,180,54,167,3,49,219,159,254,48,287,0,171,206,14,192,281,258,132,185,142,45,236,299,5,70,9,277,82,183,178,168,20,217,186,213,151,28,240,165,268,295,174,231,156,7,266,6,221,35,138,84,65,267,32,53,261,88,47,74,56,257,75,155,130,131,86,114,198,164,226,212,162,24,72,141,199,115,294,208,81,101,152,89,1,169,276,224,57,179,230,100,283,263,223,210,137,154,2,66,17,273,200,92,77,125,104,278,122,18,182,187,121,232,269,290,153,250,126,136,274,96,58,214,166,39,117,205,181,146,188,80,251,16]","arrowright","0","12","50","300","[""0008_N0300_K0050_NOCLIQUE"",""0043_N0300_K0050_CLIQUE""]","",""
"","","","","","audio-keyboard-response","138","234875","0.0-60.1-0.1-1.1","","null","audio_feedback/shuffles/shuffle01.mp3","null","","","0","12","50","300","[""0008_N0300_K0050_NOCLIQUE"",""0043_N0300_K0050_CLIQUE""]","",""
"","","","","","canvas-keyboard-response","139","236758","0.0-60.2-0.2-0.2","","1822",""," ","[146,6,42,12,267,194,210,273,240,192,223,64,149,291,247,118,279,160,246,98,44,189,248,274,212,276,32,88,205,199,41,0,130,254,196,232,264,209,217,69,285,11,85,296,214,113,164,35,104,120,114,47,213,71,131,20,282,148,295,51,101,186,221,65,102,53,129,14,57,292,50,55,67,173,109,219,58,126,119,161,293,37,139,286,262,200,17,138,265,204,115,152,9,263,243,256,128,156,158,121,28,233,237,201,271,72,157,108,86,230,70,137,206,43,143,170,76,187,89,133,211,231,63,122,283,39,155,59,239,62,165,92,124,140,2,66,73,270,97,245,100,222,68,1,123,8,18,184,30,22,82,191,238,241,278,40,74,49,45,163,208,287,244,111,4,142,250,266,36,257,79,226,202,218,46,52,94,19,33,96,207,249,93,190,269,179,251,144,252,38,136,253,255,284,275,87,21,242,95,215,127,107,16,178,10,34,167,13,198,23,105,145,288,258,203,297,91,235,225,90,162,83,150,268,81,299,110,26,7,236,169,134,176,216,228,27,31,172,141,3,171,168,117,180,153,84,260,289,60,125,15,294,48,272,103,166,181,224,25,183,281,80,195,132,147,290,229,56,151,116,197,277,75,193,298,77,61,24,261,259,188,159,99,175,234,29,182,135,106,174,112,177,227,78,5,185,220,280,54,154]","arrowright","0","12","50","300","[""0008_N0300_K0050_NOCLIQUE"",""0043_N0300_K0050_CLIQUE""]","",""
"","","","","","audio-keyboard-response","140","237335","0.0-60.2-0.2-1.2","","null","audio_feedback/shuffles/shuffle01.mp3","null","","","0","12","50","300","[""0008_N0300_K0050_NOCLIQUE"",""0043_N0300_K0050_CLIQUE""]","",""
"","","","","","canvas-keyboard-response","141","239148","0.0-60.3-0.3-0.3","","1729","","arrowright","[69,32,234,58,224,41,163,84,216,29,23,145,62,211,281,100,293,264,54,42,154,174,202,263,57,38,132,255,12,74,111,48,53,117,171,0,245,59,144,2,237,268,170,99,157,198,113,297,247,260,239,205,258,35,77,273,15,210,44,83,178,275,80,126,228,290,244,184,92,186,14,203,172,253,124,240,128,219,265,270,137,166,61,68,294,274,201,230,127,206,98,102,279,26,291,81,289,282,179,135,121,192,238,272,296,267,155,189,5,72,66,125,241,40,22,56,231,95,223,226,175,140,288,251,217,182,104,20,85,114,227,88,39,207,130,160,266,129,222,156,169,286,164,47,229,19,52,188,233,162,25,73,147,138,153,257,75,28,248,183,177,97,150,11,131,108,287,295,143,1,159,78,118,136,158,190,51,109,18,200,254,89,209,187,30,79,90,196,87,24,208,204,105,225,119,246,262,142,133,94,115,161,292,110,167,277,134,165,236,193,46,82,64,70,37,285,9,55,299,103,271,168,221,7,49,252,112,60,148,212,4,116,232,65,27,199,96,214,151,261,242,218,93,17,6,45,8,120,106,146,71,235,149,284,3,122,213,259,197,107,283,181,298,141,86,243,16,13,194,101,276,67,139,215,176,21,278,249,173,36,191,33,152,250,31,220,280,185,63,43,34,91,76,269,256,10,123,180,50,195]","arrowright","0","12","50","300","[""0008_N0300_K0050_NOCLIQUE"",""0043_N0300_K0050_CLIQUE""]","","true"
"","","","","","audio-keyboard-response","142","239555","0.0-60.3-0.3-1.3","","null","audio_feedback/right/coin01.mp3","null","","","0","12","50","300","[""0008_N0300_K0050_NOCLIQUE"",""0043_N0300_K0050_CLIQUE""]","",""
"","","","","","canvas-keyboard-response","143","244932","0.0-61.0-0.0-0.0","","5317",""," ","[43,132,262,3,46,62,26,108,249,198,117,19,204,9,0,25,114,161,70,90,42,136,17,29,177,94,67,290,12,51,295,291,294,135,128,112,234,96,54,147,36,212,178,165,286,73,194,193,174,191,22,40,38,279,143,140,213,86,268,277,129,226,127,289,199,208,276,13,76,189,111,21,278,228,215,298,101,77,145,201,137,237,260,68,14,259,270,281,263,123,118,159,2,266,45,188,280,91,110,296,186,87,5,243,211,141,218,227,59,183,71,160,107,65,93,236,47,247,16,32,255,179,99,134,288,175,55,133,181,287,264,256,106,200,185,83,229,50,251,169,233,248,103,230,78,100,95,131,158,252,224,109,102,163,37,48,154,232,222,265,92,82,156,282,122,98,195,113,220,4,205,271,138,126,61,267,197,49,225,69,116,41,240,297,60,23,35,74,97,56,81,285,293,173,176,235,180,155,253,190,104,171,217,120,261,184,44,24,139,231,246,34,66,269,182,119,18,150,149,1,7,142,221,187,6,121,58,27,39,238,11,242,273,10,124,20,130,84,284,125,63,88,79,64,241,33,250,146,272,30,283,292,144,162,216,52,167,299,15,210,72,170,196,206,275,85,223,157,192,148,244,274,164,151,75,202,152,239,105,258,153,166,214,80,207,219,203,89,254,257,8,53,115,28,168,245,172,31,57,209]","arrowright","0","13","50","300","[""0024_N0300_K0050_NOCLIQUE"",""0076_N0300_K0050_CLIQUE""]","",""
"","","","","","audio-keyboard-response","144","245508","0.0-61.0-0.0-1.0","","null","audio_feedback/shuffles/shuffle01.mp3","null","","","0","13","50","300","[""0024_N0300_K0050_NOCLIQUE"",""0076_N0300_K0050_CLIQUE""]","",""
"","","","","","canvas-keyboard-response","145","246482","0.0-61.1-0.1-0.1","","904",""," ","[147,37,88,50,273,287,245,54,180,252,91,79,31,75,266,210,151,110,123,296,27,212,127,229,173,163,134,41,77,112,255,62,94,196,194,64,69,299,243,257,193,200,70,33,146,295,187,231,24,26,250,186,272,225,264,144,30,201,93,233,284,183,157,131,23,98,176,43,34,4,170,108,130,103,269,236,141,152,117,8,153,167,59,246,198,195,89,143,102,67,261,101,65,283,46,20,260,297,40,21,82,230,19,76,293,258,213,159,251,1,206,126,17,204,124,199,36,185,197,263,276,87,171,96,122,113,25,192,268,232,119,254,66,177,114,166,215,35,63,228,191,172,142,5,121,15,218,220,49,95,154,128,184,106,71,86,90,83,265,55,115,104,286,38,135,60,84,129,18,259,174,240,52,242,32,80,100,45,202,48,22,97,178,105,74,238,139,42,168,44,58,271,217,14,39,256,214,6,248,9,118,125,175,205,182,107,207,161,235,290,247,281,81,282,294,275,165,162,13,155,0,51,160,274,145,227,92,138,209,298,137,224,285,29,222,99,211,249,16,289,111,120,12,53,291,188,226,253,85,11,150,237,72,203,288,2,57,158,239,270,78,133,277,262,216,149,223,68,116,267,208,10,7,241,136,132,3,279,109,169,292,156,28,164,56,179,73,47,140,61,234,221,278,219,181,190,148,280,244,189]","arrowright","0","13","50","300","[""0024_N0300_K0050_NOCLIQUE"",""0076_N0300_K0050_CLIQUE""]","",""
"","","","","","audio-keyboard-response","146","247049","0.0-61.1-0.1-1.1","","null","audio_feedback/shuffles/shuffle01.mp3","null","","","0","13","50","300","[""0024_N0300_K0050_NOCLIQUE"",""0076_N0300_K0050_CLIQUE""]","",""
"","","","","","canvas-keyboard-response","147","250162","0.0-61.2-0.2-0.2","","3049",""," ","[221,46,19,199,119,168,281,8,173,270,44,288,241,74,248,172,180,240,259,85,72,137,239,26,108,92,194,253,293,250,10,228,152,261,71,251,48,105,216,89,231,291,256,167,77,254,224,133,170,9,273,80,292,272,62,192,269,23,263,232,84,229,260,4,18,278,144,115,53,271,230,41,56,126,299,151,155,66,238,50,174,75,57,102,284,148,211,206,257,3,24,28,12,279,165,215,209,245,103,252,78,32,226,234,249,217,35,90,7,175,61,112,184,143,117,83,17,82,125,42,160,193,171,21,116,158,212,63,141,227,190,29,242,277,58,181,93,45,153,285,27,109,233,129,237,31,176,280,295,110,235,142,289,205,68,54,40,39,98,123,298,37,13,208,202,15,11,222,64,159,130,36,147,87,146,223,79,198,267,88,255,182,20,14,2,247,166,201,5,73,124,244,163,156,55,187,134,34,118,22,33,258,207,225,91,243,96,220,204,122,120,97,218,268,25,136,157,286,296,60,43,127,287,69,140,70,81,185,99,236,266,30,128,52,210,149,265,275,276,274,76,294,131,86,138,104,169,213,111,1,100,200,195,145,179,214,16,191,49,6,203,161,132,164,47,121,135,196,38,139,94,95,262,154,101,113,162,189,297,65,178,264,282,219,290,107,186,0,197,150,246,177,183,283,67,51,59,106,114,188]","arrowright","0","13","50","300","[""0024_N0300_K0050_NOCLIQUE"",""0076_N0300_K0050_CLIQUE""]","",""
"","","","","","audio-keyboard-response","148","250728","0.0-61.2-0.2-1.2","","null","audio_feedback/shuffles/shuffle01.mp3","null","","","0","13","50","300","[""0024_N0300_K0050_NOCLIQUE"",""0076_N0300_K0050_CLIQUE""]","",""
"","","","","","canvas-keyboard-response","149","252047","0.0-61.3-0.3-0.3","","1246",""," ","[192,261,130,188,20,259,10,67,30,118,173,205,262,106,18,190,139,239,244,281,191,162,62,120,225,249,44,31,232,252,117,208,119,234,85,294,28,212,84,292,46,288,125,160,194,87,280,124,144,183,112,114,229,96,88,243,286,146,271,227,177,57,70,89,136,37,245,165,128,186,147,56,35,143,167,211,235,138,50,5,287,83,251,264,236,161,116,3,226,278,242,95,58,297,32,206,260,99,81,272,71,24,33,97,296,156,123,202,283,91,290,14,257,41,86,263,220,9,279,121,164,122,299,148,210,109,199,223,204,255,60,269,134,47,284,179,131,82,241,214,171,238,217,169,74,103,291,298,108,15,107,187,61,126,270,0,21,27,105,65,142,246,92,12,185,68,182,209,23,141,150,26,38,63,289,258,29,127,40,201,213,157,151,256,17,53,163,25,94,198,273,266,219,100,295,140,275,265,4,129,224,231,181,66,7,178,158,145,69,250,39,267,135,248,166,237,36,215,253,54,176,293,268,48,200,218,19,277,110,43,152,230,153,180,274,45,207,276,52,233,80,51,222,22,282,193,16,228,203,101,221,172,240,13,73,76,159,113,72,55,49,196,216,2,247,34,75,133,149,154,175,1,137,197,79,285,170,195,254,189,168,78,111,11,6,102,77,98,132,64,115,104,174,8,59,90,184,155,42,93]","arrowright","0","13","50","300","[""0024_N0300_K0050_NOCLIQUE"",""0076_N0300_K0050_CLIQUE""]","",""
"","","","","","audio-keyboard-response","150","252629","0.0-61.3-0.3-1.3","","null","audio_feedback/shuffles/shuffle01.mp3","null","","","0","13","50","300","[""0024_N0300_K0050_NOCLIQUE"",""0076_N0300_K0050_CLIQUE""]","",""
"","","","","","canvas-keyboard-response","151","253949","0.0-61.4-0.4-0.4","","1245",""," ","[40,3,127,289,23,97,249,257,216,231,259,52,5,72,99,78,255,232,225,205,15,1,49,181,221,203,166,196,269,133,180,84,179,162,223,105,183,276,236,287,273,173,171,297,96,275,24,122,227,251,254,7,208,44,4,119,209,111,193,291,125,103,73,146,157,266,213,271,192,278,136,220,198,286,210,175,76,70,11,272,117,138,92,296,185,77,265,167,283,55,104,93,294,149,33,224,67,244,132,66,80,264,293,142,98,141,277,262,14,107,64,123,25,27,219,151,85,145,37,152,207,238,32,87,59,47,191,184,108,156,174,28,106,116,285,17,242,135,68,240,279,197,281,94,30,189,246,140,57,250,215,234,113,261,50,282,6,235,10,290,86,13,118,147,101,0,161,60,182,150,143,298,71,131,18,34,139,112,256,230,63,115,172,45,102,233,89,46,2,158,245,226,16,258,129,29,247,81,148,169,284,90,42,83,243,120,187,229,137,39,51,134,126,82,201,95,199,43,155,288,194,130,124,164,79,280,252,21,222,144,153,177,202,20,65,91,295,54,176,188,163,214,56,75,253,109,128,88,200,190,274,100,8,48,212,299,170,22,53,268,12,26,31,41,9,114,19,260,121,58,239,186,237,204,217,218,165,211,195,110,270,160,241,263,206,36,69,154,35,178,168,61,62,228,38,292,74,248,159,267]","arrowright","0","13","50","300","[""0024_N0300_K0050_NOCLIQUE"",""0076_N0300_K0050_CLIQUE""]","",""
"","","","","","audio-keyboard-response","152","254529","0.0-61.4-0.4-1.4","","null","audio_feedback/shuffles/shuffle01.mp3","null","","","0","13","50","300","[""0024_N0300_K0050_NOCLIQUE"",""0076_N0300_K0050_CLIQUE""]","",""
"","","","","","canvas-keyboard-response","153","257046","0.0-61.5-0.5-0.5","","2456",""," ","[211,204,101,41,22,125,94,62,46,299,239,296,275,158,220,172,80,15,163,181,237,107,236,283,19,141,84,127,253,25,29,153,178,270,164,138,269,51,273,235,174,223,7,129,120,69,33,11,228,3,261,242,86,234,218,109,91,73,227,171,14,47,216,224,114,249,57,225,264,42,56,88,195,104,180,254,287,146,248,268,64,119,274,160,38,134,250,294,229,244,251,226,142,272,75,128,65,285,222,147,217,271,76,92,90,117,70,83,256,6,200,202,71,161,214,233,206,63,203,0,260,26,85,113,208,184,89,186,137,20,297,39,188,191,185,133,197,190,276,176,13,154,284,74,246,98,5,156,165,151,207,182,136,102,24,123,230,143,106,263,72,60,44,79,292,82,112,96,166,193,295,12,148,95,194,149,265,145,238,59,37,144,132,27,78,54,53,118,111,159,23,192,245,58,212,105,198,140,282,168,130,115,259,278,124,177,103,30,55,10,290,81,48,108,257,196,68,31,16,93,240,219,266,8,205,241,258,286,52,135,97,210,281,116,213,189,179,173,35,252,199,169,45,43,243,267,293,221,66,67,170,9,291,40,280,152,36,150,87,187,277,157,2,255,215,110,175,279,32,4,99,155,18,21,167,121,17,1,131,288,298,50,122,162,61,201,139,209,183,247,126,289,77,231,49,232,28,262,34,100]","arrowright","0","13","50","300","[""0024_N0300_K0050_NOCLIQUE"",""0076_N0300_K0050_CLIQUE""]","",""
"","","","","","audio-keyboard-response","154","257629","0.0-61.5-0.5-1.5","","null","audio_feedback/shuffles/shuffle01.mp3","null","","","0","13","50","300","[""0024_N0300_K0050_NOCLIQUE"",""0076_N0300_K0050_CLIQUE""]","",""
"","","","","","canvas-keyboard-response","155","258253","0.0-61.6-0.6-0.6","","565","","arrowleft","[248,282,133,265,229,154,89,34,279,25,3,117,180,10,101,235,210,109,164,152,232,153,0,21,159,239,90,56,28,177,213,85,69,193,173,176,29,185,77,17,33,147,286,140,202,104,293,297,175,99,98,123,54,212,254,78,214,284,8,103,292,122,195,267,96,291,51,290,7,200,52,289,230,240,295,266,84,1,163,16,71,66,49,237,274,23,236,259,150,62,149,260,296,231,44,196,157,249,288,86,250,225,129,61,119,126,166,121,280,2,26,226,169,36,15,168,204,94,207,131,68,79,107,216,269,110,9,115,143,38,205,227,22,76,5,271,142,275,245,201,287,108,100,46,80,228,72,83,171,151,32,251,137,111,223,82,298,283,281,165,222,194,31,4,220,186,144,55,47,6,203,74,215,11,198,120,264,299,190,139,18,285,39,81,141,127,270,170,67,134,75,183,258,241,63,20,217,182,130,263,73,60,106,244,58,48,70,97,262,50,146,135,224,156,35,233,197,64,136,57,114,167,12,37,242,272,40,209,41,14,128,252,278,273,178,148,24,65,138,124,294,172,243,191,246,219,268,211,132,113,261,92,238,155,93,255,19,116,125,118,184,53,105,218,276,208,30,158,174,253,161,162,206,145,88,257,199,42,59,27,102,160,95,187,45,91,13,247,189,192,43,234,112,179,277,256,188,181,221,87]","arrowright","0","13","50","300","[""0024_N0300_K0050_NOCLIQUE"",""0076_N0300_K0050_CLIQUE""]","","false"
"","","","","","audio-keyboard-response","156","258849","0.0-61.6-0.6-1.6","","null","audio_feedback/wrong/error01.mp3","null","","","0","13","50","300","[""0024_N0300_K0050_NOCLIQUE"",""0076_N0300_K0050_CLIQUE""]","",""
"","","","","","canvas-keyboard-response","157","262968","0.0-62.0-0.0-0.0","","4051","","arrowright","[77,256,238,1,298,181,190,131,283,99,220,30,66,83,59,145,76,35,260,273,158,146,13,272,39,57,81,177,124,173,133,274,192,189,270,37,224,229,143,88,191,289,51,36,262,162,176,242,24,25,188,288,156,271,286,138,293,123,161,160,18,90,202,265,87,183,91,72,26,54,47,193,200,41,61,244,213,232,107,43,3,235,5,79,95,144,32,31,102,11,56,140,113,269,212,261,163,101,222,203,277,121,2,297,291,153,199,85,179,149,186,159,45,264,109,172,215,231,253,223,74,135,132,276,106,65,248,19,198,243,122,78,127,152,207,40,67,93,104,116,63,284,246,219,92,167,249,251,136,209,48,168,234,34,164,170,259,258,0,4,150,148,226,82,282,196,15,69,250,64,28,201,247,89,241,134,147,178,53,27,237,290,97,115,112,154,108,228,218,46,225,280,187,204,252,29,62,55,44,214,296,278,180,10,155,84,130,294,239,142,129,70,16,245,184,38,175,23,139,110,210,105,221,197,292,281,206,151,100,194,263,255,42,275,217,114,185,233,227,22,279,111,6,98,33,254,267,117,75,50,266,80,96,240,182,287,21,268,118,285,211,120,230,9,157,137,73,174,119,171,7,71,126,128,257,103,68,236,17,208,169,94,299,205,52,60,58,86,166,8,195,49,12,14,141,165,125,295,20,216]","arrowright","0","14","45","300","[""0055_N0300_K0045_NOCLIQUE"",""0005_N0300_K0045_CLIQUE""]","","true"
"","","","","","audio-keyboard-response","158","263388","0.0-62.0-0.0-1.0","","null","audio_feedback/right/coin01.mp3","null","","","0","14","45","300","[""0055_N0300_K0045_NOCLIQUE"",""0005_N0300_K0045_CLIQUE""]","",""
"","","","","","canvas-keyboard-response","159","267336","0.0-63.0-0.0-0.0","","3875",""," ","[51,42,68,45,257,19,64,165,167,260,33,233,228,23,12,202,3,96,13,108,105,85,65,295,297,40,288,222,17,216,162,128,291,118,104,150,203,103,126,110,214,141,172,195,93,264,6,39,86,147,90,281,125,146,66,16,24,54,247,224,207,43,112,5,92,144,25,47,136,263,245,142,290,74,114,4,271,55,189,282,256,253,298,89,80,198,284,106,130,9,199,258,205,212,180,248,249,252,53,44,70,30,193,266,191,8,275,140,21,134,20,226,60,73,15,77,182,156,11,293,26,129,243,186,121,48,296,200,75,143,234,278,10,27,168,94,135,190,52,58,46,41,187,166,22,236,279,268,76,177,280,124,213,285,242,38,152,244,98,210,145,67,287,185,111,197,149,157,174,148,127,164,109,82,176,7,173,217,204,179,29,215,251,196,262,56,231,227,113,218,115,274,255,119,132,155,158,194,265,286,270,219,32,151,292,175,206,116,100,138,208,232,299,211,99,97,235,273,34,163,36,188,170,95,57,84,28,14,283,254,81,37,183,69,78,120,159,139,61,123,107,289,18,239,192,79,171,276,0,2,1,83,131,71,50,229,153,91,201,160,269,261,122,63,267,225,237,250,161,240,169,62,238,272,223,137,221,209,259,241,246,49,230,31,184,88,277,35,72,101,294,59,154,133,220,181,117,102,87,178]","arrowright","0","15","45","300","[""0034_N0300_K0045_NOCLIQUE"",""0081_N0300_K0045_CLIQUE""]","",""
"","","","","","audio-keyboard-response","160","267910","0.0-63.0-0.0-1.0","","null","audio_feedback/shuffles/shuffle01.mp3","null","","","0","15","45","300","[""0034_N0300_K0045_NOCLIQUE"",""0081_N0300_K0045_CLIQUE""]","",""
"","","","","","canvas-keyboard-response","161","268981","0.0-63.1-0.1-0.1","","995",""," ","[202,295,99,48,63,197,289,26,216,7,106,194,297,41,229,290,225,271,107,242,206,239,104,230,173,277,23,253,67,211,157,249,52,91,117,167,28,20,192,61,94,3,275,270,85,233,89,16,46,231,196,58,193,51,150,14,10,148,122,226,38,227,278,110,299,50,284,8,159,174,189,236,109,205,5,171,152,237,276,286,144,135,116,83,268,176,190,149,285,156,59,208,124,136,71,82,224,257,269,113,178,232,251,131,77,40,142,164,154,272,84,198,294,260,210,134,64,100,214,183,293,259,68,127,101,137,86,280,39,87,264,168,72,204,263,6,49,62,32,258,291,222,44,244,151,281,47,90,45,97,200,65,184,93,186,143,24,9,78,12,250,133,273,288,298,18,228,254,53,215,42,219,129,161,292,60,191,19,187,37,235,56,15,163,188,265,21,69,88,177,155,218,1,199,96,262,0,139,240,185,29,287,220,2,128,213,266,221,119,147,166,170,181,145,27,95,120,22,17,238,34,138,103,57,112,66,35,162,118,102,25,179,140,267,203,98,247,115,55,282,81,70,252,201,79,212,283,43,182,207,13,4,141,296,114,241,158,125,75,30,105,256,73,153,76,180,243,121,130,245,165,54,274,172,108,123,209,126,279,261,255,11,217,31,246,74,36,92,160,146,248,175,195,223,80,111,33,234,169,132]","arrowright","0","15","45","300","[""0034_N0300_K0045_NOCLIQUE"",""0081_N0300_K0045_CLIQUE""]","",""
"","","","","","audio-keyboard-response","162","269549","0.0-63.1-0.1-1.1","","null","audio_feedback/shuffles/shuffle01.mp3","null","","","0","15","45","300","[""0034_N0300_K0045_NOCLIQUE"",""0081_N0300_K0045_CLIQUE""]","",""
"","","","","","canvas-keyboard-response","163","270617","0.0-63.2-0.2-0.2","","996",""," ","[287,115,290,26,59,65,239,232,192,111,222,219,240,18,134,294,74,241,49,80,204,120,63,16,254,220,64,272,45,172,207,19,108,260,158,198,101,267,14,116,212,60,110,46,90,247,100,289,72,87,52,91,276,150,170,183,109,159,118,164,248,142,189,140,251,213,186,166,138,298,273,201,71,143,190,20,263,162,113,32,21,173,258,231,227,75,9,191,114,135,27,56,2,58,54,262,144,243,89,288,293,230,84,97,102,28,255,92,79,224,151,66,168,22,246,99,6,234,83,229,130,218,137,139,7,253,245,195,146,214,292,163,141,13,235,178,244,39,211,154,157,31,47,29,210,85,197,55,216,271,41,278,167,128,179,265,236,221,171,94,48,33,206,125,268,98,70,119,205,291,30,123,259,117,194,193,295,270,105,250,0,121,38,122,176,181,23,215,50,145,78,257,127,188,8,5,132,43,177,25,199,238,161,107,12,57,242,280,10,42,228,226,69,169,44,93,51,88,1,299,208,264,249,68,133,209,17,180,281,279,103,182,147,202,196,106,3,112,184,76,24,73,285,165,266,284,34,237,185,96,129,36,156,282,61,86,149,155,275,286,160,152,283,40,62,261,297,11,277,175,35,148,77,269,53,37,256,296,223,131,104,200,217,203,225,252,67,187,233,95,153,15,136,126,4,81,274,174,124,82]","arrowright","0","15","45","300","[""0034_N0300_K0045_NOCLIQUE"",""0081_N0300_K0045_CLIQUE""]","",""
