"success","timeout","failed_images","failed_audio","failed_video","trial_type","trial_index","time_elapsed","internal_node_id","view_history","rt","stimulus","response","nodes_order","correct_response","graphs_couple","accuracy","block_index","presentation_index","clique_size","graph_size","graphs_names"
"true","false","[]","[]","[]","preload","0","3675","0.0-0.0","","","","","","","","","","","","",""
"","","","","","pavlovia","1","5503","0.0-1.0","","","","","","","","","","","","",""
"","","","","","instructions","2","15207","0.0-2.0","[{""page_index"":0,""viewing_time"":6047},{""page_index"":1,""viewing_time"":3648}]","9695","","","","","","","","","","",""
"true","false","[]","[]","[]","preload","3","21161","0.0-3.0","","","","","","","","","","","","",""
"","","","","","instructions","4","93777","0.0-4.0","[{""page_index"":0,""viewing_time"":18777},{""page_index"":1,""viewing_time"":1392},{""page_index"":2,""viewing_time"":1039},{""page_index"":3,""viewing_time"":925},{""page_index"":4,""viewing_time"":1083},{""page_index"":5,""viewing_time"":712},{""page_index"":6,""viewing_time"":537},{""page_index"":7,""viewing_time"":401},{""page_index"":8,""viewing_time"":420},{""page_index"":9,""viewing_time"":761},{""page_index"":10,""viewing_time"":485},{""page_index"":11,""viewing_time"":929},{""page_index"":12,""viewing_time"":597},{""page_index"":13,""viewing_time"":1048},{""page_index"":14,""viewing_time"":465},{""page_index"":15,""viewing_time"":394},{""page_index"":16,""viewing_time"":454},{""page_index"":17,""viewing_time"":740},{""page_index"":18,""viewing_time"":365},{""page_index"":19,""viewing_time"":742},{""page_index"":20,""viewing_time"":637},{""page_index"":21,""viewing_time"":1029},{""page_index"":22,""viewing_time"":690},{""page_index"":23,""viewing_time"":608},{""page_index"":24,""viewing_time"":489},{""page_index"":25,""viewing_time"":2231},{""page_index"":26,""viewing_time"":1196},{""page_index"":27,""viewing_time"":1103},{""page_index"":28,""viewing_time"":629},{""page_index"":29,""viewing_time"":529},{""page_index"":30,""viewing_time"":417},{""page_index"":31,""viewing_time"":444},{""page_index"":32,""viewing_time"":2743},{""page_index"":33,""viewing_time"":2110},{""page_index"":34,""viewing_time"":826},{""page_index"":35,""viewing_time"":782},{""page_index"":36,""viewing_time"":1866},{""page_index"":37,""viewing_time"":1740},{""page_index"":38,""viewing_time"":1785},{""page_index"":39,""viewing_time"":919},{""page_index"":40,""viewing_time"":877},{""page_index"":41,""viewing_time"":1016},{""page_index"":42,""viewing_time"":1075},{""page_index"":43,""viewing_time"":5481},{""page_index"":44,""viewing_time"":1817},{""page_index"":45,""viewing_time"":2164},{""page_index"":46,""viewing_time"":989},{""page_index"":47,""viewing_time"":1324},{""page_index"":48,""viewing_time"":812},{""page_index"":49,""viewing_time"":662},{""page_index"":50,""viewing_time"":852},{""page_index"":51,""viewing_time"":505}]","72615","","","","","","","","","","",""
"","","","","","instructions","5","97015","0.0-5.0","[{""page_index"":0,""viewing_time"":3238}]","3238","","","","","","","","","","",""
"true","false","[]","[]","[]","preload","6","100964","0.0-6.0","","","","","","","","","","","","",""
"","","","","","image-keyboard-response","7","120199","0.0-7.0","","19229","tutorial/task_familiarization_images/part 1/01_N160_K90_cliqueRight_question1.PNG"," ","","","","","","","","",""
"","","","","","image-keyboard-response","8","122142","0.0-8.0","","1941","tutorial/task_familiarization_images/part 1/02_N160_K90_cliqueRight_question2.PNG"," ","","","","","","","","",""
"","","","","","image-keyboard-response","9","126105","0.0-9.0","","3960","tutorial/task_familiarization_images/part 1/03_N160_K90_cliqueRight_question3.PNG","arrowright","","","","","","","","",""
"","","","","","image-keyboard-response","10","129749","0.0-10.0","","3639","tutorial/task_familiarization_images/part 1/04_N160_K90_cliqueRight_solution.PNG"," ","","","","","","","","",""
"","","","","","image-keyboard-response","11","136152","0.0-11.0","","6399","tutorial/task_familiarization_images/part 1/05_N160_K65_cliqueRight_question1.PNG"," ","","","","","","","","",""
"","","","","","image-keyboard-response","12","137381","0.0-12.0","","1227","tutorial/task_familiarization_images/part 1/06_N160_K65_cliqueRight_question2.PNG"," ","","","","","","","","",""
"","","","","","image-keyboard-response","13","139195","0.0-13.0","","1811","tutorial/task_familiarization_images/part 1/07_N160_K65_cliqueRight_question3.PNG","arrowright","","","","","","","","",""
"","","","","","image-keyboard-response","14","140420","0.0-14.0","","1223","tutorial/task_familiarization_images/part 1/08_N160_K65_cliqueRight_solution.PNG"," ","","","","","","","","",""
"","","","","","image-keyboard-response","15","143286","0.0-15.0","","2864","tutorial/task_familiarization_images/part 1/09_N160_K50_cliqueLeft_question1.PNG"," ","","","","","","","","",""
"","","","","","image-keyboard-response","16","144649","0.0-16.0","","1359","tutorial/task_familiarization_images/part 1/10_N160_K50_cliqueLeft_question2.PNG"," ","","","","","","","","",""
"","","","","","image-keyboard-response","17","145963","0.0-17.0","","1313","tutorial/task_familiarization_images/part 1/11_N160_K50_cliqueLeft_question3.PNG","arrowleft","","","","","","","","",""
"","","","","","image-keyboard-response","18","147415","0.0-18.0","","1449","tutorial/task_familiarization_images/part 1/12_N160_K50_cliqueLeft_solution.PNG"," ","","","","","","","","",""
"","","","","","image-keyboard-response","19","148877","0.0-19.0","","1461","tutorial/task_familiarization_images/part 1/13_N160_K80_cliqueLeft_question1.PNG"," ","","","","","","","","",""
"","","","","","image-keyboard-response","20","149456","0.0-20.0","","578","tutorial/task_familiarization_images/part 1/14_N160_K80_cliqueLeft_question2.PNG"," ","","","","","","","","",""
"","","","","","image-keyboard-response","21","150547","0.0-21.0","","1088","tutorial/task_familiarization_images/part 1/15_N160_K80_cliqueLeft_question3.PNG","arrowleft","","","","","","","","",""
"","","","","","image-keyboard-response","22","151401","0.0-22.0","","852","tutorial/task_familiarization_images/part 1/16_N160_K80_cliqueLeft_solution.PNG"," ","","","","","","","","",""
"","","","","","image-keyboard-response","23","152387","0.0-23.0","","984","tutorial/task_familiarization_images/part 1/17_N160_K40_cliqueRight_question1.PNG"," ","","","","","","","","",""
"","","","","","image-keyboard-response","24","152978","0.0-24.0","","585","tutorial/task_familiarization_images/part 1/18_N160_K40_cliqueRight_question2.PNG"," ","","","","","","","","",""
"","","","","","image-keyboard-response","25","153786","0.0-25.0","","805","tutorial/task_familiarization_images/part 1/19_N160_K40_cliqueRight_question3.PNG","arrowright","","","","","","","","",""
"","","","","","image-keyboard-response","26","154735","0.0-26.0","","948","tutorial/task_familiarization_images/part 1/20_N160_K40_cliqueRight_solution.PNG"," ","","","","","","","","",""
"","","","","","image-keyboard-response","27","156063","0.0-27.0","","1325","tutorial/task_familiarization_images/part 1/21_N160_K70_cliqueLeft_question1.PNG"," ","","","","","","","","",""
"","","","","","image-keyboard-response","28","157034","0.0-28.0","","969","tutorial/task_familiarization_images/part 1/22_N160_K70_cliqueLeft_question2.PNG"," ","","","","","","","","",""
"","","","","","image-keyboard-response","29","158002","0.0-29.0","","966","tutorial/task_familiarization_images/part 1/23_N160_K70_cliqueLeft_question3.PNG","arrowleft","","","","","","","","",""
"","","","","","image-keyboard-response","30","158594","0.0-30.0","","591","tutorial/task_familiarization_images/part 1/24_N160_K70_cliqueLeft_solution.PNG"," ","","","","","","","","",""
"true","false","[]","[]","[]","preload","31","161562","0.0-31.0","","","","","","","","","","","","",""
"","","","","","image-keyboard-response","32","176377","0.0-32.0","","14813","tutorial/task_familiarization_images/part 2/01_160_80_cliqueLeft_withFeedback_1.PNG"," ","","","","","","","","",""
"","","","","","image-keyboard-response","33","179293","0.0-33.0","","2912","tutorial/task_familiarization_images/part 2/02_160_80_cliqueLeft_withFeedback_1.PNG"," ","","","","","","","","",""
"","","","","","image-keyboard-response","34","182834","0.0-34.0","","3539","tutorial/task_familiarization_images/part 2/03_160_80_cliqueLeft_withFeedback_3.PNG","arrowleft","","","","","","","","",""
"","","","","","image-keyboard-response","35","187382","0.0-35.0","","4543","tutorial/task_familiarization_images/part 2/04_160_80_cliqueLeft_withFeedback_correct.PNG"," ","","","","","","","","",""
"","","","","","image-keyboard-response","36","191860","0.0-36.0","","4470","tutorial/task_familiarization_images/part 2/05_160_55_cliqueRight_withFeedback_1.PNG"," ","","","","","","","","",""
"","","","","","image-keyboard-response","37","194277","0.0-37.0","","2415","tutorial/task_familiarization_images/part 2/06_160_55_cliqueRight_withFeedback_2.PNG"," ","","","","","","","","",""
"","","","","","image-keyboard-response","38","194882","0.0-38.0","","603","tutorial/task_familiarization_images/part 2/07_160_55_cliqueRight_withFeedback_3.PNG","arrowright","","","","","","","","",""
"","","","","","image-keyboard-response","39","196939","0.0-39.0","","2054","tutorial/task_familiarization_images/part 2/08_160_55_cliqueRight_withFeedback_correct.PNG"," ","","","","","","","","",""
"","","","","","image-keyboard-response","40","199360","0.0-40.0","","2419","tutorial/task_familiarization_images/part 2/09_160_70_cliqueLeft_withFeedback_1.PNG"," ","","","","","","","","",""
"","","","","","image-keyboard-response","41","201163","0.0-41.0","","1802","tutorial/task_familiarization_images/part 2/10_160_70_cliqueLeft_withFeedback_2.PNG"," ","","","","","","","","",""
"","","","","","image-keyboard-response","42","201528","0.0-42.0","","362","tutorial/task_familiarization_images/part 2/11_160_70_cliqueLeft_withFeedback_3.PNG","arrowleft","","","","","","","","",""
"","","","","","image-keyboard-response","43","211733","0.0-43.0","","10203","tutorial/task_familiarization_images/part 2/12_160_70_cliqueLeft_withFeedback_correct.PNG"," ","","","","","","","","",""
"","","","","","survey-html-form","44","226995","0.0-44.0","","15260","","{""gender"":""female"",""age"":""27""}","","","","","","","","",""
"","","","","","instructions","45","229576","0.0-45.0","[{""page_index"":0,""viewing_time"":2579}]","2579","","","","","","","","","","",""
"true","","","","","fullscreen","46","232612","0.0-47.0","","","","","","","","","","","","",""
"","","","","","canvas-keyboard-response","47","235627","0.0-48.0-0.0-0.0","","2722","","arrowleft","[192,43,116,30,33,297,151,199,225,55,172,16,248,170,274,242,185,56,27,277,209,68,0,78,290,101,46,131,96,108,289,52,157,59,195,240,284,146,36,104,5,270,276,190,90,148,186,164,226,173,42,275,110,79,196,187,92,9,130,71,94,212,150,273,211,223,249,198,114,181,18,268,188,149,31,132,205,99,272,54,197,142,117,67,4,162,123,29,87,294,139,102,137,299,105,295,203,168,161,95,214,189,129,22,234,7,70,88,230,145,17,264,57,44,216,115,180,155,76,291,45,121,171,243,232,113,265,50,156,235,207,293,260,47,122,254,80,263,21,237,261,202,61,153,250,210,245,63,159,283,51,152,81,72,256,184,97,15,176,154,1,69,169,111,163,58,11,255,229,77,222,204,66,73,247,20,239,158,133,278,259,86,177,279,19,298,39,49,174,140,257,191,128,126,251,32,6,218,281,286,109,244,224,266,118,75,138,103,12,241,287,228,64,179,8,41,258,136,112,141,178,219,60,233,107,165,183,143,160,252,262,28,26,40,206,65,38,280,48,120,215,3,24,91,271,194,296,201,127,166,236,82,25,227,134,74,269,292,100,93,231,144,253,267,119,208,135,34,2,217,124,98,282,10,200,220,167,182,85,285,106,35,37,53,13,84,62,288,89,147,221,193,246,83,175,23,238,125,213,14]","arrowleft","","true","0","0","90","300","[""0043_N0300_K0090_CLIQUE"",""0017_N0300_K0090_NOCLIQUE""]"
"","","","","","audio-keyboard-response","48","236118","0.0-48.0-0.0-1.0","","null","audio_feedback/right/coin01.mp3","null","","","","","0","0","90","300","[""0043_N0300_K0090_CLIQUE"",""0017_N0300_K0090_NOCLIQUE""]"
"","","","","","canvas-keyboard-response","49","237703","0.0-49.0-0.0-0.0","","1406","","arrowleft","[92,8,148,221,31,109,240,211,175,180,100,20,256,281,10,51,183,167,206,279,149,104,174,191,46,200,16,84,133,29,228,237,59,252,122,241,203,38,91,39,299,25,223,283,56,198,64,139,94,52,103,112,90,187,290,34,2,222,108,219,33,258,62,230,99,278,201,82,60,35,298,266,284,194,136,280,119,178,268,202,260,111,156,125,70,131,246,24,297,170,207,58,188,274,110,121,265,243,244,143,165,102,76,15,204,155,79,138,45,176,289,217,236,83,9,227,18,140,44,248,72,224,296,161,150,153,209,41,272,291,262,164,226,132,89,196,215,169,71,135,197,101,172,77,157,85,263,259,55,32,273,116,105,295,118,19,87,239,294,190,124,86,141,214,27,159,65,208,96,229,192,88,184,250,127,57,171,43,232,53,113,106,186,117,271,247,61,93,69,285,286,1,162,6,193,17,158,21,235,114,276,257,78,293,80,67,238,97,50,123,181,137,12,144,68,23,287,154,142,269,28,220,242,189,48,163,182,147,166,195,66,145,245,95,231,212,254,146,177,213,199,4,168,49,267,5,0,40,81,13,277,205,282,126,234,47,288,37,134,3,264,129,210,11,130,255,152,151,270,261,115,128,233,179,292,107,275,173,253,63,30,249,120,22,74,14,73,42,218,98,26,185,160,225,36,54,216,7,75,251]","arrowleft","","true","0","1","90","300","[""0041_N0300_K0090_CLIQUE"",""0018_N0300_K0090_NOCLIQUE""]"
"","","","","","audio-keyboard-response","50","238123","0.0-49.0-0.0-1.0","","null","audio_feedback/right/coin01.mp3","null","","","","","0","1","90","300","[""0041_N0300_K0090_CLIQUE"",""0018_N0300_K0090_NOCLIQUE""]"
"","","","","","canvas-keyboard-response","51","240031","0.0-50.0-0.0-0.0","","1730","","arrowleft","[3,125,179,162,178,18,150,141,180,223,253,250,192,22,158,155,6,86,109,222,48,290,157,285,211,189,194,154,133,101,210,187,272,299,88,37,165,118,55,279,126,249,39,268,97,85,128,49,171,245,256,266,183,96,235,23,53,52,46,75,291,28,225,137,244,229,135,228,104,287,240,2,254,63,71,255,26,271,257,273,181,64,21,74,59,197,217,138,14,201,278,160,5,248,25,221,42,35,164,149,281,112,91,72,31,84,152,185,159,81,238,209,120,98,89,206,232,34,145,140,19,54,113,7,92,9,186,177,176,10,93,117,193,87,61,58,243,17,83,230,267,15,148,199,252,43,277,260,129,184,251,191,79,60,108,241,130,161,198,142,156,57,77,99,106,233,95,29,292,114,66,218,236,139,1,67,4,119,288,203,212,105,246,144,27,208,182,33,242,215,11,94,289,213,276,265,200,295,280,121,297,190,124,131,270,296,134,47,274,90,38,80,56,30,102,151,136,32,259,205,51,261,44,70,239,188,13,41,263,231,173,115,275,146,69,168,293,65,220,147,40,195,68,284,122,169,175,110,170,282,62,234,8,172,167,298,153,294,73,286,76,20,36,82,127,111,24,163,216,16,132,258,262,107,45,269,78,12,166,214,123,100,143,207,227,237,224,174,264,226,196,219,204,103,247,202,116,283,0,50]","arrowleft","","true","0","2","80","300","[""0039_N0300_K0080_CLIQUE"",""0009_N0300_K0080_NOCLIQUE""]"
"","","","","","audio-keyboard-response","52","240448","0.0-50.0-0.0-1.0","","null","audio_feedback/right/coin01.mp3","null","","","","","0","2","80","300","[""0039_N0300_K0080_CLIQUE"",""0009_N0300_K0080_NOCLIQUE""]"
"","","","","","canvas-keyboard-response","53","241885","0.0-51.0-0.0-0.0","","1314","","arrowleft","[131,31,191,204,22,18,111,160,137,3,222,243,8,29,67,62,248,37,47,83,151,93,147,53,228,216,32,262,70,120,121,168,226,286,247,28,52,294,230,249,269,103,266,72,254,264,110,27,96,209,36,10,185,289,200,56,277,210,280,239,40,86,20,231,265,276,159,117,205,13,59,192,78,223,46,84,186,88,221,153,196,215,272,206,42,71,135,116,85,274,180,55,298,164,253,23,271,157,162,4,90,79,172,104,229,291,99,299,263,273,122,12,61,24,149,256,189,212,102,167,188,245,141,123,181,252,214,234,91,244,246,176,156,1,211,283,57,118,241,233,15,100,148,177,242,240,285,225,184,134,39,124,60,80,279,64,193,5,2,44,0,275,142,144,250,194,74,33,94,76,34,146,49,25,129,6,261,297,112,9,132,270,69,133,163,175,166,158,284,125,54,17,238,292,195,108,114,199,30,217,101,236,154,75,107,268,295,190,136,287,66,183,65,170,207,288,173,235,197,278,81,38,251,68,258,119,155,97,11,19,21,51,152,145,213,43,113,140,82,95,187,293,171,143,63,130,89,106,224,73,208,109,92,218,14,281,202,7,35,232,169,26,139,198,45,128,161,237,115,41,165,201,219,282,105,138,127,48,220,203,259,267,174,126,182,260,290,87,255,50,179,296,257,150,77,227,58,98,178,16]","arrowleft","","true","0","3","80","300","[""0027_N0300_K0080_CLIQUE"",""0010_N0300_K0080_NOCLIQUE""]"
"","","","","","audio-keyboard-response","54","242305","0.0-51.0-0.0-1.0","","null","audio_feedback/right/coin01.mp3","null","","","","","0","3","80","300","[""0027_N0300_K0080_CLIQUE"",""0010_N0300_K0080_NOCLIQUE""]"
"","","","","","canvas-keyboard-response","55","247164","0.0-52.0-0.0-0.0","","4639",""," ","[189,17,38,47,122,22,14,188,209,230,150,99,167,33,266,212,128,138,237,46,18,25,95,161,119,250,30,174,294,210,267,10,173,92,256,100,158,67,96,130,228,23,11,251,63,42,97,139,43,114,74,159,113,132,224,283,176,293,8,246,244,241,232,112,19,129,276,277,51,7,254,160,151,81,182,179,171,169,245,198,142,40,257,29,166,203,152,50,235,131,221,192,68,253,32,286,2,196,103,98,109,89,115,172,141,207,275,271,16,15,296,184,93,87,229,240,175,280,125,262,180,186,85,59,265,133,215,6,278,239,217,75,205,91,202,107,148,123,39,193,292,49,155,195,263,191,269,149,222,45,65,268,170,226,28,177,299,297,111,66,211,194,200,106,3,290,82,36,216,127,9,233,199,156,124,258,86,5,37,214,41,117,140,94,21,52,284,252,55,137,165,121,272,287,126,220,64,83,77,90,273,84,270,61,243,247,295,231,197,27,291,223,69,164,259,76,88,281,153,80,31,135,162,236,206,26,289,248,108,219,147,190,146,204,181,13,105,0,60,238,183,163,279,72,12,260,62,285,242,282,110,118,1,4,208,234,24,136,157,35,101,255,56,34,73,178,78,120,288,264,20,48,71,218,79,298,225,44,201,274,53,144,227,168,213,134,104,102,54,154,187,116,185,261,58,249,143,70,145,57]","arrowleft","","","0","4","70","300","[""0053_N0300_K0070_CLIQUE"",""0018_N0300_K0070_NOCLIQUE""]"
"","","","","","audio-keyboard-response","56","247766","0.0-52.0-0.0-1.0","","null","audio_feedback/shuffles/shuffle01.mp3","null","","","","","0","4","70","300","[""0053_N0300_K0070_CLIQUE"",""0018_N0300_K0070_NOCLIQUE""]"
"","","","","","canvas-keyboard-response","57","249364","0.0-52.1-0.1-0.1","","1402","","arrowleft","[266,184,218,90,186,263,191,180,260,279,277,149,174,264,14,223,45,132,234,47,168,103,68,94,38,8,46,57,256,91,237,187,217,288,97,128,69,257,175,225,241,227,164,31,146,154,297,129,171,15,287,142,96,248,113,236,50,209,173,105,206,67,95,25,259,196,26,255,178,181,204,109,268,283,79,176,136,222,182,148,199,1,42,139,285,159,86,36,151,200,81,145,238,189,121,99,167,89,72,84,108,87,197,245,140,270,185,115,54,291,60,286,104,24,262,59,269,156,21,85,82,83,152,133,63,76,93,169,98,239,19,296,43,235,246,267,88,4,162,201,39,243,41,249,20,120,0,27,9,252,29,202,77,219,276,233,23,11,123,265,51,278,229,261,147,44,112,75,135,124,203,157,117,62,275,80,17,228,190,232,134,126,207,127,144,130,214,160,10,282,194,111,155,92,2,49,5,274,244,216,55,141,242,70,18,102,106,295,230,153,73,56,165,3,114,12,170,179,215,118,66,211,110,298,30,64,188,247,294,172,71,198,119,221,163,28,122,32,58,273,166,251,212,195,33,210,205,137,16,53,299,138,48,224,101,289,150,192,220,100,74,250,258,226,254,61,271,280,125,13,34,290,208,193,40,35,78,281,6,213,284,107,292,37,22,116,143,272,161,231,131,52,7,240,253,177,183,65,293,158]","arrowleft","","true","0","4","70","300","[""0053_N0300_K0070_CLIQUE"",""0018_N0300_K0070_NOCLIQUE""]"
"","","","","","audio-keyboard-response","58","249792","0.0-52.1-0.1-1.1","","null","audio_feedback/right/coin01.mp3","null","","","","","0","4","70","300","[""0053_N0300_K0070_CLIQUE"",""0018_N0300_K0070_NOCLIQUE""]"
"","","","","","canvas-keyboard-response","59","250721","0.0-53.0-0.0-0.0","","775","","arrowleft","[216,170,197,191,123,6,125,270,217,279,182,252,257,221,2,129,21,234,62,28,14,94,152,198,212,118,30,111,54,251,220,40,3,203,132,199,65,23,61,187,230,75,248,50,95,274,136,114,24,200,122,66,293,214,223,299,211,53,149,133,285,102,229,219,39,0,112,148,5,150,130,15,232,81,33,68,195,7,240,246,261,207,176,96,104,35,264,77,146,127,83,143,12,282,289,181,236,189,171,168,295,286,231,165,290,255,29,67,64,48,47,275,184,76,128,161,224,243,1,266,46,8,91,60,89,174,59,167,196,241,265,34,215,45,141,90,206,194,69,86,183,57,188,26,52,177,116,126,284,37,41,179,242,144,172,278,38,155,276,44,63,163,263,162,137,269,169,185,88,210,25,124,225,82,103,142,18,138,55,213,85,19,173,253,238,110,49,249,4,227,164,20,84,97,244,11,140,178,22,280,202,92,193,205,80,135,107,119,273,101,296,180,277,73,192,27,51,222,106,70,201,42,153,121,226,10,268,32,204,159,108,292,99,16,17,271,31,291,145,235,237,260,297,218,79,288,190,105,272,78,233,147,71,209,113,87,259,298,93,157,151,239,160,117,36,98,247,228,56,74,283,175,115,9,13,262,43,256,208,166,109,267,250,294,245,72,158,254,134,139,186,120,258,100,287,281,156,58,154,131]","arrowleft","","true","0","5","70","300","[""0086_N0300_K0070_CLIQUE"",""0090_N0300_K0070_NOCLIQUE""]"
"","","","","","audio-keyboard-response","60","251137","0.0-53.0-0.0-1.0","","null","audio_feedback/right/coin01.mp3","null","","","","","0","5","70","300","[""0086_N0300_K0070_CLIQUE"",""0090_N0300_K0070_NOCLIQUE""]"
"","","","","","canvas-keyboard-response","61","252332","0.0-54.0-0.0-0.0","","1032","","arrowleft","[111,253,48,259,71,64,200,136,154,180,115,224,107,241,25,289,80,242,138,76,187,272,34,267,5,185,68,39,285,249,292,66,261,238,219,19,197,43,21,133,32,299,1,122,145,233,217,142,211,65,11,102,254,100,296,120,6,15,189,81,29,67,201,95,13,153,24,38,74,152,112,94,135,276,110,212,131,85,143,99,128,274,191,208,172,88,33,251,3,157,265,198,84,164,181,170,101,232,18,283,10,255,42,27,287,188,92,163,273,22,4,116,127,9,222,91,176,50,7,8,284,193,79,40,177,30,286,20,166,155,190,214,31,192,90,252,162,236,49,77,269,141,104,144,78,203,53,14,147,290,288,70,114,61,173,87,158,56,237,270,247,139,225,113,123,264,35,245,231,36,121,215,230,69,282,109,132,148,298,256,62,250,169,93,175,223,171,183,83,98,281,96,159,179,149,63,278,26,227,235,17,271,209,218,108,146,134,106,58,258,291,207,73,2,161,210,266,182,216,130,206,156,72,174,202,151,228,275,246,167,186,16,124,119,268,280,12,184,54,260,37,196,240,234,0,41,199,220,60,28,160,125,129,57,59,204,137,105,47,295,117,51,257,263,55,97,82,297,23,293,294,89,126,277,195,140,46,243,248,221,229,244,150,279,262,194,178,52,44,168,103,165,45,75,118,86,226,205,213,239]","arrowright","","false","0","6","65","300","[""0086_N0300_K0065_NOCLIQUE"",""0084_N0300_K0065_CLIQUE""]"
"","","","","","audio-keyboard-response","62","252950","0.0-54.0-0.0-1.0","","null","audio_feedback/wrong/error01.mp3","null","","","","","0","6","65","300","[""0086_N0300_K0065_NOCLIQUE"",""0084_N0300_K0065_CLIQUE""]"
"","","","","","canvas-keyboard-response","63","256106","0.0-55.0-0.0-0.0","","3001","","arrowright","[110,280,233,193,207,201,29,267,162,1,251,67,23,132,277,166,76,191,293,79,276,250,11,77,139,46,49,229,144,204,200,299,65,103,78,262,34,147,223,68,252,138,7,36,122,38,5,224,117,175,3,80,230,294,270,96,171,114,101,247,202,112,109,228,85,245,74,168,153,53,143,235,90,278,135,2,127,260,186,160,205,159,209,73,113,187,208,128,98,261,273,170,249,86,16,288,119,185,158,0,14,47,108,10,30,174,190,75,72,222,28,88,83,99,141,37,71,177,152,54,22,279,272,220,173,156,157,26,64,42,189,55,295,81,21,161,51,264,225,105,124,20,287,84,62,95,179,4,198,148,263,169,239,115,58,284,221,181,102,130,194,59,211,107,17,151,196,266,33,56,69,291,283,286,9,237,82,248,163,164,145,13,57,254,234,268,271,126,243,246,66,125,240,269,18,121,292,137,118,97,274,275,27,219,206,289,35,244,44,155,63,296,70,60,298,188,216,195,25,146,134,87,43,232,93,52,136,242,15,215,241,120,178,104,258,111,167,227,218,94,131,12,41,297,214,231,182,32,149,140,92,106,256,45,255,39,210,253,213,165,133,217,24,282,19,61,265,89,285,281,50,290,238,212,192,48,116,197,203,123,236,176,184,183,6,40,154,259,180,91,150,129,257,142,199,226,172,100,31,8]","arrowright","","true","0","7","65","300","[""0073_N0300_K0065_NOCLIQUE"",""0019_N0300_K0065_CLIQUE""]"
"","","","","","audio-keyboard-response","64","256534","0.0-55.0-0.0-1.0","","null","audio_feedback/right/coin01.mp3","null","","","","","0","7","65","300","[""0073_N0300_K0065_NOCLIQUE"",""0019_N0300_K0065_CLIQUE""]"
"","","","","","canvas-keyboard-response","65","261304","0.0-56.0-0.0-0.0","","4571",""," ","[208,98,40,202,159,175,16,96,46,74,108,261,77,281,122,115,188,12,80,138,38,215,174,271,157,29,246,205,252,20,169,189,25,262,296,109,207,284,155,23,49,230,58,30,133,221,53,226,241,67,276,254,285,168,135,171,55,83,275,299,144,265,51,224,76,206,124,36,44,13,27,100,260,255,65,197,61,118,239,209,245,247,81,222,110,243,163,278,183,5,31,39,256,90,63,217,117,72,229,68,273,52,142,85,195,141,167,165,11,191,113,79,272,125,203,268,149,37,14,282,166,158,270,78,150,127,225,71,70,143,279,84,216,54,130,140,4,22,238,280,64,28,139,121,244,131,291,66,253,218,160,105,6,187,10,178,92,116,190,43,156,136,212,102,286,219,213,180,95,62,176,266,182,251,259,111,237,7,134,147,86,101,228,198,8,170,89,292,145,114,154,148,249,106,99,132,164,294,287,297,196,240,18,152,82,3,227,73,146,184,126,220,59,185,112,179,75,293,94,60,104,33,267,289,120,2,107,15,274,21,57,19,153,129,26,45,1,283,233,211,0,214,35,204,41,91,48,192,128,123,34,248,151,201,194,42,162,242,177,199,210,56,295,258,103,173,47,87,235,290,161,93,97,250,193,9,288,88,263,298,257,137,236,277,186,50,69,32,269,181,172,231,264,200,223,119,234,17,232,24]","arrowright","","","0","8","60","300","[""0007_N0300_K0060_NOCLIQUE"",""0083_N0300_K0060_CLIQUE""]"
"","","","","","audio-keyboard-response","66","261867","0.0-56.0-0.0-1.0","","null","audio_feedback/shuffles/shuffle01.mp3","null","","","","","0","8","60","300","[""0007_N0300_K0060_NOCLIQUE"",""0083_N0300_K0060_CLIQUE""]"
"","","","","","canvas-keyboard-response","67","263195","0.0-56.1-0.1-0.1","","1173","","arrowright","[237,152,30,28,139,297,105,124,296,160,126,221,250,147,168,192,223,224,118,68,270,213,215,173,22,257,65,261,263,163,281,233,210,69,199,174,76,158,201,131,100,88,42,53,109,91,86,39,185,62,298,248,184,17,243,142,236,40,235,225,115,8,66,178,196,63,140,151,146,18,164,262,95,55,87,89,57,285,116,204,33,275,25,230,246,209,20,254,294,176,229,149,211,145,244,279,112,177,264,80,117,208,247,44,189,251,234,127,161,153,85,107,217,79,267,52,101,111,6,253,166,31,123,64,165,59,56,144,293,34,4,73,252,219,172,114,273,58,232,218,108,255,13,290,137,93,265,150,84,119,214,7,200,97,227,205,27,188,186,269,272,67,121,83,99,12,16,242,98,120,207,45,132,206,47,202,51,280,38,32,274,92,129,61,2,125,226,75,41,238,198,15,183,284,19,113,26,134,74,3,35,14,216,277,156,299,162,96,288,167,133,78,106,260,220,154,54,104,135,148,103,271,102,203,159,266,241,287,77,60,72,9,49,94,122,24,182,292,155,256,283,258,130,231,128,180,171,240,295,187,191,46,245,239,1,190,169,21,29,291,278,110,282,71,228,212,138,195,286,193,181,179,81,36,268,175,82,276,143,0,48,222,10,43,170,90,136,194,289,50,141,157,37,5,249,11,23,197,259,70]","arrowright","","true","0","8","60","300","[""0007_N0300_K0060_NOCLIQUE"",""0083_N0300_K0060_CLIQUE""]"
"","","","","","audio-keyboard-response","68","263616","0.0-56.1-0.1-1.1","","null","audio_feedback/right/coin01.mp3","null","","","","","0","8","60","300","[""0007_N0300_K0060_NOCLIQUE"",""0083_N0300_K0060_CLIQUE""]"
"","","","","","canvas-keyboard-response","69","269257","0.0-57.0-0.0-0.0","","5466","","arrowright","[262,219,88,24,261,139,110,184,98,239,43,107,7,211,145,248,175,67,15,187,38,70,86,60,54,146,119,19,41,265,288,217,124,298,230,122,284,10,17,8,44,253,285,100,178,33,297,196,30,84,134,133,31,56,276,120,29,277,13,192,57,12,141,130,143,203,126,198,273,176,11,23,156,232,77,269,212,296,238,91,32,193,28,202,59,154,252,221,138,257,45,218,97,170,247,2,83,71,64,177,42,135,289,118,50,226,102,267,140,35,195,220,128,89,160,21,52,244,114,283,85,94,121,162,208,194,279,1,153,299,62,272,255,5,291,213,246,231,68,127,129,274,233,245,53,164,161,46,78,172,75,39,242,168,69,183,80,150,234,190,148,278,275,144,182,106,123,249,207,16,40,180,155,116,115,236,20,65,158,0,206,87,147,95,82,215,292,224,61,151,157,264,34,36,113,47,295,137,237,229,142,241,235,105,240,271,222,287,185,159,125,51,268,74,258,173,49,104,280,99,27,167,93,132,72,3,251,254,4,76,136,189,90,210,174,270,266,256,166,216,281,214,73,111,103,186,92,250,55,171,179,101,227,22,63,37,209,48,243,201,152,25,294,228,225,197,293,96,286,260,163,6,79,81,26,9,165,169,205,290,199,108,58,117,263,282,149,112,131,188,204,66,191,259,200,109,18,223,181,14]","arrowright","","true","0","9","60","300","[""0006_N0300_K0060_NOCLIQUE"",""0081_N0300_K0060_CLIQUE""]"
"","","","","","audio-keyboard-response","70","269676","0.0-57.0-0.0-1.0","","null","audio_feedback/right/coin01.mp3","null","","","","","0","9","60","300","[""0006_N0300_K0060_NOCLIQUE"",""0081_N0300_K0060_CLIQUE""]"
"","","","","","canvas-keyboard-response","71","270600","0.0-58.0-0.0-0.0","","756","","arrowleft","[127,290,138,291,102,65,272,298,279,250,109,285,82,83,174,158,294,141,111,164,110,237,247,234,128,172,137,40,25,199,203,28,188,189,248,67,50,72,95,295,242,17,124,8,201,41,150,166,228,209,144,180,22,219,255,5,136,249,103,107,264,60,46,11,78,181,69,52,115,29,167,261,193,66,218,214,190,266,160,289,55,157,70,216,1,130,149,198,184,30,179,116,108,54,183,120,155,192,15,145,92,194,231,14,245,278,131,240,213,223,36,9,71,243,114,45,57,3,10,173,297,61,101,87,159,21,281,191,276,105,227,211,97,74,265,56,147,215,104,20,134,196,47,96,13,135,58,258,252,169,262,119,89,270,152,31,229,197,139,24,35,225,217,212,16,236,200,275,235,146,165,86,148,280,121,38,0,93,286,34,64,263,239,161,90,44,233,277,244,292,254,208,62,32,142,156,48,283,94,175,140,185,118,129,267,42,7,222,210,251,293,19,151,271,122,273,268,230,125,195,204,53,81,260,23,187,112,182,168,205,154,253,117,162,132,84,163,287,76,178,39,177,202,207,6,257,232,98,51,206,220,100,106,143,299,241,88,176,269,171,226,99,12,170,284,26,153,63,123,75,186,59,224,238,246,68,288,274,33,80,282,259,37,49,126,18,91,2,73,296,4,79,43,113,256,221,27,77,85,133]","arrowleft","","true","0","10","55","300","[""0064_N0300_K0055_CLIQUE"",""0018_N0300_K0055_NOCLIQUE""]"
"","","","","","audio-keyboard-response","72","271019","0.0-58.0-0.0-1.0","","null","audio_feedback/right/coin01.mp3","null","","","","","0","10","55","300","[""0064_N0300_K0055_CLIQUE"",""0018_N0300_K0055_NOCLIQUE""]"
"","","","","","canvas-keyboard-response","73","273302","0.0-59.0-0.0-0.0","","2140","","arrowright","[77,147,118,62,285,69,222,6,91,53,217,8,245,220,256,74,81,28,35,65,140,60,164,37,292,87,250,57,171,186,41,34,231,50,137,4,0,257,93,204,221,145,242,126,13,143,223,262,49,109,86,216,79,146,298,156,133,240,104,243,295,157,198,236,189,61,23,64,73,114,152,115,38,105,165,154,163,88,10,289,9,31,293,268,161,68,192,92,247,11,238,46,172,30,32,162,33,76,7,281,260,237,232,55,191,117,167,253,27,219,297,59,274,185,197,90,121,26,200,230,42,127,97,21,269,128,16,25,153,155,89,229,284,291,116,149,102,43,107,52,24,271,44,99,63,138,158,47,54,48,241,159,259,225,1,72,276,29,248,134,278,176,282,110,148,255,136,78,273,82,196,184,226,251,261,290,199,144,175,182,244,187,58,209,139,210,131,275,120,246,130,190,169,279,36,227,263,180,132,277,195,211,234,122,299,85,96,208,75,39,266,22,215,206,249,94,160,108,177,235,40,20,19,70,45,283,178,287,270,5,174,129,288,214,272,141,296,84,101,193,150,207,239,233,280,205,254,188,212,51,12,224,106,15,83,113,179,98,168,124,56,264,203,218,14,166,17,125,201,112,252,213,67,80,71,111,18,294,135,66,142,173,100,123,119,267,2,151,194,103,202,258,265,183,228,170,95,3,181,286]","arrowright","","true","0","11","55","300","[""0040_N0300_K0055_NOCLIQUE"",""0015_N0300_K0055_CLIQUE""]"
"","","","","","audio-keyboard-response","74","273728","0.0-59.0-0.0-1.0","","null","audio_feedback/right/coin01.mp3","null","","","","","0","11","55","300","[""0040_N0300_K0055_NOCLIQUE"",""0015_N0300_K0055_CLIQUE""]"
"","","","","","canvas-keyboard-response","75","274862","0.0-60.0-0.0-0.0","","939","","arrowleft","[277,100,155,127,27,7,93,183,91,57,165,197,296,86,30,1,235,121,141,83,174,60,177,15,89,49,237,219,6,266,166,210,263,231,243,154,25,63,158,55,265,51,173,200,0,229,128,297,87,90,124,46,113,131,242,170,13,164,148,163,203,220,151,54,181,195,11,202,129,34,274,273,233,20,2,92,115,88,161,35,246,179,139,234,258,205,209,59,198,70,120,213,135,14,249,255,187,256,240,252,17,149,194,150,207,184,269,117,61,42,276,160,26,157,260,109,206,33,31,8,169,75,289,146,119,69,29,96,50,118,221,278,4,99,103,294,28,137,172,47,138,192,125,226,168,227,3,123,114,126,156,287,271,253,130,175,176,224,204,293,85,12,153,81,196,191,268,52,19,292,72,40,62,228,18,102,152,193,218,58,241,116,23,73,275,223,267,112,199,236,66,32,101,214,251,76,134,104,44,254,43,159,111,264,37,68,211,180,67,78,299,208,9,38,239,143,201,106,77,108,261,247,291,16,21,132,250,71,290,145,189,142,279,110,232,48,84,97,144,225,212,259,188,270,217,284,295,36,147,74,244,245,95,190,80,215,171,298,248,82,45,262,272,281,122,79,10,140,285,186,167,162,286,185,65,182,5,64,222,216,22,136,107,257,41,230,39,105,24,94,280,283,178,98,133,288,53,282,56,238]","arrowright","","false","0","12","50","300","[""0058_N0300_K0050_NOCLIQUE"",""0082_N0300_K0050_CLIQUE""]"
"","","","","","audio-keyboard-response","76","275478","0.0-60.0-0.0-1.0","","null","audio_feedback/wrong/error01.mp3","null","","","","","0","12","50","300","[""0058_N0300_K0050_NOCLIQUE"",""0082_N0300_K0050_CLIQUE""]"
"","","","","","canvas-keyboard-response","77","279350","0.0-61.0-0.0-0.0","","3735",""," ","[30,156,216,85,182,253,183,214,133,135,103,149,84,240,61,273,211,87,169,157,238,80,215,269,11,151,140,218,249,209,7,128,281,147,175,284,129,21,25,40,289,3,9,141,72,90,113,31,279,246,137,288,200,299,110,93,262,221,291,27,107,160,8,14,219,60,231,23,18,58,70,144,38,217,204,297,292,126,28,74,65,176,213,99,241,170,242,226,44,118,75,152,73,109,154,192,259,91,178,189,82,207,296,256,165,255,274,202,198,122,245,89,191,53,66,136,48,257,212,100,83,67,168,267,19,193,286,158,5,92,10,167,116,258,139,294,78,13,94,41,225,119,115,261,114,88,108,49,163,112,293,130,97,79,298,76,0,138,233,51,186,148,102,96,104,236,196,244,276,205,195,264,282,1,32,47,132,260,180,188,268,81,37,16,155,237,232,230,197,17,280,52,6,134,35,86,63,235,145,194,295,174,287,55,247,95,127,171,164,123,125,142,227,206,2,179,285,150,239,208,162,277,59,43,42,172,187,272,251,210,62,146,12,181,101,105,71,252,131,121,266,166,29,250,161,46,177,120,15,4,199,271,248,263,143,278,220,39,201,22,283,275,229,265,57,64,26,222,98,190,20,69,124,117,24,223,159,33,290,173,50,111,185,203,68,243,34,270,153,54,77,45,56,224,254,234,106,184,228,36]","arrowleft","","","0","13","50","300","[""0090_N0300_K0050_CLIQUE"",""0022_N0300_K0050_NOCLIQUE""]"
"","","","","","audio-keyboard-response","78","279915","0.0-61.0-0.0-1.0","","null","audio_feedback/shuffles/shuffle01.mp3","null","","","","","0","13","50","300","[""0090_N0300_K0050_CLIQUE"",""0022_N0300_K0050_NOCLIQUE""]"
"","","","","","canvas-keyboard-response","79","281006","0.0-61.1-0.1-0.1","","903","","arrowleft","[59,162,157,82,255,161,286,236,224,103,45,110,1,134,166,93,8,194,44,108,86,38,263,225,252,177,124,62,235,89,254,90,282,150,141,269,291,195,109,276,88,61,145,170,80,152,168,53,260,178,16,183,119,128,246,210,144,226,261,280,79,203,299,275,78,176,7,205,233,100,106,247,182,6,181,217,66,2,24,199,95,0,49,277,173,265,293,297,25,36,237,30,257,57,290,101,198,296,222,102,201,294,26,167,160,29,117,120,14,229,169,56,215,186,268,143,279,298,131,234,39,34,20,17,74,114,65,107,92,99,287,138,154,231,98,209,118,19,22,190,84,267,130,212,271,18,97,11,283,113,10,292,41,171,77,63,227,232,248,214,158,179,116,28,165,206,21,122,73,127,228,243,266,230,188,193,31,285,3,104,147,151,37,208,137,156,211,281,245,64,47,23,115,68,251,58,239,185,91,202,40,172,12,13,48,72,126,149,136,220,258,259,87,218,121,9,129,153,51,189,223,71,140,32,221,111,94,85,67,295,242,213,142,133,273,54,164,270,27,125,4,192,60,216,204,96,15,274,289,253,184,70,250,262,264,123,43,272,52,238,50,278,249,240,196,55,42,256,83,180,191,159,284,135,132,174,148,5,207,105,112,146,33,241,155,81,288,163,175,69,35,244,139,76,46,197,200,75,187,219]","arrowleft","","true","0","13","50","300","[""0090_N0300_K0050_CLIQUE"",""0022_N0300_K0050_NOCLIQUE""]"
"","","","","","audio-keyboard-response","80","281430","0.0-61.1-0.1-1.1","","null","audio_feedback/right/coin01.mp3","null","","","","","0","13","50","300","[""0090_N0300_K0050_CLIQUE"",""0022_N0300_K0050_NOCLIQUE""]"
"","","","","","canvas-keyboard-response","81","283072","0.0-62.0-0.0-0.0","","1504","","arrowleft","[208,82,96,174,258,241,45,166,286,171,63,108,40,102,180,276,41,175,192,60,271,254,38,216,213,259,17,242,141,167,4,5,87,69,226,243,117,132,256,214,67,215,181,188,219,79,18,206,289,251,14,130,151,160,101,6,126,218,200,86,210,68,179,49,119,284,145,128,217,112,247,52,44,138,158,20,239,122,140,163,19,270,121,198,30,42,290,146,291,267,279,23,204,155,135,37,265,32,296,114,65,28,178,262,161,283,143,244,236,11,110,281,269,199,59,193,34,64,29,80,2,75,246,285,150,31,173,36,266,152,53,245,187,252,73,81,93,115,196,139,232,257,15,183,133,250,207,288,154,50,228,125,3,94,189,105,76,223,124,238,299,144,222,221,169,153,165,229,62,233,74,191,111,209,292,78,12,66,240,298,235,170,231,98,77,90,194,287,127,264,107,104,234,274,185,71,202,190,70,56,27,295,224,1,118,282,230,184,109,24,7,136,10,137,131,13,51,72,248,237,201,9,176,272,220,33,203,164,83,162,142,268,197,293,16,278,227,123,260,297,172,249,22,113,84,275,100,147,225,263,120,255,182,46,88,273,261,168,48,57,277,186,92,55,39,95,54,116,99,25,97,129,280,21,195,294,149,103,35,91,0,211,134,26,85,205,157,148,8,89,159,253,177,212,47,43,61,106,156,58]","arrowright","","false","0","14","45","300","[""0040_N0300_K0045_NOCLIQUE"",""0018_N0300_K0045_CLIQUE""]"
"","","","","","audio-keyboard-response","82","283671","0.0-62.0-0.0-1.0","","null","audio_feedback/wrong/error01.mp3","null","","","","","0","14","45","300","[""0040_N0300_K0045_NOCLIQUE"",""0018_N0300_K0045_CLIQUE""]"
"","","","","","canvas-keyboard-response","83","285261","0.0-63.0-0.0-0.0","","1442","","arrowleft","[127,235,20,116,139,286,143,265,100,277,219,124,115,49,135,111,52,268,27,40,12,272,188,180,131,11,199,136,31,198,187,114,151,61,196,10,257,66,8,157,48,209,220,275,6,224,58,289,90,132,267,164,207,254,25,244,41,30,42,291,70,246,67,287,229,101,191,99,33,176,150,192,230,82,258,249,37,231,211,54,98,63,200,195,218,175,156,36,85,153,133,236,271,80,285,212,47,68,278,290,197,95,238,71,145,227,240,294,160,28,34,282,123,279,250,173,109,65,295,140,128,154,29,35,32,113,189,185,215,91,119,270,76,126,81,299,202,141,77,208,296,64,19,103,93,43,62,234,170,22,2,45,38,78,183,213,110,147,94,89,104,201,155,161,298,292,259,87,112,16,0,214,162,216,117,184,122,284,134,228,57,4,166,92,23,44,297,97,142,266,120,269,221,237,263,203,293,233,281,248,181,53,39,5,50,60,152,74,107,108,242,1,217,69,210,146,178,243,245,96,7,262,288,21,9,247,158,17,79,165,206,159,172,190,167,105,73,169,163,86,138,15,18,168,186,193,177,3,88,256,26,118,83,182,204,276,137,72,125,144,260,205,130,253,223,55,232,261,46,56,251,149,106,194,280,241,239,273,264,121,24,174,84,102,59,148,226,225,274,75,129,14,171,252,179,13,51,283,255,222]","arrowleft","","true","0","15","45","300","[""0091_N0300_K0045_CLIQUE"",""0001_N0300_K0045_NOCLIQUE""]"
"","","","","","audio-keyboard-response","84","285675","0.0-63.0-0.0-1.0","","null","audio_feedback/right/coin01.mp3","null","","","","","0","15","45","300","[""0091_N0300_K0045_CLIQUE"",""0001_N0300_K0045_NOCLIQUE""]"
"","","","","","canvas-keyboard-response","85","287941","0.0-64.0-0.0-0.0","","2074","","arrowleft","[200,118,35,170,44,245,153,221,234,3,167,261,262,212,107,256,285,207,273,260,45,77,96,46,265,15,217,165,52,101,220,174,2,88,201,146,126,252,145,293,91,131,189,271,92,17,68,228,108,214,79,53,168,57,5,140,179,276,209,111,136,258,233,282,248,237,51,103,60,204,50,255,54,286,187,240,65,296,22,39,132,89,137,19,277,58,185,20,264,229,279,180,225,125,99,294,106,75,242,227,194,66,222,139,141,173,37,188,195,213,182,143,269,149,281,268,158,295,134,144,288,82,216,150,90,138,284,151,253,272,71,83,215,184,287,14,177,249,241,72,162,27,244,61,292,30,231,223,104,23,85,24,147,93,219,120,25,21,183,4,251,164,198,81,70,278,40,155,239,122,86,266,156,218,33,181,257,18,238,267,116,280,203,48,159,84,171,47,206,100,298,152,34,290,160,26,112,117,210,12,169,196,190,274,291,115,7,119,142,94,69,97,299,211,98,110,254,13,10,199,135,129,224,154,102,172,74,263,236,36,42,208,178,64,289,176,11,166,230,55,114,148,191,73,109,197,226,205,270,16,78,41,56,31,0,130,259,29,124,1,123,95,235,157,105,192,297,133,87,283,275,121,175,76,9,8,128,67,243,62,43,161,202,250,113,163,247,6,28,232,186,63,193,49,32,127,246,59,80,38]","arrowleft","","true","0","16","40","300","[""0072_N0300_K0040_CLIQUE"",""0011_N0300_K0040_NOCLIQUE""]"
"","","","","","audio-keyboard-response","86","288363","0.0-64.0-0.0-1.0","","null","audio_feedback/right/coin01.mp3","null","","","","","0","16","40","300","[""0072_N0300_K0040_CLIQUE"",""0011_N0300_K0040_NOCLIQUE""]"
"","","","","","canvas-keyboard-response","87","289525","0.0-65.0-0.0-0.0","","967","","arrowleft","[285,269,128,220,71,1,219,123,169,280,179,29,188,146,67,297,247,2,105,84,30,168,281,117,22,165,199,51,288,77,195,278,147,129,256,221,144,107,127,47,148,58,160,272,276,64,37,112,41,26,43,83,286,99,235,172,75,33,243,183,292,149,196,215,53,68,59,173,255,63,248,155,264,178,170,133,228,50,46,73,49,74,8,218,115,94,203,225,167,119,210,3,57,186,277,204,104,222,62,141,90,291,164,163,95,135,92,282,162,52,226,177,89,283,118,175,70,131,55,227,174,299,125,126,261,266,96,121,25,153,212,250,134,122,182,111,254,263,253,242,18,109,120,159,36,237,181,232,54,262,189,35,40,15,16,238,150,143,244,275,197,82,157,156,20,229,246,217,5,116,32,176,85,142,258,34,152,202,216,245,273,259,274,45,98,251,166,192,209,270,17,151,44,28,61,200,139,56,230,106,93,289,14,100,78,293,271,38,211,42,137,213,290,236,10,76,27,88,265,65,249,13,184,158,201,191,298,240,80,207,198,4,239,233,171,185,91,108,103,66,296,132,257,72,295,39,79,208,294,7,114,97,284,224,110,19,21,124,11,101,154,24,140,9,223,0,60,69,260,6,194,136,193,206,48,279,187,287,180,87,231,190,113,241,268,130,214,145,86,81,31,234,252,138,102,12,205,23,267,161]","arrowleft","","true","0","17","40","300","[""0027_N0300_K0040_CLIQUE"",""0091_N0300_K0040_NOCLIQUE""]"
"","","","","","audio-keyboard-response","88","289942","0.0-65.0-0.0-1.0","","null","audio_feedback/right/coin01.mp3","null","","","","","0","17","40","300","[""0027_N0300_K0040_CLIQUE"",""0091_N0300_K0040_NOCLIQUE""]"
"","","","","","canvas-keyboard-response","89","291387","0.0-66.0-0.0-0.0","","1308","","arrowleft","[16,162,216,40,0,9,214,23,128,182,173,12,254,220,118,88,1,42,284,280,261,143,272,129,294,229,299,193,222,87,181,247,276,34,95,288,83,56,183,246,256,298,10,289,39,75,259,255,27,218,265,291,106,213,281,160,33,199,60,84,147,277,30,258,116,252,123,122,65,68,31,78,161,71,98,124,273,186,263,81,113,191,142,66,226,76,104,297,15,249,101,285,130,13,121,35,111,211,80,14,49,227,248,210,43,127,7,153,77,103,221,117,94,292,172,132,22,115,141,38,282,189,180,187,176,271,21,28,170,245,194,234,283,44,24,152,69,219,163,200,295,90,267,52,54,46,270,138,167,287,137,164,3,112,215,99,140,48,92,202,57,29,74,243,190,197,67,119,47,279,126,155,293,135,204,97,50,72,224,201,108,58,177,269,156,25,203,8,174,235,253,195,102,73,230,286,205,185,96,5,228,62,275,86,151,55,17,4,89,244,136,239,91,240,251,105,59,64,144,20,266,175,169,223,18,145,93,212,149,250,114,82,231,241,207,165,37,257,274,32,109,11,133,2,6,63,238,237,19,206,209,225,159,166,107,146,70,53,150,236,157,233,41,278,171,168,51,131,36,198,61,125,85,192,134,178,179,188,184,264,232,296,217,110,260,148,268,120,100,242,158,196,208,79,290,139,26,154,262,45]","arrowright","","false","0","18","35","300","[""0037_N0300_K0035_NOCLIQUE"",""0019_N0300_K0035_CLIQUE""]"
"","","","","","audio-keyboard-response","90","291968","0.0-66.0-0.0-1.0","","null","audio_feedback/wrong/error01.mp3","null","","","","","0","18","35","300","[""0037_N0300_K0035_NOCLIQUE"",""0019_N0300_K0035_CLIQUE""]"
"","","","","","canvas-keyboard-response","91","293316","0.0-67.0-0.0-0.0","","1160","","arrowright","[130,151,250,291,46,133,131,226,86,287,198,221,159,233,112,240,292,213,109,297,25,3,180,193,164,293,39,67,209,161,175,23,29,89,158,88,54,14,249,263,142,17,0,139,61,69,220,99,256,24,137,21,203,30,260,108,152,179,266,237,185,135,188,228,10,33,166,279,212,251,255,104,41,66,145,75,280,206,16,34,224,245,138,172,276,182,90,282,246,160,19,204,257,93,12,253,72,116,244,259,52,74,217,120,275,140,196,105,15,183,143,262,6,289,200,285,288,4,146,278,272,60,197,126,62,110,274,254,187,2,136,153,36,123,190,40,27,248,26,241,45,58,28,195,229,150,181,271,42,94,169,47,65,7,283,134,214,201,78,98,167,56,53,284,96,84,91,149,277,269,243,236,18,211,252,231,162,298,124,225,118,71,113,11,127,32,22,121,92,51,37,218,115,242,168,202,199,207,111,77,114,178,106,20,157,43,129,189,299,273,223,13,186,101,144,70,215,171,268,85,294,48,103,79,97,154,184,170,49,247,174,267,128,107,205,216,132,264,290,63,208,122,238,68,177,191,235,73,50,117,234,83,1,194,165,173,295,219,80,64,87,155,59,5,227,265,176,222,57,141,270,102,119,9,76,100,44,258,31,286,81,239,35,296,192,38,163,8,210,156,82,261,148,230,95,281,55,147,232,125]","arrowright","","true","0","19","35","300","[""0048_N0300_K0035_NOCLIQUE"",""0075_N0300_K0035_CLIQUE""]"
"","","","","","audio-keyboard-response","92","293739","0.0-67.0-0.0-1.0","","null","audio_feedback/right/coin01.mp3","null","","","","","0","19","35","300","[""0048_N0300_K0035_NOCLIQUE"",""0075_N0300_K0035_CLIQUE""]"
"","","","","","canvas-keyboard-response","93","295116","0.0-68.0-0.0-0.0","","1240","","arrowleft","[14,246,127,36,240,108,209,167,197,200,48,277,231,259,10,105,47,115,195,255,58,38,62,179,283,164,160,245,242,264,39,138,279,114,90,118,274,187,93,67,220,44,184,230,192,87,254,131,205,100,214,275,7,293,56,94,98,269,186,267,26,285,263,110,262,83,225,290,291,284,156,281,152,99,211,175,133,221,42,121,234,244,33,135,2,176,216,30,13,298,229,65,289,144,296,233,158,212,222,123,20,113,151,171,72,256,17,203,9,292,101,235,37,172,210,287,15,51,103,22,182,137,207,49,297,168,32,202,59,81,41,3,215,206,196,150,102,128,247,61,270,66,125,136,169,69,191,112,272,280,148,11,140,198,228,236,130,149,53,217,266,183,189,253,219,1,74,213,161,122,119,104,239,188,257,193,227,141,295,0,180,157,84,249,129,71,243,86,34,109,218,251,248,178,237,226,21,208,126,70,85,97,75,68,282,18,155,181,238,223,57,288,165,12,91,142,78,278,6,132,194,286,174,124,80,88,107,23,106,190,92,24,154,241,143,185,8,43,77,204,63,268,173,27,50,294,19,73,46,4,40,95,28,232,273,139,117,31,79,199,177,252,5,96,145,29,260,258,111,159,153,299,163,276,35,271,76,54,25,64,261,166,265,82,170,134,146,89,52,55,147,224,250,60,162,201,16,116,120,45]","arrowleft","","true","0","20","30","300","[""0019_N0300_K0030_CLIQUE"",""0001_N0300_K0030_NOCLIQUE""]"
"","","","","","audio-keyboard-response","94","295531","0.0-68.0-0.0-1.0","","null","audio_feedback/right/coin01.mp3","null","","","","","0","20","30","300","[""0019_N0300_K0030_CLIQUE"",""0001_N0300_K0030_NOCLIQUE""]"
"","","","","","canvas-keyboard-response","95","297000","0.0-69.0-0.0-0.0","","1283","","arrowright","[22,288,205,247,216,212,238,44,219,118,165,240,113,263,185,237,108,268,4,295,104,198,248,183,245,151,158,31,0,278,187,39,133,269,255,117,160,27,65,177,33,131,97,23,94,3,64,289,21,53,18,132,227,145,63,71,128,51,2,293,87,210,88,147,81,86,207,124,139,196,186,153,26,162,298,103,47,38,74,7,228,159,286,90,98,135,167,13,244,143,201,14,241,243,20,217,79,208,107,67,226,127,32,137,214,202,157,282,49,95,164,231,148,111,114,100,76,78,276,270,166,106,1,60,170,171,93,15,10,82,267,134,200,8,249,189,262,161,37,232,251,283,277,259,112,57,266,142,206,173,116,6,136,239,190,242,121,188,68,254,101,175,154,279,256,209,61,69,252,119,233,221,16,92,123,19,46,62,294,285,110,149,222,85,45,163,291,169,280,84,52,105,96,56,264,299,192,260,193,41,155,12,42,296,146,11,178,43,234,274,225,130,83,70,66,184,230,204,9,273,126,172,253,229,215,28,258,77,220,34,182,176,197,218,80,29,89,50,129,250,271,91,58,246,174,203,122,213,179,265,181,287,30,72,109,115,150,5,75,36,281,284,195,144,290,211,102,272,125,140,257,223,99,156,292,199,297,55,35,24,59,194,236,275,25,235,152,120,40,54,168,17,141,73,224,48,191,180,138,261]","arrowleft","","false","0","21","30","300","[""0033_N0300_K0030_CLIQUE"",""0013_N0300_K0030_NOCLIQUE""]"
"","","","","","audio-keyboard-response","96","297601","0.0-69.0-0.0-1.0","","null","audio_feedback/wrong/error01.mp3","null","","","","","0","21","30","300","[""0033_N0300_K0030_CLIQUE"",""0013_N0300_K0030_NOCLIQUE""]"
"","","","","","canvas-keyboard-response","97","299284","0.0-70.0-0.0-0.0","","1522","","arrowleft","[96,36,115,40,58,258,181,86,241,10,157,50,42,8,249,296,37,233,177,75,291,196,32,280,129,57,45,113,145,184,214,250,33,143,28,230,262,248,82,213,21,288,99,144,158,0,222,198,66,251,265,219,83,229,7,122,183,68,245,270,220,148,103,18,178,239,11,227,89,275,41,235,154,138,286,25,223,100,44,76,298,149,242,260,221,289,259,13,97,179,59,176,17,136,290,102,118,246,141,71,123,64,111,205,163,23,88,160,212,135,234,15,297,279,209,80,281,187,101,69,130,182,61,79,60,226,188,174,95,12,78,267,73,117,168,128,287,4,51,268,133,72,238,200,207,49,170,124,93,243,247,114,77,295,116,237,27,199,105,169,215,87,151,54,107,193,175,98,225,142,109,271,31,38,39,56,62,120,204,173,254,232,299,190,30,112,5,278,26,285,202,211,185,46,255,152,210,165,34,132,203,272,282,121,67,90,2,274,85,139,74,155,216,9,197,153,134,283,231,137,244,52,110,127,263,19,266,276,106,20,192,224,92,162,47,119,256,201,206,91,273,194,292,161,171,164,43,284,294,108,218,156,186,269,24,125,140,94,257,65,189,159,253,53,131,81,55,228,104,195,29,22,277,236,14,191,84,150,147,240,48,261,293,3,208,126,70,180,172,264,167,63,146,6,16,35,252,217,166,1]","arrowright","","false","0","22","25","300","[""0043_N0300_K0025_NOCLIQUE"",""0011_N0300_K0025_CLIQUE""]"
"","","","","","audio-keyboard-response","98","299882","0.0-70.0-0.0-1.0","","null","audio_feedback/wrong/error01.mp3","null","","","","","0","22","25","300","[""0043_N0300_K0025_NOCLIQUE"",""0011_N0300_K0025_CLIQUE""]"
"","","","","","canvas-keyboard-response","99","301303","0.0-71.0-0.0-0.0","","1249","","arrowleft","[194,231,15,242,28,110,12,273,207,32,202,129,18,140,260,173,116,289,247,75,6,205,235,166,141,218,92,56,246,281,277,169,101,45,295,196,150,128,274,59,1,255,254,54,251,10,155,104,162,19,290,265,191,66,182,114,183,245,164,52,44,159,275,22,197,23,109,283,193,179,278,238,98,244,296,82,126,250,143,7,228,288,94,130,160,137,53,203,168,157,264,170,36,121,262,0,8,177,93,71,220,35,188,29,210,222,106,21,225,298,198,272,84,113,252,189,27,20,13,3,187,57,200,224,256,279,83,221,112,204,248,181,175,138,156,38,89,90,249,154,79,63,14,48,299,271,124,58,261,99,215,212,282,69,211,74,34,62,77,123,268,152,165,61,206,24,81,122,240,185,136,232,294,236,180,17,33,178,285,67,118,65,263,68,135,190,40,4,267,192,226,276,286,86,145,253,172,25,161,257,72,214,293,49,73,239,70,230,91,195,100,41,30,270,125,229,174,107,134,147,76,50,102,87,119,219,131,153,139,117,5,284,43,227,88,26,31,46,216,96,60,55,258,163,133,80,199,78,291,280,127,97,42,148,208,234,64,241,269,105,223,237,243,217,95,292,176,149,111,103,213,209,186,132,11,171,297,108,47,120,158,259,115,51,142,39,9,16,85,144,266,201,151,146,37,184,2,287,233,167]","arrowleft","","true","0","23","25","300","[""0049_N0300_K0025_CLIQUE"",""0087_N0300_K0025_NOCLIQUE""]"
"","","","","","audio-keyboard-response","100","301717","0.0-71.0-0.0-1.0","","null","audio_feedback/right/coin01.mp3","null","","","","","0","23","25","300","[""0049_N0300_K0025_CLIQUE"",""0087_N0300_K0025_NOCLIQUE""]"
"","","","","","canvas-keyboard-response","101","302695","0.0-72.0-0.0-0.0","","846","","arrowleft","[121,208,111,51,102,146,272,239,52,67,235,28,91,78,131,75,21,94,74,164,187,95,136,231,180,294,217,125,221,1,2,163,76,149,188,151,116,295,195,224,226,202,157,255,273,9,213,36,222,283,205,98,233,190,130,139,119,278,241,256,19,290,106,99,46,299,293,281,118,286,266,54,268,126,207,113,262,57,243,206,196,143,175,201,254,209,16,62,212,45,47,42,69,24,263,249,56,117,128,257,189,65,194,220,73,287,48,59,134,285,105,172,170,109,82,203,154,150,26,261,265,162,122,3,25,39,103,168,173,186,161,211,20,68,238,141,14,27,259,237,210,288,72,204,13,247,133,88,104,61,246,32,171,11,274,178,225,216,112,267,7,30,269,236,40,252,298,60,15,58,37,138,135,176,245,49,193,228,260,5,80,100,219,280,96,253,185,215,79,218,251,140,87,156,258,275,77,22,31,43,199,83,53,169,174,289,214,129,158,183,270,223,182,277,181,120,85,123,232,71,107,159,229,264,145,64,124,89,200,240,34,70,92,8,127,297,84,17,167,110,66,282,184,242,41,115,152,10,271,93,6,250,248,18,35,177,279,166,153,97,101,191,197,86,4,114,63,276,198,137,148,291,284,55,0,192,33,227,132,81,44,38,292,296,147,23,165,160,155,29,108,50,179,90,144,244,234,142,230,12]","arrowleft","","true","0","24","20","300","[""0010_N0300_K0020_CLIQUE"",""0030_N0300_K0020_NOCLIQUE""]"
"","","","","","audio-keyboard-response","102","303125","0.0-72.0-0.0-1.0","","null","audio_feedback/right/coin01.mp3","null","","","","","0","24","20","300","[""0010_N0300_K0020_CLIQUE"",""0030_N0300_K0020_NOCLIQUE""]"
"","","","","","canvas-keyboard-response","103","305127","0.0-73.0-0.0-0.0","","1814","","arrowleft","[229,163,37,53,207,82,266,279,256,67,54,1,293,241,102,59,78,38,104,155,31,213,197,114,4,203,145,265,194,116,61,52,188,64,12,120,242,15,269,179,215,79,159,36,164,30,260,26,239,295,275,98,17,220,222,268,24,133,230,60,255,272,277,132,287,171,225,292,39,103,95,57,205,91,261,291,223,209,264,186,23,25,124,33,43,144,142,285,297,212,274,249,90,276,204,216,148,66,49,299,118,126,11,234,6,51,58,113,10,137,32,76,282,46,84,8,247,233,288,217,123,109,134,244,248,221,208,214,93,19,173,154,258,14,41,237,170,48,96,105,228,251,259,138,200,101,191,112,172,289,50,190,152,40,253,182,201,198,125,166,139,151,143,74,128,231,178,44,121,235,136,110,196,68,298,169,3,147,278,146,35,115,185,183,156,219,92,286,284,131,16,153,85,21,111,77,167,243,129,117,29,127,13,130,165,27,5,160,99,45,290,246,83,62,63,162,189,262,227,70,218,89,199,69,135,158,254,34,119,150,232,106,56,140,87,245,250,97,55,2,94,252,71,193,283,108,161,280,149,42,195,273,206,202,281,7,257,184,9,236,122,18,65,0,238,157,240,177,86,224,81,180,20,175,187,192,28,263,267,47,88,80,271,296,22,211,75,100,73,294,72,107,168,176,174,181,141,226,210,270]","arrowleft","","true","0","25","20","300","[""0091_N0300_K0020_CLIQUE"",""0033_N0300_K0020_NOCLIQUE""]"
"","","","","","audio-keyboard-response","104","305558","0.0-73.0-0.0-1.0","","null","audio_feedback/right/coin01.mp3","null","","","","","0","25","20","300","[""0091_N0300_K0020_CLIQUE"",""0033_N0300_K0020_NOCLIQUE""]"
"","","","","","canvas-keyboard-response","105","306601","0.0-74.0-0.0-0.0","","856","","arrowleft","[35,150,247,182,261,266,24,244,225,145,12,89,179,134,118,151,41,185,170,265,161,96,167,280,267,162,223,132,269,137,82,80,201,279,159,222,66,113,200,186,107,42,189,229,235,270,148,65,282,76,240,238,217,139,111,233,158,59,297,50,116,234,221,295,73,29,209,18,115,14,257,184,100,32,53,61,127,147,207,165,28,0,49,8,120,91,237,86,228,3,239,195,160,245,62,117,187,143,47,214,23,43,242,130,131,129,97,17,281,231,33,128,294,141,248,154,278,38,46,104,275,230,183,20,79,156,176,126,90,110,197,51,39,4,34,181,168,135,199,191,75,210,31,206,271,45,74,109,260,1,250,218,77,125,144,256,30,163,286,68,274,84,198,174,2,208,262,194,63,95,16,27,146,122,249,291,11,114,15,103,246,178,108,226,105,211,241,292,164,293,119,19,67,193,175,213,136,202,10,196,232,93,216,264,22,180,85,155,83,60,98,188,152,288,138,56,92,166,6,204,54,220,52,277,255,283,276,157,26,215,289,298,72,203,272,101,219,252,64,243,153,171,285,149,102,71,44,69,253,9,81,36,263,21,251,284,224,142,169,258,273,78,133,173,268,58,190,7,259,287,94,55,40,296,177,87,48,70,25,290,254,13,124,227,5,140,236,106,172,121,123,88,37,99,299,112,57,192,212,205]","arrowleft","","true","0","26","15","300","[""0043_N0300_K0015_CLIQUE"",""0049_N0300_K0015_NOCLIQUE""]"
"","","","","","audio-keyboard-response","106","307029","0.0-74.0-0.0-1.0","","null","audio_feedback/right/coin01.mp3","null","","","","","0","26","15","300","[""0043_N0300_K0015_CLIQUE"",""0049_N0300_K0015_NOCLIQUE""]"
"","","","","","canvas-keyboard-response","107","309502","0.0-75.0-0.0-0.0","","2328","","arrowleft","[237,254,187,43,227,163,69,50,186,195,65,12,201,133,20,140,242,169,174,182,87,103,185,124,53,249,78,268,229,284,62,115,13,258,247,231,159,61,37,207,104,100,215,44,97,141,25,101,11,240,218,114,135,265,120,30,190,38,260,35,64,75,189,256,262,294,5,173,136,290,134,211,287,0,67,139,217,164,106,198,138,257,230,210,291,128,213,48,197,18,33,165,22,209,28,98,180,212,3,226,162,223,259,60,170,36,251,131,243,42,21,58,275,40,160,155,59,145,172,112,158,183,93,298,241,143,137,46,82,270,253,94,84,79,267,95,206,110,32,73,39,214,181,261,34,273,2,56,31,250,88,296,122,85,282,119,147,225,26,23,105,266,248,7,288,80,161,17,16,245,272,89,132,238,208,263,63,116,264,108,142,4,179,10,283,90,66,235,281,127,15,228,129,199,9,146,177,45,54,234,49,57,277,125,252,109,118,81,86,51,297,194,171,222,19,156,24,96,184,111,193,202,6,41,55,239,295,224,280,166,74,278,188,246,205,216,102,71,121,221,167,196,76,47,152,203,29,191,68,8,168,113,192,200,92,236,176,14,126,107,117,286,289,276,178,77,293,299,269,91,52,144,27,274,255,1,130,157,232,99,148,123,150,72,204,220,244,154,292,285,153,70,149,279,175,219,271,151,233,83]","arrowright","","false","0","27","15","300","[""0021_N0300_K0015_NOCLIQUE"",""0019_N0300_K0015_CLIQUE""]"
"","","","","","audio-keyboard-response","108","310101","0.0-75.0-0.0-1.0","","null","audio_feedback/wrong/error01.mp3","null","","","","","0","27","15","300","[""0021_N0300_K0015_NOCLIQUE"",""0019_N0300_K0015_CLIQUE""]"
"","","","","","canvas-keyboard-response","109","311072","0.0-76.0-0.0-0.0","","836","","arrowright","[92,28,40,100,241,207,72,282,239,177,74,128,119,23,266,64,88,264,178,145,244,124,139,111,59,299,149,261,108,191,196,245,0,99,284,278,68,198,19,33,84,160,235,189,96,260,57,258,47,11,193,8,52,254,277,213,93,226,288,148,242,97,172,157,240,116,230,221,16,26,294,256,14,238,280,102,85,53,21,183,218,176,123,103,204,265,259,29,24,87,271,130,55,162,270,184,153,133,20,94,126,208,220,180,203,32,142,121,192,290,42,289,22,233,132,147,45,2,76,37,69,122,231,248,165,253,272,4,138,297,219,236,202,112,210,117,250,215,46,105,38,34,109,170,146,225,144,98,249,73,232,10,295,137,175,27,268,286,127,246,155,143,125,110,197,276,293,186,152,106,62,83,273,95,200,216,281,43,195,134,247,118,49,51,120,169,158,188,101,66,71,211,67,154,173,179,168,287,181,257,228,86,82,61,194,224,251,36,209,17,298,171,3,30,269,150,227,12,274,174,237,6,185,9,44,89,54,63,222,206,81,279,156,187,159,262,60,65,15,234,182,291,70,75,164,56,136,275,131,1,229,90,5,163,205,201,18,135,212,263,283,39,267,13,79,296,78,48,50,252,91,167,190,31,214,243,161,217,7,223,58,151,104,41,107,113,292,80,114,115,35,25,255,285,141,77,129,140,199,166]","arrowright","","true","0","28","10","300","[""0026_N0300_K0010_NOCLIQUE"",""0086_N0300_K0010_CLIQUE""]"
"","","","","","audio-keyboard-response","110","311488","0.0-76.0-0.0-1.0","","null","audio_feedback/right/coin01.mp3","null","","","","","0","28","10","300","[""0026_N0300_K0010_NOCLIQUE"",""0086_N0300_K0010_CLIQUE""]"
"","","","","","canvas-keyboard-response","111","312688","0.0-77.0-0.0-0.0","","1014","","arrowleft","[286,227,146,242,64,290,266,231,132,261,55,156,124,186,111,123,285,49,212,122,54,128,256,258,126,157,38,108,158,79,127,215,259,189,229,31,10,249,295,220,96,230,178,116,141,170,140,190,131,47,125,5,45,48,8,15,69,275,110,199,148,198,59,183,193,291,185,201,51,228,274,80,19,263,208,39,97,117,36,42,113,30,43,179,257,134,65,292,144,279,160,1,72,188,194,149,255,102,248,98,91,21,112,210,289,151,63,216,197,6,176,92,66,143,74,9,270,147,240,100,168,25,294,214,287,109,288,296,135,235,81,11,118,252,33,115,161,163,159,152,40,94,90,145,87,73,88,251,272,26,233,136,12,60,177,155,260,181,57,236,200,154,171,169,23,243,150,206,221,104,99,282,264,133,56,192,93,247,254,53,103,232,278,50,129,85,180,106,222,44,225,250,34,77,234,0,52,262,202,191,139,246,173,35,14,218,187,18,280,162,271,269,137,22,239,244,265,205,223,276,184,211,207,209,268,7,219,297,281,120,32,82,86,107,277,267,224,203,164,28,153,83,76,4,226,2,241,70,13,245,41,101,27,204,62,253,196,213,299,105,237,37,172,284,16,238,165,89,175,29,84,195,58,167,24,298,182,75,166,119,68,121,61,67,138,95,283,114,46,20,130,293,3,273,142,174,78,217,71,17]","arrowleft","","true","0","29","10","300","[""0024_N0300_K0010_CLIQUE"",""0086_N0300_K0010_NOCLIQUE""]"
"","","","","","audio-keyboard-response","112","313109","0.0-77.0-0.0-1.0","","null","audio_feedback/right/coin01.mp3","null","","","","","0","29","10","300","[""0024_N0300_K0010_CLIQUE"",""0086_N0300_K0010_NOCLIQUE""]"
"","","","","","instructions","113","330565","0.0-78.0","[{""page_index"":0,""viewing_time"":17452}]","17455","","","","","","","","","","",""
"","","","","","canvas-keyboard-response","114","334863","0.0-79.0-0.0-0.0","","4152","","arrowleft","[175,294,29,35,101,58,7,60,214,202,46,138,279,42,198,271,290,91,179,247,34,54,260,195,251,220,44,39,241,0,146,90,82,233,264,48,134,116,110,107,280,207,23,173,96,84,236,61,276,115,215,25,188,199,177,103,152,36,129,111,105,87,218,120,286,278,240,253,299,212,166,150,226,167,102,181,55,63,252,222,171,165,137,56,263,89,79,86,83,62,206,190,135,80,184,163,225,265,57,45,33,295,228,26,194,159,153,287,227,99,12,277,203,20,53,113,66,13,245,224,9,95,19,237,238,209,28,127,229,216,77,4,246,109,117,100,122,71,131,11,172,174,78,27,47,141,196,200,254,22,232,151,256,5,197,97,230,205,125,73,297,17,145,52,143,118,148,162,289,293,32,93,3,130,187,161,242,168,124,213,30,16,142,31,281,40,1,104,223,185,169,6,155,133,250,160,164,85,69,65,68,72,158,267,21,8,112,186,94,217,208,136,249,288,183,140,24,191,75,67,119,88,147,235,132,123,178,219,149,154,275,266,269,156,201,182,70,128,10,262,139,234,283,231,2,43,193,273,51,298,144,239,259,258,204,282,38,255,272,189,114,244,285,121,268,176,157,248,15,64,18,59,50,92,261,243,270,126,211,98,37,170,74,76,221,210,41,296,292,274,106,180,192,14,49,284,81,257,291,108]","arrowleft","","true","1","0","90","300","[""0010_N0300_K0090_CLIQUE"",""0082_N0300_K0090_NOCLIQUE""]"
"","","","","","audio-keyboard-response","115","335349","0.0-79.0-0.0-1.0","","null","audio_feedback/right/coin01.mp3","null","","","","","1","0","90","300","[""0010_N0300_K0090_CLIQUE"",""0082_N0300_K0090_NOCLIQUE""]"
"","","","","","canvas-keyboard-response","116","336719","0.0-80.0-0.0-0.0","","1210","","arrowright","[299,135,100,25,23,102,46,6,196,43,248,121,44,283,228,98,68,232,197,226,173,224,166,290,203,254,20,239,276,29,244,221,76,234,10,125,238,120,264,152,217,127,49,3,16,294,223,131,245,19,81,132,89,269,172,154,108,272,126,65,242,40,96,37,289,104,130,7,35,95,55,138,249,147,267,211,26,170,148,265,58,257,206,0,214,186,129,156,113,38,109,118,9,236,21,259,218,293,256,5,60,140,64,42,262,191,271,182,39,57,79,112,286,99,160,67,117,30,103,246,91,162,52,168,268,13,165,78,69,292,77,209,159,72,175,199,106,124,177,41,31,63,54,280,277,151,17,136,220,143,198,8,114,219,169,133,279,80,188,192,176,145,222,243,227,15,163,179,32,144,2,34,53,263,66,285,92,24,48,190,134,45,260,82,274,94,207,22,73,233,157,250,281,149,253,164,181,71,295,298,61,50,14,251,247,213,189,178,210,241,110,288,161,204,111,153,180,231,215,12,123,212,297,142,28,296,235,27,105,75,1,158,155,255,287,36,83,278,139,229,97,282,59,62,74,87,200,167,273,107,150,4,216,184,115,174,93,56,193,230,195,275,185,266,119,183,85,18,122,208,141,258,291,261,205,240,84,86,187,47,171,194,252,225,270,101,146,33,11,70,88,90,137,51,284,116,237,201,202,128]","arrowright","","true","1","1","90","300","[""0080_N0300_K0090_NOCLIQUE"",""0086_N0300_K0090_CLIQUE""]"
"","","","","","audio-keyboard-response","117","337141","0.0-80.0-0.0-1.0","","null","audio_feedback/right/coin01.mp3","null","","","","","1","1","90","300","[""0080_N0300_K0090_NOCLIQUE"",""0086_N0300_K0090_CLIQUE""]"
"","","","","","canvas-keyboard-response","118","338125","0.0-81.0-0.0-0.0","","801","","arrowleft","[257,146,229,232,182,251,121,95,193,255,227,168,71,285,189,231,150,69,223,211,298,8,76,48,9,187,86,240,63,18,177,17,41,140,218,125,122,11,178,43,254,92,120,65,118,57,261,172,280,256,192,39,284,38,3,275,5,47,100,207,144,73,258,250,115,248,201,31,270,253,56,260,15,70,184,155,213,208,13,61,204,142,116,29,139,199,191,40,271,276,129,45,153,26,183,277,133,291,102,96,4,226,109,89,243,54,286,214,19,147,154,114,25,220,294,235,124,151,194,14,238,169,196,60,88,242,52,221,50,138,68,163,185,179,32,78,107,206,55,64,49,34,103,157,37,23,283,85,79,282,281,247,295,132,265,130,81,249,126,74,217,128,269,21,98,233,176,1,134,105,137,159,212,90,58,174,209,145,110,7,216,28,2,33,160,173,91,198,67,237,200,108,106,80,274,97,245,66,143,93,16,72,186,188,136,222,87,0,82,99,22,252,75,197,12,210,83,288,259,84,267,27,51,161,289,166,279,164,171,6,241,170,296,148,113,290,202,264,272,119,175,278,20,230,236,59,293,62,215,239,101,123,35,224,162,149,141,165,262,44,152,268,190,10,127,77,46,53,36,246,167,297,30,117,112,244,266,180,104,156,111,273,292,24,203,234,219,131,228,299,158,205,181,263,287,94,225,135,195,42]","arrowleft","","true","1","2","80","300","[""0098_N0300_K0080_CLIQUE"",""0019_N0300_K0080_NOCLIQUE""]"
"","","","","","audio-keyboard-response","119","338549","0.0-81.0-0.0-1.0","","null","audio_feedback/right/coin01.mp3","null","","","","","1","2","80","300","[""0098_N0300_K0080_CLIQUE"",""0019_N0300_K0080_NOCLIQUE""]"
"","","","","","canvas-keyboard-response","120","339747","0.0-82.0-0.0-0.0","","1046","","arrowright","[76,235,107,130,170,239,105,114,19,2,156,290,79,282,256,55,121,252,257,222,29,71,141,60,272,294,13,134,103,34,159,151,206,84,148,163,11,125,155,154,120,65,23,116,262,5,1,123,119,224,258,109,46,100,250,133,203,74,223,95,230,47,108,238,22,132,104,51,122,179,174,17,152,139,113,194,88,274,275,146,33,285,99,221,172,241,3,44,196,6,200,117,144,181,227,169,201,140,31,153,35,186,111,102,66,205,166,45,278,128,80,67,246,225,268,279,270,193,259,168,138,202,49,173,48,36,284,195,210,209,87,237,32,63,30,69,295,232,299,93,218,269,253,98,137,171,292,211,39,167,28,243,219,267,27,245,264,57,58,15,127,217,199,164,263,38,189,286,213,129,54,94,190,236,112,283,61,91,106,271,188,50,212,92,68,21,273,9,280,62,247,281,162,216,118,41,64,175,145,293,97,136,73,70,234,12,7,85,72,43,59,24,143,214,251,40,248,187,25,126,291,226,86,149,18,215,198,157,296,90,288,89,260,110,147,52,115,276,20,161,277,42,265,261,131,8,53,150,0,158,182,255,75,160,254,77,26,244,231,287,96,16,220,242,289,204,240,142,192,228,183,184,185,207,197,14,229,208,177,249,135,124,56,176,165,178,297,180,233,101,4,83,37,10,81,78,82,266,191,298]","arrowright","","true","1","3","80","300","[""0097_N0300_K0080_NOCLIQUE"",""0059_N0300_K0080_CLIQUE""]"
"","","","","","audio-keyboard-response","121","340170","0.0-82.0-0.0-1.0","","null","audio_feedback/right/coin01.mp3","null","","","","","1","3","80","300","[""0097_N0300_K0080_NOCLIQUE"",""0059_N0300_K0080_CLIQUE""]"
"","","","","","canvas-keyboard-response","122","341197","0.0-83.0-0.0-0.0","","878","","arrowleft","[53,102,294,14,196,296,190,261,48,271,169,3,171,30,195,103,97,165,99,267,119,25,272,285,266,22,221,29,170,244,200,297,64,293,44,107,262,49,289,129,74,86,31,144,218,0,40,198,213,91,93,87,46,276,159,130,181,96,217,233,176,105,80,207,223,142,9,100,42,106,57,8,68,27,246,88,126,98,182,211,47,111,5,62,154,220,155,89,95,116,157,117,247,51,201,83,204,229,279,141,160,114,227,148,275,250,273,231,137,287,133,150,232,191,85,298,206,79,224,295,184,161,194,151,178,12,166,286,52,92,242,77,24,174,54,36,65,241,35,163,168,136,55,118,13,109,16,215,226,278,135,288,235,239,214,134,234,173,140,37,222,108,197,243,139,193,132,41,125,162,258,179,212,255,138,28,152,283,131,167,66,230,10,145,209,158,237,238,265,101,175,70,269,90,4,281,185,123,56,192,219,177,20,270,50,81,120,186,264,33,78,124,205,277,188,60,257,58,199,7,38,299,254,84,122,67,59,216,187,252,210,245,69,274,236,263,249,292,225,39,147,43,228,128,172,189,248,75,34,17,21,63,146,11,143,156,260,26,149,45,183,115,290,251,127,6,240,104,208,82,15,259,164,71,256,73,282,94,112,268,110,253,72,18,19,280,23,291,121,180,202,76,32,61,113,1,2,203,284,153]","arrowleft","","true","1","4","70","300","[""0045_N0300_K0070_CLIQUE"",""0019_N0300_K0070_NOCLIQUE""]"
"","","","","","audio-keyboard-response","123","341621","0.0-83.0-0.0-1.0","","null","audio_feedback/right/coin01.mp3","null","","","","","1","4","70","300","[""0045_N0300_K0070_CLIQUE"",""0019_N0300_K0070_NOCLIQUE""]"
"","","","","","canvas-keyboard-response","124","342467","0.0-84.0-0.0-0.0","","681","","arrowleft","[296,215,16,225,21,52,213,125,243,276,67,261,164,1,249,144,166,132,281,189,299,202,38,58,27,157,13,3,169,187,292,222,194,170,130,135,184,43,51,114,156,203,200,141,49,172,255,66,65,119,163,258,151,18,259,64,191,8,128,291,265,99,280,221,298,34,159,236,32,85,11,137,285,175,117,185,73,272,223,111,263,31,134,26,277,260,120,207,53,216,68,77,129,44,219,23,267,145,50,165,183,91,266,116,59,84,186,199,257,92,80,168,41,212,256,83,17,12,35,247,63,147,160,205,127,81,158,42,61,100,109,177,140,82,198,69,14,176,106,7,218,220,33,39,87,126,297,102,105,154,79,196,37,108,104,19,131,289,248,143,269,253,242,70,150,262,286,139,54,94,274,75,93,210,211,273,230,20,208,217,290,115,86,101,78,107,179,6,55,246,149,9,103,180,146,238,244,153,229,89,29,181,231,173,178,112,284,162,190,96,204,60,88,252,287,282,5,268,271,136,171,122,279,45,133,74,232,47,121,233,161,62,245,295,57,234,254,214,142,201,294,124,97,76,123,10,113,15,182,90,264,293,235,167,46,288,270,241,95,40,193,188,239,138,192,2,227,0,48,25,152,36,237,22,24,228,226,155,224,240,56,197,72,209,250,118,71,251,195,148,278,206,275,283,28,98,30,110,4,174]","arrowleft","","true","1","5","70","300","[""0042_N0300_K0070_CLIQUE"",""0037_N0300_K0070_NOCLIQUE""]"
"","","","","","audio-keyboard-response","125","342880","0.0-84.0-0.0-1.0","","null","audio_feedback/right/coin01.mp3","null","","","","","1","5","70","300","[""0042_N0300_K0070_CLIQUE"",""0037_N0300_K0070_NOCLIQUE""]"
"","","","","","canvas-keyboard-response","126","344515","0.0-85.0-0.0-0.0","","1451","","arrowright","[220,297,253,165,159,108,298,55,161,119,160,104,135,10,168,219,194,4,145,53,67,127,215,228,260,172,166,240,177,190,115,283,28,245,222,54,43,17,18,63,29,72,263,111,36,202,234,140,65,93,99,284,130,35,148,1,50,155,81,233,208,143,21,164,299,71,131,80,136,0,254,242,294,256,113,66,163,41,271,3,296,9,214,105,20,184,239,176,162,123,51,201,101,270,38,185,207,154,255,110,78,290,257,86,173,96,272,197,57,12,121,74,183,212,76,107,182,171,156,40,85,267,79,133,229,264,34,141,200,167,91,62,37,49,16,231,132,210,89,266,274,275,152,60,90,59,289,288,129,117,45,98,122,191,15,158,2,5,109,138,278,244,126,11,243,14,250,224,261,230,211,217,285,144,150,235,221,151,97,46,205,273,218,280,237,169,68,248,142,187,7,277,293,279,95,83,75,61,238,209,186,118,249,52,114,178,134,82,286,87,6,252,106,287,31,39,225,19,268,189,70,247,25,195,8,196,259,213,203,44,32,281,276,92,77,125,48,94,139,64,226,236,181,147,170,282,216,258,120,116,251,192,100,174,26,22,223,227,146,269,206,265,188,112,58,291,199,73,137,128,180,84,149,88,193,232,42,102,23,157,241,175,47,198,69,103,56,246,13,33,262,27,292,124,24,204,30,153,179,295]","arrowleft","","false","1","6","65","300","[""0100_N0300_K0065_CLIQUE"",""0076_N0300_K0065_NOCLIQUE""]"
"","","","","","audio-keyboard-response","127","345141","0.0-85.0-0.0-1.0","","null","audio_feedback/wrong/error01.mp3","null","","","","","1","6","65","300","[""0100_N0300_K0065_CLIQUE"",""0076_N0300_K0065_NOCLIQUE""]"
"","","","","","canvas-keyboard-response","128","346051","0.0-86.0-0.0-0.0","","769","","arrowleft","[199,277,127,221,265,131,220,87,205,238,218,47,187,117,81,8,13,284,22,270,107,174,40,58,62,151,280,21,3,159,266,176,150,229,186,285,90,207,1,249,92,158,111,106,172,216,65,179,86,55,9,143,93,72,253,122,16,137,170,145,264,27,41,96,294,276,118,139,225,136,155,169,167,60,0,154,244,156,99,283,222,185,168,18,114,133,206,271,130,56,28,24,54,194,275,49,203,162,201,289,38,121,67,14,123,239,211,88,48,296,144,226,91,163,281,274,109,197,51,36,129,74,200,19,124,43,215,20,78,7,209,66,84,63,188,134,293,196,287,290,180,212,11,292,272,228,50,2,135,94,245,108,161,35,125,223,128,258,33,148,232,256,260,166,254,240,42,252,112,105,233,98,10,97,160,181,52,119,190,141,259,116,80,192,85,89,235,53,204,113,237,183,152,299,227,193,255,157,291,103,73,140,165,25,242,278,71,234,210,257,31,214,142,243,219,102,261,195,230,236,17,110,147,82,146,224,76,100,120,12,45,282,5,6,57,138,39,279,115,64,191,177,297,173,295,23,288,34,246,15,70,184,231,164,178,126,44,132,61,217,77,268,59,83,104,182,26,298,37,286,213,247,29,153,250,79,149,46,267,30,208,198,269,95,262,32,171,241,101,263,189,4,69,251,202,75,248,68,175,273]","arrowleft","","true","1","7","65","300","[""0064_N0300_K0065_CLIQUE"",""0093_N0300_K0065_NOCLIQUE""]"
"","","","","","audio-keyboard-response","129","346464","0.0-86.0-0.0-1.0","","null","audio_feedback/right/coin01.mp3","null","","","","","1","7","65","300","[""0064_N0300_K0065_CLIQUE"",""0093_N0300_K0065_NOCLIQUE""]"
"","","","","","canvas-keyboard-response","130","347628","0.0-87.0-0.0-0.0","","980","","arrowright","[48,11,56,264,182,135,250,127,95,232,223,151,8,47,51,160,153,12,292,257,227,271,286,67,269,198,185,124,119,212,68,180,261,157,108,34,122,275,35,190,77,214,260,138,172,117,29,93,207,99,50,251,274,259,89,45,66,174,110,228,16,194,52,129,253,132,3,87,237,44,85,125,7,291,179,57,10,149,168,18,222,58,268,167,142,59,247,282,205,140,281,263,91,224,201,64,73,165,2,38,54,37,219,252,17,217,111,262,25,126,115,136,248,218,97,255,169,266,116,114,106,102,13,233,145,246,215,270,234,139,265,208,49,183,256,277,24,9,82,90,296,105,200,65,288,187,5,192,88,258,62,98,211,137,156,243,244,121,40,53,199,96,101,36,231,61,72,195,209,23,186,120,293,79,178,107,226,144,159,225,164,210,1,173,283,221,109,131,287,235,197,155,100,104,15,33,133,94,273,154,19,123,31,163,152,161,76,55,70,92,267,202,80,113,63,86,78,71,39,203,249,294,83,162,284,254,22,229,213,206,175,112,295,280,60,143,191,103,27,118,241,285,276,188,148,289,220,272,41,4,238,32,216,42,84,240,150,75,171,43,290,297,28,128,184,14,176,74,189,298,230,239,134,81,146,166,299,278,196,279,30,177,141,204,245,170,236,69,46,6,158,130,0,26,242,193,20,147,21,181]","arrowright","","true","1","8","60","300","[""0022_N0300_K0060_NOCLIQUE"",""0038_N0300_K0060_CLIQUE""]"
"","","","","","audio-keyboard-response","131","348042","0.0-87.0-0.0-1.0","","null","audio_feedback/right/coin01.mp3","null","","","","","1","8","60","300","[""0022_N0300_K0060_NOCLIQUE"",""0038_N0300_K0060_CLIQUE""]"
"","","","","","canvas-keyboard-response","132","348983","0.0-88.0-0.0-0.0","","756","","arrowright","[277,123,101,168,156,205,9,227,278,184,87,135,246,114,81,235,141,105,214,237,240,263,195,243,7,21,267,252,287,255,54,18,155,74,95,113,65,62,41,64,178,60,148,27,55,222,120,38,94,230,91,242,115,232,52,208,158,245,225,275,2,70,268,154,257,298,85,37,75,50,119,201,152,185,179,143,289,139,127,46,218,146,204,4,77,86,73,109,125,150,270,47,190,19,129,144,221,173,264,192,197,241,223,229,99,203,106,217,188,80,183,97,231,43,83,29,35,32,176,3,112,209,116,17,253,56,189,198,25,219,292,58,228,251,132,23,159,234,262,68,164,13,39,250,63,239,15,199,130,274,134,207,22,215,100,202,151,206,254,271,172,78,131,61,72,284,194,293,177,180,259,281,128,140,238,161,149,88,51,283,191,59,48,57,26,200,20,269,133,84,44,297,279,108,89,224,82,118,28,122,0,166,181,261,30,256,258,33,98,220,233,42,136,213,175,121,111,290,282,104,126,31,66,160,40,6,296,285,171,53,153,212,103,286,265,67,142,276,273,24,34,110,124,162,193,79,96,260,69,117,280,249,186,1,216,174,145,169,102,182,170,294,36,10,167,295,299,92,12,211,291,49,5,272,288,8,236,165,266,90,137,76,248,93,45,16,107,157,147,244,163,14,196,210,247,226,71,138,187,11]","arrowright","","true","1","9","60","300","[""0097_N0300_K0060_NOCLIQUE"",""0089_N0300_K0060_CLIQUE""]"
"","","","","","audio-keyboard-response","133","349408","0.0-88.0-0.0-1.0","","null","audio_feedback/right/coin01.mp3","null","","","","","1","9","60","300","[""0097_N0300_K0060_NOCLIQUE"",""0089_N0300_K0060_CLIQUE""]"
"","","","","","canvas-keyboard-response","134","350278","0.0-89.0-0.0-0.0","","690","","arrowleft","[143,81,8,164,177,57,185,207,187,119,43,282,74,12,1,25,223,261,13,245,42,216,270,21,84,244,20,100,154,234,162,160,178,150,151,124,159,194,239,90,95,175,63,7,283,70,67,144,134,230,15,221,60,166,98,140,45,291,229,201,102,289,254,179,247,149,85,139,47,238,118,226,112,19,105,31,181,290,227,204,200,182,163,79,299,225,46,233,231,103,89,269,137,253,142,190,17,220,219,104,155,208,280,2,199,217,34,24,196,198,30,212,172,28,266,62,267,109,61,259,184,127,38,248,36,186,256,91,242,59,156,214,145,286,206,293,262,9,107,295,93,147,176,94,281,51,275,65,10,123,126,258,146,41,33,117,35,236,148,120,297,72,168,133,40,203,257,16,173,101,50,180,210,249,183,152,218,265,80,121,294,5,77,153,170,37,26,14,56,264,260,171,279,110,114,87,128,276,197,68,11,277,125,237,298,167,122,255,75,3,58,191,274,263,32,129,243,271,130,18,240,23,132,228,268,113,141,209,106,27,161,287,86,73,213,232,235,278,188,174,55,49,131,111,273,246,99,92,22,71,211,284,157,252,135,222,44,6,251,66,224,158,202,78,165,108,193,169,296,285,195,189,29,88,76,39,272,54,52,69,64,250,288,53,116,215,138,0,97,83,4,192,115,292,48,205,136,82,241,96]","arrowleft","","true","1","10","55","300","[""0100_N0300_K0055_CLIQUE"",""0076_N0300_K0055_NOCLIQUE""]"
"","","","","","audio-keyboard-response","135","350709","0.0-89.0-0.0-1.0","","null","audio_feedback/right/coin01.mp3","null","","","","","1","10","55","300","[""0100_N0300_K0055_CLIQUE"",""0076_N0300_K0055_NOCLIQUE""]"
"","","","","","canvas-keyboard-response","136","351979","0.0-90.0-0.0-0.0","","1128","","arrowright","[118,113,226,117,119,148,62,228,238,100,11,256,109,20,105,271,283,81,142,252,97,55,286,83,146,48,194,165,157,261,136,10,42,180,32,61,85,15,1,128,23,297,66,28,197,159,188,161,134,40,277,240,203,63,254,72,112,30,95,77,234,114,147,31,274,54,116,69,103,265,27,293,45,239,160,154,155,170,138,263,231,223,191,125,196,53,0,198,43,174,292,47,17,50,225,67,185,26,171,218,129,57,282,135,18,245,189,216,122,75,120,150,199,108,207,102,71,259,19,201,208,206,84,164,35,214,82,130,94,16,76,162,250,275,101,36,4,87,251,288,98,176,158,70,269,51,168,13,121,126,153,211,298,258,280,93,89,236,34,179,260,243,247,163,264,12,88,49,262,90,8,58,267,205,249,227,127,296,131,242,79,24,204,193,299,115,56,65,33,229,68,222,266,195,219,73,132,172,221,213,190,145,248,183,144,14,220,107,200,104,279,152,6,268,217,244,46,123,224,257,284,169,294,278,74,230,241,29,141,137,5,7,246,92,285,281,140,273,215,295,124,151,290,167,232,44,291,233,276,80,110,237,21,60,59,289,39,178,96,2,210,106,22,91,182,38,133,156,177,184,255,41,202,149,99,37,173,272,192,25,212,175,270,235,186,187,287,139,86,52,143,78,9,64,3,166,253,181,111,209]","arrowleft","","false","1","11","55","300","[""0058_N0300_K0055_CLIQUE"",""0044_N0300_K0055_NOCLIQUE""]"
"","","","","","audio-keyboard-response","137","352565","0.0-90.0-0.0-1.0","","null","audio_feedback/wrong/error01.mp3","null","","","","","1","11","55","300","[""0058_N0300_K0055_CLIQUE"",""0044_N0300_K0055_NOCLIQUE""]"
"","","","","","canvas-keyboard-response","138","353391","0.0-91.0-0.0-0.0","","690","","arrowleft","[193,253,205,189,168,35,201,51,203,122,262,163,162,86,2,82,231,298,283,20,194,29,63,275,218,279,160,27,10,156,220,119,107,234,5,249,186,16,30,18,159,291,114,77,108,256,267,195,250,24,33,123,21,94,97,125,101,23,263,56,95,212,130,14,215,216,226,222,55,12,109,93,43,246,269,138,89,261,145,176,59,69,157,211,88,46,238,188,139,153,225,48,248,87,241,184,111,271,180,53,264,224,72,274,290,9,3,113,273,36,100,142,152,240,127,254,50,146,49,47,192,106,131,15,134,178,185,17,66,148,171,272,255,207,41,128,296,243,67,158,136,221,25,90,213,295,155,7,45,219,74,39,237,75,104,81,278,198,52,31,244,214,294,28,284,293,289,116,227,68,60,102,115,209,239,228,141,257,140,135,208,84,65,266,204,143,73,252,37,13,167,288,133,44,177,137,280,191,132,276,38,117,150,202,85,126,179,98,144,118,251,229,112,103,206,54,110,147,235,91,105,40,96,78,175,233,286,64,199,210,223,8,181,83,149,183,230,259,173,34,76,1,92,285,4,61,99,161,172,165,164,236,232,121,277,170,26,245,166,124,282,19,281,200,247,258,11,32,242,297,154,22,169,299,71,6,187,80,260,58,79,196,129,174,42,0,265,217,268,270,292,190,287,70,57,182,120,62,197,151]","arrowright","","false","1","12","50","300","[""0084_N0300_K0050_NOCLIQUE"",""0056_N0300_K0050_CLIQUE""]"
"","","","","","audio-keyboard-response","139","353973","0.0-91.0-0.0-1.0","","null","audio_feedback/wrong/error01.mp3","null","","","","","1","12","50","300","[""0084_N0300_K0050_NOCLIQUE"",""0056_N0300_K0050_CLIQUE""]"
"","","","","","canvas-keyboard-response","140","354860","0.0-92.0-0.0-0.0","","751","","arrowright","[129,60,76,71,191,176,55,119,268,145,3,236,182,114,66,124,241,103,83,61,259,250,273,187,74,106,264,164,56,116,50,262,101,253,100,159,152,295,175,287,246,292,265,190,84,95,146,7,233,40,194,131,65,201,168,151,161,120,59,261,271,242,267,232,42,73,130,282,62,202,186,185,12,143,263,277,204,269,70,165,89,223,173,198,209,243,19,195,235,217,53,6,35,272,27,127,122,126,138,285,156,153,24,33,148,288,26,113,136,29,251,69,226,189,210,240,45,18,128,85,54,147,112,196,87,229,123,270,88,99,231,245,82,172,219,38,63,257,160,244,150,125,225,111,197,171,52,218,154,290,299,286,174,214,200,177,167,32,289,118,46,121,296,80,298,212,51,9,169,162,276,36,25,96,23,93,75,58,192,207,266,158,16,108,117,28,144,47,278,30,2,142,221,216,140,31,284,8,206,134,4,274,57,11,49,237,279,5,98,86,184,34,193,78,48,208,249,139,294,230,228,92,77,37,1,275,39,199,227,222,13,239,141,94,133,179,107,137,109,155,188,215,281,68,252,247,203,166,81,20,157,15,90,43,17,238,102,291,104,211,183,22,44,170,72,280,97,256,181,283,132,234,254,135,10,224,297,178,258,255,64,149,21,67,180,14,205,0,79,293,163,213,220,260,110,105,91,115,248,41]","arrowright","","true","1","13","50","300","[""0100_N0300_K0050_NOCLIQUE"",""0006_N0300_K0050_CLIQUE""]"
"","","","","","audio-keyboard-response","141","355274","0.0-92.0-0.0-1.0","","null","audio_feedback/right/coin01.mp3","null","","","","","1","13","50","300","[""0100_N0300_K0050_NOCLIQUE"",""0006_N0300_K0050_CLIQUE""]"
"","","","","","canvas-keyboard-response","142","356315","0.0-93.0-0.0-0.0","","886","","arrowright","[44,45,41,18,288,200,80,12,219,276,2,146,159,100,77,62,65,75,149,138,29,277,121,133,26,83,166,213,141,230,218,194,246,42,167,105,128,23,285,172,107,247,66,160,61,179,212,143,22,108,124,33,73,69,220,131,92,106,54,151,0,275,271,17,274,201,123,110,227,199,147,51,207,24,48,32,163,86,156,4,257,58,16,5,127,7,89,115,296,262,248,164,224,184,278,56,298,144,139,177,260,68,47,269,52,252,158,76,168,205,125,235,3,101,60,190,240,150,226,140,223,31,111,6,154,169,114,165,98,202,70,25,281,263,291,155,242,161,273,270,256,214,181,116,9,239,216,289,176,279,130,203,120,104,63,290,8,27,228,255,112,21,236,82,210,74,1,174,238,91,237,264,186,204,102,244,88,261,170,243,67,87,297,293,197,103,55,209,13,295,118,153,193,259,95,30,134,253,265,135,157,232,258,117,187,294,250,292,93,231,35,43,221,152,251,97,64,81,171,195,50,241,94,109,15,142,59,299,215,185,280,267,113,136,217,266,287,233,14,84,175,34,191,229,132,234,148,99,208,28,72,211,122,38,71,145,49,85,57,272,79,182,90,39,178,196,53,284,206,10,96,173,46,20,283,36,254,37,249,162,225,119,126,183,268,188,19,129,180,189,286,192,222,78,198,40,282,137,11,245]","arrowleft","","false","1","14","45","300","[""0081_N0300_K0045_CLIQUE"",""0081_N0300_K0045_NOCLIQUE""]"
"","","","","","audio-keyboard-response","143","356895","0.0-93.0-0.0-1.0","","null","audio_feedback/wrong/error01.mp3","null","","","","","1","14","45","300","[""0081_N0300_K0045_CLIQUE"",""0081_N0300_K0045_NOCLIQUE""]"
"","","","","","canvas-keyboard-response","144","357964","0.0-94.0-0.0-0.0","","947","","arrowleft","[61,72,6,275,115,132,77,18,131,3,186,76,38,98,0,73,155,109,161,187,266,83,261,117,116,286,44,173,2,169,144,142,101,94,124,272,269,207,93,107,82,108,130,175,240,149,216,264,235,209,220,153,299,74,92,1,293,183,237,119,156,242,8,138,297,172,193,33,206,271,160,36,24,185,203,225,143,102,205,39,60,184,56,194,158,95,86,45,211,259,111,21,244,249,157,214,179,233,247,287,191,228,250,69,112,43,176,136,151,165,71,223,154,35,17,199,217,197,140,270,37,215,204,298,65,263,31,245,14,28,64,32,166,181,16,253,289,127,120,180,68,252,81,113,218,5,221,268,118,231,177,40,19,13,87,281,7,137,53,254,182,213,27,42,258,192,174,123,30,282,103,152,105,178,148,219,163,41,284,89,62,255,260,63,257,168,146,267,80,9,273,280,59,295,26,99,167,58,29,133,128,288,48,10,55,162,200,79,141,145,251,147,274,164,243,121,134,51,248,256,291,52,279,11,104,198,75,222,125,50,49,230,238,195,232,278,196,97,67,122,210,66,188,283,106,171,170,229,46,88,190,227,22,290,212,96,277,150,20,234,241,34,57,239,78,201,294,110,4,85,135,12,54,23,226,208,276,84,100,236,202,285,246,25,15,265,90,224,189,126,70,139,159,296,262,91,47,129,114,292]","arrowright","","false","1","15","45","300","[""0071_N0300_K0045_NOCLIQUE"",""0008_N0300_K0045_CLIQUE""]"
"","","","","","audio-keyboard-response","145","358560","0.0-94.0-0.0-1.0","","null","audio_feedback/wrong/error01.mp3","null","","","","","1","15","45","300","[""0071_N0300_K0045_NOCLIQUE"",""0008_N0300_K0045_CLIQUE""]"
"","","","","","canvas-keyboard-response","146","359415","0.0-95.0-0.0-0.0","","711","","arrowleft","[204,142,104,98,165,19,245,152,37,188,240,63,193,232,292,150,222,196,149,146,169,177,102,77,72,253,265,167,91,295,266,118,294,60,15,55,148,106,236,88,180,134,45,187,85,32,189,39,178,239,230,184,190,202,260,241,153,69,78,218,65,205,293,10,7,195,290,135,133,107,173,274,185,287,33,6,220,13,201,284,267,99,181,110,21,20,258,228,175,259,67,90,101,108,140,212,214,79,182,255,161,285,53,158,213,155,211,262,116,14,276,281,89,138,151,103,216,176,186,92,121,100,43,172,157,234,270,297,198,124,200,120,83,229,209,40,74,286,283,95,256,113,36,132,217,66,81,231,139,49,96,171,1,247,31,192,5,27,26,127,168,109,111,112,264,174,34,136,114,47,208,56,129,249,227,128,71,279,257,35,131,163,2,44,223,251,289,123,105,4,162,75,0,22,206,243,52,164,278,122,199,42,82,93,194,210,141,233,61,8,296,291,299,18,246,275,191,94,17,145,125,179,263,269,197,54,16,115,48,250,24,143,73,273,57,59,87,261,23,38,70,64,166,28,46,156,170,221,160,76,159,288,203,183,237,272,277,254,30,119,238,225,219,68,226,298,29,280,25,244,154,271,80,51,86,282,248,235,147,97,268,224,126,117,207,50,84,130,137,242,12,9,41,11,215,58,144,252,3,62]","arrowright","","false","1","16","40","300","[""0079_N0300_K0040_NOCLIQUE"",""0082_N0300_K0040_CLIQUE""]"
"","","","","","audio-keyboard-response","147","360011","0.0-95.0-0.0-1.0","","null","audio_feedback/wrong/error01.mp3","null","","","","","1","16","40","300","[""0079_N0300_K0040_NOCLIQUE"",""0082_N0300_K0040_CLIQUE""]"
"","","","","","canvas-keyboard-response","148","361309","0.0-96.0-0.0-0.0","","1162","","arrowright","[266,3,15,127,288,19,9,239,117,170,90,69,214,62,21,11,210,102,261,36,230,32,229,75,280,82,281,65,157,242,154,31,289,34,55,16,272,241,199,94,290,138,86,188,77,39,73,109,173,235,200,66,125,156,135,2,293,67,196,223,114,124,221,269,116,71,49,150,6,240,59,40,44,45,257,197,245,231,244,72,233,185,83,219,253,78,218,133,121,64,68,296,122,220,111,54,130,178,232,258,228,174,14,162,286,201,50,248,168,204,190,97,48,160,103,96,169,115,4,264,129,30,20,164,46,12,166,274,79,104,107,177,175,53,273,146,81,260,224,225,285,89,237,88,211,148,18,255,283,171,227,161,10,60,25,287,140,249,57,126,37,236,144,52,189,251,176,250,149,256,198,203,153,13,195,47,216,292,291,41,131,284,275,222,215,108,268,38,238,180,119,243,202,0,8,17,134,35,27,191,56,92,74,100,205,98,265,279,259,120,155,282,70,91,42,181,128,87,51,278,145,159,252,105,123,270,22,43,277,193,29,217,28,298,172,143,207,151,93,179,262,152,208,194,99,137,165,163,141,132,184,226,139,206,63,95,209,142,267,246,183,118,182,147,136,295,213,276,80,112,23,299,26,234,61,76,58,167,1,297,247,186,192,294,7,212,187,158,5,106,84,263,101,254,113,110,85,33,271,24]","arrowleft","","false","1","17","40","300","[""0076_N0300_K0040_CLIQUE"",""0026_N0300_K0040_NOCLIQUE""]"
"","","","","","audio-keyboard-response","149","361910","0.0-96.0-0.0-1.0","","null","audio_feedback/wrong/error01.mp3","null","","","","","1","17","40","300","[""0076_N0300_K0040_CLIQUE"",""0026_N0300_K0040_NOCLIQUE""]"
"","","","","","canvas-keyboard-response","150","364088","0.0-97.0-0.0-0.0","","2025","","arrowleft","[248,236,190,296,48,139,144,150,261,102,49,123,132,134,262,298,244,99,237,109,156,118,46,199,71,172,76,158,192,29,290,214,241,200,112,269,221,80,98,230,138,64,43,231,33,9,114,65,198,264,70,157,92,228,103,56,284,182,58,11,34,152,3,177,207,195,223,137,170,40,141,35,187,213,224,282,104,149,105,22,240,159,218,287,17,154,171,226,4,151,0,283,279,252,136,225,257,115,57,59,5,186,73,94,193,297,291,271,272,211,243,263,93,206,44,88,116,20,50,251,101,194,285,277,32,130,232,82,258,45,62,120,19,253,1,155,113,91,265,90,10,188,81,217,107,249,117,196,25,87,268,21,183,140,119,16,72,191,180,219,247,235,131,202,185,36,97,215,275,89,210,111,147,168,18,227,222,2,166,15,69,127,161,276,246,212,273,55,126,160,47,239,201,163,26,270,42,286,77,66,86,85,288,27,256,259,7,294,281,39,178,52,96,60,63,143,293,245,106,61,167,67,128,292,129,266,169,205,260,41,110,254,78,12,174,135,280,176,37,153,238,51,204,68,13,189,295,100,179,54,274,148,30,299,278,24,8,125,146,289,250,267,197,145,79,108,83,95,75,38,208,255,31,74,175,184,142,28,220,84,181,23,242,133,122,53,14,6,234,173,233,203,165,164,124,229,216,121,162,209]","arrowright","","false","1","18","35","300","[""0010_N0300_K0035_NOCLIQUE"",""0098_N0300_K0035_CLIQUE""]"
"","","","","","audio-keyboard-response","151","364684","0.0-97.0-0.0-1.0","","null","audio_feedback/wrong/error01.mp3","null","","","","","1","18","35","300","[""0010_N0300_K0035_NOCLIQUE"",""0098_N0300_K0035_CLIQUE""]"
"","","","","","canvas-keyboard-response","152","365493","0.0-98.0-0.0-0.0","","615","","arrowright","[41,244,261,182,289,281,291,5,55,229,101,100,282,86,75,201,57,185,137,188,267,254,31,95,183,15,199,82,170,90,203,214,84,252,210,165,225,208,212,205,134,122,22,260,220,231,127,189,106,25,67,52,196,7,226,19,109,35,34,238,257,155,91,287,141,49,274,42,59,73,211,158,284,154,218,241,56,239,72,124,148,69,71,107,21,96,162,171,92,292,197,150,191,79,240,258,130,93,187,1,234,112,186,129,213,145,164,61,62,246,80,232,253,58,138,23,68,275,64,194,153,37,113,195,119,299,44,200,207,65,108,265,169,243,133,235,163,70,89,271,39,202,6,29,143,114,147,45,157,117,247,263,266,38,32,30,136,131,286,88,24,177,224,161,152,126,18,81,74,97,228,121,168,115,12,176,272,8,50,249,76,209,178,11,173,10,156,83,298,172,288,276,53,227,192,103,273,259,142,221,85,98,223,128,175,120,219,296,215,13,4,14,262,33,222,54,135,78,270,0,149,245,269,236,198,256,139,40,251,47,9,36,151,160,285,242,27,255,102,48,17,146,111,237,268,180,293,132,28,125,20,104,26,63,295,46,250,144,280,233,159,277,279,283,118,87,184,60,217,248,116,77,123,278,66,110,181,297,193,290,264,294,16,216,3,204,174,140,105,166,167,230,99,206,43,94,179,190,2,51]","arrowleft","","false","1","19","35","300","[""0049_N0300_K0035_CLIQUE"",""0040_N0300_K0035_NOCLIQUE""]"
"","","","","","audio-keyboard-response","153","366091","0.0-98.0-0.0-1.0","","null","audio_feedback/wrong/error01.mp3","null","","","","","1","19","35","300","[""0049_N0300_K0035_CLIQUE"",""0040_N0300_K0035_NOCLIQUE""]"
"","","","","","canvas-keyboard-response","154","367120","0.0-99.0-0.0-0.0","","837","","arrowleft","[205,178,33,60,57,148,68,177,188,244,254,241,234,78,233,206,288,41,62,208,3,73,151,171,295,279,174,245,136,132,117,200,143,237,170,198,249,291,252,82,147,224,83,8,97,278,298,66,140,218,229,297,51,128,258,88,155,220,19,70,186,173,203,277,246,9,141,94,63,24,290,50,159,193,87,149,153,273,106,281,275,22,71,183,47,13,76,146,114,15,2,266,7,189,123,259,215,213,194,111,199,197,292,255,212,38,285,251,201,42,108,127,167,27,113,52,18,156,81,16,217,75,84,12,182,195,64,222,247,187,227,157,211,124,262,102,293,267,225,248,137,284,112,276,257,242,129,162,181,164,61,101,265,20,17,96,160,253,289,43,89,110,55,165,100,190,144,180,236,238,135,99,74,25,230,5,34,169,4,202,14,223,166,296,32,176,67,219,0,204,46,209,105,239,40,272,37,39,45,139,269,216,221,133,286,145,294,172,231,58,260,56,119,54,274,91,264,282,299,28,72,240,98,11,23,138,120,214,44,261,184,154,134,10,130,207,268,6,121,235,29,256,115,26,228,103,122,35,210,77,168,30,271,196,116,21,161,270,1,53,59,48,92,90,31,185,65,192,36,107,79,126,287,125,104,250,191,118,80,150,142,226,152,179,86,283,69,95,280,232,131,263,163,109,243,85,93,158,175,49]","arrowleft","","true","1","20","30","300","[""0024_N0300_K0030_CLIQUE"",""0043_N0300_K0030_NOCLIQUE""]"
"","","","","","audio-keyboard-response","155","367542","0.0-99.0-0.0-1.0","","null","audio_feedback/right/coin01.mp3","null","","","","","1","20","30","300","[""0024_N0300_K0030_CLIQUE"",""0043_N0300_K0030_NOCLIQUE""]"
"","","","","","canvas-keyboard-response","156","368717","0.0-100.0-0.0-0.0","","1014","","arrowleft","[34,65,215,217,228,241,299,179,23,78,19,272,156,157,44,140,259,255,40,39,286,251,48,146,149,26,129,273,152,249,295,245,126,234,206,101,80,182,108,70,264,55,282,209,102,63,0,58,247,271,231,95,118,59,138,263,74,21,119,29,184,175,155,204,115,196,96,223,288,104,133,66,124,17,91,180,236,250,194,93,145,52,290,53,143,162,242,60,105,114,237,262,28,192,87,20,296,13,168,82,86,9,85,188,121,187,68,287,117,266,203,67,154,107,90,177,167,137,207,136,132,123,25,151,240,22,18,176,244,186,122,11,169,57,147,47,200,197,16,150,98,81,32,225,131,254,270,142,111,216,2,100,94,219,112,291,159,181,289,213,285,212,135,257,265,279,120,27,84,235,166,61,284,97,1,161,83,210,171,293,31,269,3,233,185,71,253,297,160,144,38,211,43,50,195,232,92,248,128,252,4,45,141,258,76,174,7,261,56,54,103,163,260,220,42,14,170,148,214,183,109,227,229,72,198,275,268,110,64,41,239,75,15,77,62,230,226,116,238,35,130,208,173,24,37,172,5,106,153,294,164,79,218,88,193,127,8,158,246,73,276,6,30,46,10,51,222,243,134,199,139,267,205,191,281,274,33,224,277,12,221,89,201,69,189,99,283,298,36,202,256,292,280,165,190,113,278,125,178,49]","arrowright","","false","1","21","30","300","[""0035_N0300_K0030_NOCLIQUE"",""0038_N0300_K0030_CLIQUE""]"
"","","","","","audio-keyboard-response","157","369313","0.0-100.0-0.0-1.0","","null","audio_feedback/wrong/error01.mp3","null","","","","","1","21","30","300","[""0035_N0300_K0030_NOCLIQUE"",""0038_N0300_K0030_CLIQUE""]"
"","","","","","canvas-keyboard-response","158","370190","0.0-101.0-0.0-0.0","","712","","arrowright","[96,277,232,221,69,113,180,24,210,272,42,206,127,190,259,81,217,89,52,193,278,175,156,121,284,138,41,214,105,8,223,59,126,228,72,91,155,32,107,198,25,258,262,5,260,177,63,13,77,54,36,145,201,92,144,181,239,95,179,141,197,244,269,18,9,215,26,134,67,249,188,64,213,142,220,118,79,140,208,292,234,3,110,85,37,289,10,240,296,185,125,133,27,57,211,227,20,283,275,131,98,164,173,123,73,12,115,174,161,153,176,189,56,65,39,286,14,263,247,1,230,282,203,293,233,171,7,200,48,84,243,53,159,2,270,23,44,83,194,261,172,191,257,268,251,255,209,219,40,28,157,281,158,102,168,35,51,246,68,285,160,58,169,109,4,273,75,61,236,103,256,204,0,66,108,186,150,90,242,238,38,80,132,265,76,55,70,78,187,106,274,264,266,294,271,31,16,117,184,147,33,202,62,225,199,288,165,124,149,128,60,192,22,229,11,111,207,86,19,276,49,152,120,298,116,241,279,267,101,170,46,74,162,216,205,291,21,122,99,146,50,34,224,299,47,29,135,6,104,17,212,71,178,139,148,15,252,137,226,235,87,245,237,119,45,114,93,163,295,287,166,253,112,183,250,231,290,129,130,248,43,100,182,222,151,97,88,218,94,167,30,254,196,297,154,143,82,280,195,136]","arrowright","","true","1","22","25","300","[""0100_N0300_K0025_NOCLIQUE"",""0085_N0300_K0025_CLIQUE""]"
"","","","","","audio-keyboard-response","159","370613","0.0-101.0-0.0-1.0","","null","audio_feedback/right/coin01.mp3","null","","","","","1","22","25","300","[""0100_N0300_K0025_NOCLIQUE"",""0085_N0300_K0025_CLIQUE""]"
"","","","","","canvas-keyboard-response","160","371500","0.0-102.0-0.0-0.0","","703","","arrowright","[8,217,58,209,144,121,5,97,248,219,26,249,234,17,220,206,15,225,285,216,112,299,76,104,167,108,38,148,101,54,100,133,183,153,106,95,252,39,72,215,228,226,138,179,62,122,223,201,237,177,240,274,166,212,6,34,93,265,30,230,56,134,146,123,69,155,114,43,59,257,87,264,49,64,2,3,290,31,124,222,19,47,194,233,44,143,98,150,172,158,246,269,147,198,151,103,207,83,12,272,152,79,279,292,13,261,91,250,22,258,202,16,276,10,145,111,71,77,197,36,247,142,60,165,190,189,126,157,63,141,193,210,187,128,23,200,242,116,118,176,175,40,127,178,271,288,162,244,278,66,163,96,149,29,18,185,260,4,236,204,74,297,85,213,57,280,294,125,267,243,270,51,107,113,293,132,110,296,136,135,254,140,86,156,1,266,298,80,268,139,253,55,65,262,273,245,137,171,20,24,99,45,196,284,130,109,283,277,48,68,281,102,159,173,224,203,73,235,21,53,41,129,42,227,70,214,238,115,191,289,259,221,287,35,52,50,84,160,255,180,241,89,67,169,119,282,27,94,295,9,90,33,154,251,170,161,81,286,291,231,168,120,92,275,0,188,88,131,28,182,232,256,7,117,229,46,78,37,186,14,174,105,199,211,181,239,32,11,82,263,192,164,75,195,205,25,218,184,208,61]","arrowright","","true","1","23","25","300","[""0084_N0300_K0025_NOCLIQUE"",""0014_N0300_K0025_CLIQUE""]"
"","","","","","audio-keyboard-response","161","371915","0.0-102.0-0.0-1.0","","null","audio_feedback/right/coin01.mp3","null","","","","","1","23","25","300","[""0084_N0300_K0025_NOCLIQUE"",""0014_N0300_K0025_CLIQUE""]"
"","","","","","canvas-keyboard-response","162","372755","0.0-103.0-0.0-0.0","","663","","arrowright","[42,157,91,70,147,215,186,221,109,37,44,8,229,203,11,121,114,216,107,2,239,295,152,288,46,139,233,189,290,173,140,154,164,13,260,144,22,224,160,264,115,28,96,101,291,231,199,218,84,249,39,182,257,168,172,248,125,137,105,71,1,227,284,97,73,108,103,15,217,162,254,150,212,136,219,158,116,146,271,236,259,88,83,197,188,267,55,49,93,61,275,263,47,179,6,294,251,16,138,95,223,142,118,35,99,64,213,170,100,246,237,247,167,98,12,45,208,56,166,32,156,192,235,169,149,282,165,256,29,130,24,134,159,65,14,131,77,222,58,43,272,63,293,4,104,289,143,133,211,228,230,30,238,33,287,53,132,122,190,276,184,102,3,87,17,261,298,268,269,183,123,273,232,18,110,185,207,113,106,50,41,89,244,205,66,9,209,187,119,286,262,178,85,126,266,245,253,163,80,161,285,25,90,171,124,200,194,57,281,177,292,279,135,0,153,127,214,20,74,242,19,75,68,250,7,31,27,78,141,111,86,151,40,81,296,297,79,21,270,241,72,10,117,255,34,176,193,181,76,23,148,258,60,283,204,94,175,299,196,5,220,54,252,234,36,265,38,280,67,243,174,145,195,226,69,225,112,240,26,48,59,274,155,191,62,129,92,198,278,51,128,202,82,120,52,277,206,180,210,201]","arrowright","","true","1","24","20","300","[""0031_N0300_K0020_NOCLIQUE"",""0080_N0300_K0020_CLIQUE""]"
"","","","","","audio-keyboard-response","163","373174","0.0-103.0-0.0-1.0","","null","audio_feedback/right/coin01.mp3","null","","","","","1","24","20","300","[""0031_N0300_K0020_NOCLIQUE"",""0080_N0300_K0020_CLIQUE""]"
