"value","trial_type","trial_index","time_elapsed","internal_node_id","width","height","webaudio","browser","browser_version","mobile","os","fullscreen","vsync_rate","webcam","microphone","success","timeout","failed_images","failed_audio","failed_video","view_history","rt","stimulus","response","nodes_order","correct_response","correct","block_index","presentation_index","clique_size","graph_size","graphs_names"
"","call-function","0","5","0.0-0.0","","","","","","","","","","","","","","","","","","","","","","","","","","","",""
"","browser-check","1","1015","0.0-1.0","1696","997","true","firefox","134.0.0","false","Linux","true","59.64","true","true","","","","","","","","","","","","","","","","",""
"","preload","2","1124","0.0-2.0","","","","","","","","","","","","true","false","[]","[]","[]","","","","","","","","","","","",""
"","pavlovia","3","1580","0.0-3.0","","","","","","","","","","","","","","","","","","","","","","","","","","","",""
"","instructions","4","93542","0.0-4.0","","","","","","","","","","","","","","","","","[{""page_index"":0,""viewing_time"":41033},{""page_index"":1,""viewing_time"":50925}]","91958","","","","","","","","","",""
"","html-keyboard-response","5","115268","0.0-5.0-0.0","","","","","","","","","","","","","","","","","","21725","By accepting to participate in this study, you confirm:
                <p style='text-align:left'>
                    - That I have carefully read the explanations regarding this study and the entire experimental procedure;<br>
                    - That I have been informed about the aims and objectives of this research;<br>
                    - That I am aware of the inconveniences, if any, caused by the experiment;<br>
                    - That I have received satisfactory assurances regarding the confidentiality of the information obtained from the examination of my own person; <br>
                    - That I am aware that I can withdraw at any stage of the study.
                <p>
                <span style=""color: #808080"">
                    Press [Y] to <strong>accept</strong>.
                </span> <br>
                <span style=""color: #808080"">
                    Press [N] to <strong>refuse</strong>.
                </span>","y","","","","","","","",""
"","survey-html-form","6","128619","0.0-6.0","","","","","","","","","","","","","","","","","","13348","","{""gender"":""female"",""age"":""29""}","","","","","","","",""
"","preload","7","130542","0.0-7.0","","","","","","","","","","","","true","false","[]","[]","[]","","","","","","","","","","","",""
"","instructions","8","660503","0.0-8.0","","","","","","","","","","","","","","","","","[{""page_index"":0,""viewing_time"":2913},{""page_index"":1,""viewing_time"":3301},{""page_index"":2,""viewing_time"":2134},{""page_index"":3,""viewing_time"":7114},{""page_index"":4,""viewing_time"":57516},{""page_index"":5,""viewing_time"":4122},{""page_index"":6,""viewing_time"":1512},{""page_index"":7,""viewing_time"":2199},{""page_index"":8,""viewing_time"":8055},{""page_index"":7,""viewing_time"":380},{""page_index"":8,""viewing_time"":413},{""page_index"":9,""viewing_time"":2050},{""page_index"":10,""viewing_time"":3630},{""page_index"":11,""viewing_time"":3247},{""page_index"":12,""viewing_time"":9811},{""page_index"":13,""viewing_time"":3258},{""page_index"":14,""viewing_time"":3778},{""page_index"":15,""viewing_time"":1698},{""page_index"":16,""viewing_time"":1807},{""page_index"":17,""viewing_time"":2225},{""page_index"":18,""viewing_time"":889},{""page_index"":19,""viewing_time"":2261},{""page_index"":20,""viewing_time"":1339},{""page_index"":21,""viewing_time"":2153},{""page_index"":20,""viewing_time"":185},{""page_index"":19,""viewing_time"":171},{""page_index"":18,""viewing_time"":690},{""page_index"":19,""viewing_time"":217},{""page_index"":20,""viewing_time"":173},{""page_index"":21,""viewing_time"":1068},{""page_index"":20,""viewing_time"":280},{""page_index"":19,""viewing_time"":1101},{""page_index"":18,""viewing_time"":618},{""page_index"":17,""viewing_time"":378},{""page_index"":16,""viewing_time"":387},{""page_index"":15,""viewing_time"":453},{""page_index"":14,""viewing_time"":386},{""page_index"":13,""viewing_time"":416},{""page_index"":12,""viewing_time"":515},{""page_index"":13,""viewing_time"":164},{""page_index"":14,""viewing_time"":160},{""page_index"":15,""viewing_time"":170},{""page_index"":16,""viewing_time"":134},{""page_index"":17,""viewing_time"":157},{""page_index"":18,""viewing_time"":184},{""page_index"":19,""viewing_time"":309},{""page_index"":20,""viewing_time"":3288},{""page_index"":21,""viewing_time"":949},{""page_index"":20,""viewing_time"":1366},{""page_index"":21,""viewing_time"":466},{""page_index"":20,""viewing_time"":2322},{""page_index"":21,""viewing_time"":1327},{""page_index"":20,""viewing_time"":2284},{""page_index"":19,""viewing_time"":189},{""page_index"":18,""viewing_time"":150},{""page_index"":17,""viewing_time"":138},{""page_index"":16,""viewing_time"":351},{""page_index"":15,""viewing_time"":373},{""page_index"":14,""viewing_time"":329},{""page_index"":13,""viewing_time"":327},{""page_index"":12,""viewing_time"":335},{""page_index"":11,""viewing_time"":348},{""page_index"":10,""viewing_time"":287},{""page_index"":9,""viewing_time"":411},{""page_index"":8,""viewing_time"":433},{""page_index"":7,""viewing_time"":608},{""page_index"":8,""viewing_time"":187},{""page_index"":9,""viewing_time"":162},{""page_index"":10,""viewing_time"":145},{""page_index"":11,""viewing_time"":148},{""page_index"":12,""viewing_time"":156},{""page_index"":13,""viewing_time"":185},{""page_index"":14,""viewing_time"":272},{""page_index"":15,""viewing_time"":205},{""page_index"":16,""viewing_time"":176},{""page_index"":17,""viewing_time"":184},{""page_index"":18,""viewing_time"":514},{""page_index"":19,""viewing_time"":221},{""page_index"":20,""viewing_time"":524},{""page_index"":21,""viewing_time"":422},{""page_index"":22,""viewing_time"":3029},{""page_index"":23,""viewing_time"":3767},{""page_index"":24,""viewing_time"":1089},{""page_index"":25,""viewing_time"":1435},{""page_index"":26,""viewing_time"":4219},{""page_index"":27,""viewing_time"":4536},{""page_index"":28,""viewing_time"":39376},{""page_index"":29,""viewing_time"":2207},{""page_index"":30,""viewing_time"":2579},{""page_index"":31,""viewing_time"":3276},{""page_index"":32,""viewing_time"":112538},{""page_index"":33,""viewing_time"":4804},{""page_index"":34,""viewing_time"":2917},{""page_index"":35,""viewing_time"":1780},{""page_index"":36,""viewing_time"":18749},{""page_index"":37,""viewing_time"":1855},{""page_index"":36,""viewing_time"":710},{""page_index"":37,""viewing_time"":23988},{""page_index"":38,""viewing_time"":51601},{""page_index"":39,""viewing_time"":4271},{""page_index"":40,""viewing_time"":1855},{""page_index"":39,""viewing_time"":843},{""page_index"":38,""viewing_time"":447},{""page_index"":37,""viewing_time"":701},{""page_index"":36,""viewing_time"":1616},{""page_index"":35,""viewing_time"":4958},{""page_index"":36,""viewing_time"":376},{""page_index"":37,""viewing_time"":217},{""page_index"":38,""viewing_time"":175},{""page_index"":39,""viewing_time"":434},{""page_index"":40,""viewing_time"":576},{""page_index"":41,""viewing_time"":1232},{""page_index"":42,""viewing_time"":2688},{""page_index"":43,""viewing_time"":6593},{""page_index"":44,""viewing_time"":4090},{""page_index"":45,""viewing_time"":8072},{""page_index"":46,""viewing_time"":11396},{""page_index"":47,""viewing_time"":1510},{""page_index"":46,""viewing_time"":1541},{""page_index"":47,""viewing_time"":3836},{""page_index"":48,""viewing_time"":2448},{""page_index"":49,""viewing_time"":898},{""page_index"":48,""viewing_time"":11369},{""page_index"":49,""viewing_time"":2962},{""page_index"":50,""viewing_time"":6119},{""page_index"":51,""viewing_time"":8378}]","529959","","","","","","","","","",""
"","instructions","9","671888","0.0-9.0","","","","","","","","","","","","","","","","","[{""page_index"":0,""viewing_time"":11386}]","11386","","","","","","","","","",""
"","preload","10","672264","0.0-10.0","","","","","","","","","","","","true","false","[]","[]","[]","","","","","","","","","","","",""
"","image-keyboard-response","11","684509","0.0-11.0","","","","","","","","","","","","","","","","","","12237","tutorial/p_reduce/task_familiarization_images/part 1/01_N160_K90_cliqueRight_question1.PNG"," ","","","","","","","",""
"","image-keyboard-response","12","687768","0.0-12.0","","","","","","","","","","","","","","","","","","3250","tutorial/p_reduce/task_familiarization_images/part 1/02_N160_K90_cliqueRight_question2.PNG"," ","","","","","","","",""
"","image-keyboard-response","13","696779","0.0-13.0","","","","","","","","","","","","","","","","","","9000","tutorial/p_reduce/task_familiarization_images/part 1/03_N160_K90_cliqueRight_question3.PNG","arrowright","","","","","","","",""
"","image-keyboard-response","14","699500","0.0-14.0","","","","","","","","","","","","","","","","","","2713","tutorial/p_reduce/task_familiarization_images/part 1/04_N160_K90_cliqueRight_solution.PNG"," ","","","","","","","",""
"","image-keyboard-response","15","701710","0.0-15.0","","","","","","","","","","","","","","","","","","2202","tutorial/p_reduce/task_familiarization_images/part 1/05_N160_K65_cliqueRight_question1.PNG"," ","","","","","","","",""
"","image-keyboard-response","16","702262","0.0-16.0","","","","","","","","","","","","","","","","","","544","tutorial/p_reduce/task_familiarization_images/part 1/06_N160_K65_cliqueRight_question2.PNG"," ","","","","","","","",""
"","image-keyboard-response","17","704146","0.0-17.0","","","","","","","","","","","","","","","","","","1874","tutorial/p_reduce/task_familiarization_images/part 1/07_N160_K65_cliqueRight_question3.PNG","arrowright","","","","","","","",""
"","image-keyboard-response","18","707362","0.0-18.0","","","","","","","","","","","","","","","","","","3206","tutorial/p_reduce/task_familiarization_images/part 1/08_N160_K65_cliqueRight_solution.PNG"," ","","","","","","","",""
"","image-keyboard-response","19","708019","0.0-19.0","","","","","","","","","","","","","","","","","","650","tutorial/p_reduce/task_familiarization_images/part 1/09_N160_K50_cliqueLeft_question1.PNG"," ","","","","","","","",""
"","image-keyboard-response","20","710268","0.0-20.0","","","","","","","","","","","","","","","","","","2239","tutorial/p_reduce/task_familiarization_images/part 1/10_N160_K50_cliqueLeft_question2.PNG"," ","","","","","","","",""
"","image-keyboard-response","21","713068","0.0-21.0","","","","","","","","","","","","","","","","","","2787","tutorial/p_reduce/task_familiarization_images/part 1/11_N160_K50_cliqueLeft_question3.PNG","arrowleft","","","","","","","",""
"","image-keyboard-response","22","716693","0.0-22.0","","","","","","","","","","","","","","","","","","3616","tutorial/p_reduce/task_familiarization_images/part 1/12_N160_K50_cliqueLeft_solution.PNG"," ","","","","","","","",""
"","image-keyboard-response","23","718720","0.0-23.0","","","","","","","","","","","","","","","","","","2019","tutorial/p_reduce/task_familiarization_images/part 1/13_N160_K80_cliqueLeft_question1.PNG"," ","","","","","","","",""
"","image-keyboard-response","24","719696","0.0-24.0","","","","","","","","","","","","","","","","","","967","tutorial/p_reduce/task_familiarization_images/part 1/14_N160_K80_cliqueLeft_question2.PNG"," ","","","","","","","",""
"","image-keyboard-response","25","720860","0.0-25.0","","","","","","","","","","","","","","","","","","1155","tutorial/p_reduce/task_familiarization_images/part 1/15_N160_K80_cliqueLeft_question3.PNG","arrowleft","","","","","","","",""
"","image-keyboard-response","26","721277","0.0-26.0","","","","","","","","","","","","","","","","","","408","tutorial/p_reduce/task_familiarization_images/part 1/16_N160_K80_cliqueLeft_solution.PNG"," ","","","","","","","",""
"","image-keyboard-response","27","722706","0.0-27.0","","","","","","","","","","","","","","","","","","1419","tutorial/p_reduce/task_familiarization_images/part 1/17_N160_K40_cliqueRight_question1.PNG"," ","","","","","","","",""
"","image-keyboard-response","28","724324","0.0-28.0","","","","","","","","","","","","","","","","","","1607","tutorial/p_reduce/task_familiarization_images/part 1/18_N160_K40_cliqueRight_question2.PNG"," ","","","","","","","",""
"","image-keyboard-response","29","727551","0.0-29.0","","","","","","","","","","","","","","","","","","3216","tutorial/p_reduce/task_familiarization_images/part 1/19_N160_K40_cliqueRight_question3.PNG","arrowright","","","","","","","",""
"","image-keyboard-response","30","729213","0.0-30.0","","","","","","","","","","","","","","","","","","1652","tutorial/p_reduce/task_familiarization_images/part 1/20_N160_K40_cliqueRight_solution.PNG"," ","","","","","","","",""
"","image-keyboard-response","31","730730","0.0-31.0","","","","","","","","","","","","","","","","","","1508","tutorial/p_reduce/task_familiarization_images/part 1/21_N160_K70_cliqueLeft_question1.PNG"," ","","","","","","","",""
"","image-keyboard-response","32","731840","0.0-32.0","","","","","","","","","","","","","","","","","","1098","tutorial/p_reduce/task_familiarization_images/part 1/22_N160_K70_cliqueLeft_question2.PNG"," ","","","","","","","",""
"","image-keyboard-response","33","732625","0.0-33.0","","","","","","","","","","","","","","","","","","776","tutorial/p_reduce/task_familiarization_images/part 1/23_N160_K70_cliqueLeft_question3.PNG","arrowleft","","","","","","","",""
"","image-keyboard-response","34","733024","0.0-34.0","","","","","","","","","","","","","","","","","","390","tutorial/p_reduce/task_familiarization_images/part 1/24_N160_K70_cliqueLeft_solution.PNG"," ","","","","","","","",""
"","preload","35","733268","0.0-35.0","","","","","","","","","","","","true","false","[]","[]","[]","","","","","","","","","","","",""
"","image-keyboard-response","36","750575","0.0-36.0","","","","","","","","","","","","","","","","","","17295","tutorial/p_reduce/task_familiarization_images/part 2/01_N160_K80_cliqueLeft_withFeedback_1.PNG"," ","","","","","","","",""
"","image-keyboard-response","37","754590","0.0-37.0","","","","","","","","","","","","","","","","","","4001","tutorial/p_reduce/task_familiarization_images/part 2/02_N160_K80_cliqueLeft_withFeedback_2.PNG"," ","","","","","","","",""
"","image-keyboard-response","38","755210","0.0-38.0","","","","","","","","","","","","","","","","","","608","tutorial/p_reduce/task_familiarization_images/part 2/03_N160_K80_cliqueLeft_withFeedback_3.PNG","arrowleft","","","","","","","",""
"","image-keyboard-response","39","757037","0.0-39.0","","","","","","","","","","","","","","","","","","1810","tutorial/p_reduce/task_familiarization_images/part 2/04_N160_K80_cliqueLeft_withFeedback_correct.PNG"," ","","","","","","","",""
"","image-keyboard-response","40","760869","0.0-40.0","","","","","","","","","","","","","","","","","","3821","tutorial/p_reduce/task_familiarization_images/part 2/05_N160_K55_cliqueRight_withFeedback_1.PNG"," ","","","","","","","",""
"","image-keyboard-response","41","761771","0.0-41.0","","","","","","","","","","","","","","","","","","884","tutorial/p_reduce/task_familiarization_images/part 2/06_N160_K55_cliqueRight_withFeedback_2.PNG"," ","","","","","","","",""
"","image-keyboard-response","42","762128","0.0-42.0","","","","","","","","","","","","","","","","","","345","tutorial/p_reduce/task_familiarization_images/part 2/07_N160_K55_cliqueRight_withFeedback_3.PNG","arrowright","","","","","","","",""
"","image-keyboard-response","43","762686","0.0-43.0","","","","","","","","","","","","","","","","","","543","tutorial/p_reduce/task_familiarization_images/part 2/08_N160_K55_cliqueRight_withFeedback_correct.PNG"," ","","","","","","","",""
"","image-keyboard-response","44","764176","0.0-44.0","","","","","","","","","","","","","","","","","","1476","tutorial/p_reduce/task_familiarization_images/part 2/09_N160_K70_cliqueLeft_withFeedback_1.PNG"," ","","","","","","","",""
"","image-keyboard-response","45","764811","0.0-45.0","","","","","","","","","","","","","","","","","","619","tutorial/p_reduce/task_familiarization_images/part 2/10_N160_K70_cliqueLeft_withFeedback_2.PNG"," ","","","","","","","",""
"","image-keyboard-response","46","765059","0.0-46.0","","","","","","","","","","","","","","","","","","237","tutorial/p_reduce/task_familiarization_images/part 2/11_N160_K70_cliqueLeft_withFeedback_3.PNG","arrowleft","","","","","","","",""
"","image-keyboard-response","47","765695","0.0-47.0","","","","","","","","","","","","","","","","","","620","tutorial/p_reduce/task_familiarization_images/part 2/12_N160_K70_cliqueLeft_withFeedback_correct.PNG"," ","","","","","","","",""
"","preload","48","765938","0.0-48.0","","","","","","","","","","","","true","false","[]","[]","[]","","","","","","","","","","","",""
"","instructions","49","830238","0.0-49.0","","","","","","","","","","","","","","","","","[{""page_index"":0,""viewing_time"":64300}]","64300","","","","","","","","","",""
"","fullscreen","50","834956","0.0-51.0","","","","","","","","","","","","true","","","","","","","","","","","","","","","",""
"","canvas-keyboard-response","51","838097","0.0-52.0-0.0-0.0","","","","","","","","","","","","","","","","","","3100","","arrowleft","[226,280,399,319,213,377,235,391,178,207,8,5,259,271,274,282,356,26,190,228,136,22,171,132,65,15,268,272,125,118,232,389,206,388,27,364,223,82,149,230,176,101,304,276,216,220,17,2,247,338,54,253,51,12,221,25,29,200,255,127,70,42,293,36,294,201,281,354,224,80,83,91,49,11,337,147,142,1,238,103,79,397,164,165,211,250,185,188,339,289,60,360,14,357,73,286,248,131,382,239,265,384,394,341,323,105,121,371,195,295,381,370,135,336,283,314,348,154,222,183,198,344,396,363,90,140,387,110,78,161,182,20,120,350,62,246,43,189,346,34,309,262,133,138,66,33,122,273,233,167,285,123,94,210,335,296,68,192,395,159,330,375,311,312,155,225,173,215,0,156,197,372,76,21,106,204,31,85,269,47,3,88,152,128,63,315,184,44,19,145,75,243,151,114,194,369,279,169,108,181,69,244,251,30,278,345,38,84,317,297,119,249,316,37,267,168,252,153,102,367,270,139,141,241,199,72,89,219,55,144,245,333,96,45,386,358,261,257,193,334,234,366,157,13,130,284,379,162,302,117,329,116,291,115,40,53,218,355,361,229,298,177,374,390,365,214,324,148,10,292,203,191,6,288,328,41,163,52,86,172,174,373,322,290,32,353,18,359,61,237,393,300,349,217,260,342,376,308,28,59,368,325,95,205,4,9,64,320,179,240,303,301,124,340,23,306,57,383,112,7,58,160,208,48,351,104,56,318,347,196,93,39,332,81,50,175,158,313,24,98,126,46,67,137,362,129,87,258,99,380,111,307,277,77,392,326,109,398,146,321,385,275,134,310,227,327,150,266,143,35,263,331,186,209,378,16,166,256,352,264,242,100,202,299,236,305,287,113,231,71,92,74,187,343,212,170,97,254,180,107]","arrowleft","true","0","0","120","400","[""0020_N0400_K0120_CLIQUE"",""0021_N0400_K0120_NOCLIQUE""]"
"","audio-keyboard-response","52","839531","0.0-52.0-0.0-1.0","","","","","","","","","","","","","","","","","","null","audio_feedback/right/coin01.mp3","null","","","","0","0","120","400","[""0020_N0400_K0120_CLIQUE"",""0021_N0400_K0120_NOCLIQUE""]"
"","canvas-keyboard-response","53","840669","0.0-53.0-0.0-0.0","","","","","","","","","","","","","","","","","","1108","","arrowleft","[90,248,92,70,204,113,185,343,14,260,63,61,360,4,176,50,299,24,292,127,96,181,19,321,238,35,52,353,318,27,30,370,37,309,217,104,125,338,358,346,147,44,5,23,244,229,146,232,108,194,373,220,298,228,154,233,387,87,184,73,197,264,337,273,216,302,277,329,183,290,202,69,156,150,206,15,60,179,141,109,255,226,301,283,390,320,170,160,114,349,344,200,307,332,303,241,111,95,165,89,305,334,234,97,272,42,38,93,120,266,3,345,325,251,291,102,62,118,342,352,313,148,51,221,198,1,100,174,252,208,68,398,18,223,368,385,269,275,262,155,308,178,86,36,82,380,261,117,388,115,253,295,136,214,354,33,284,333,101,157,192,278,293,375,0,357,367,8,362,297,240,173,371,274,379,236,347,254,203,319,151,126,230,130,67,98,201,17,355,361,121,76,339,66,397,53,341,153,78,271,59,26,289,166,57,377,188,77,340,74,331,376,45,218,20,85,392,167,383,25,351,270,317,137,46,378,196,211,330,364,65,94,382,29,259,268,212,143,58,372,276,247,149,243,256,12,399,110,112,324,396,152,314,171,327,389,393,374,182,161,159,124,164,158,356,348,394,257,326,235,128,131,99,22,107,11,250,7,88,381,195,336,83,49,32,144,365,231,245,242,135,369,123,304,282,21,186,6,129,328,300,287,288,105,279,103,139,363,41,79,47,177,366,162,132,306,9,16,145,163,172,48,134,122,190,81,138,210,286,322,391,384,189,239,265,75,71,106,296,191,169,55,224,116,64,56,285,28,133,34,80,40,225,140,207,215,395,311,54,350,219,91,267,31,323,43,315,386,213,316,84,246,72,205,249,312,119,180,280,237,10,310,335,168,39,258,281,175,359,294,193,2,209,13,227,142,187,222,199,263]","arrowleft","true","0","1","120","400","[""0100_N0400_K0120_CLIQUE"",""0079_N0400_K0120_NOCLIQUE""]"
"","audio-keyboard-response","54","841848","0.0-53.0-0.0-1.0","","","","","","","","","","","","","","","","","","null","audio_feedback/right/coin01.mp3","null","","","","0","1","120","400","[""0100_N0400_K0120_CLIQUE"",""0079_N0400_K0120_NOCLIQUE""]"
"","canvas-keyboard-response","55","844791","0.0-54.0-0.0-0.0","","","","","","","","","","","","","","","","","","2907","","arrowleft","[156,124,3,146,297,116,171,298,59,21,83,333,369,49,238,307,215,129,194,92,322,45,136,145,291,176,349,96,368,112,195,324,325,142,38,304,242,264,258,353,18,130,115,302,224,67,362,241,336,396,53,249,4,360,143,244,253,196,189,206,42,64,6,187,120,98,386,310,50,354,328,141,355,202,55,284,319,20,318,85,203,305,132,346,272,232,131,218,94,162,308,207,99,191,364,25,149,212,167,374,221,89,164,11,303,46,377,326,155,379,111,347,15,278,144,107,348,173,110,351,383,282,250,177,350,201,261,175,69,373,370,226,30,260,7,281,277,100,270,363,158,76,395,95,317,240,84,34,68,217,273,148,323,153,152,228,123,103,299,36,5,147,200,184,1,208,274,332,2,97,306,334,269,22,8,254,359,390,47,168,262,60,314,12,288,88,280,26,381,225,166,257,91,104,14,321,316,0,376,106,23,255,137,378,309,13,16,126,160,234,105,28,296,391,231,61,165,289,295,17,27,10,279,93,119,338,121,198,300,216,290,320,72,180,139,237,399,134,301,71,385,128,190,32,389,263,135,313,285,293,210,29,223,75,229,371,292,246,19,335,40,331,357,330,77,356,394,366,329,54,222,311,114,70,393,44,287,74,211,9,185,82,199,239,275,384,150,375,181,352,233,192,48,276,204,315,170,251,388,39,159,235,398,108,361,102,344,138,80,266,183,81,78,343,122,243,283,236,43,382,220,337,113,51,133,52,101,372,86,41,230,109,154,247,186,188,340,37,33,294,259,214,157,219,271,327,248,90,267,358,117,79,387,193,118,73,179,178,213,24,87,252,58,209,380,197,341,286,56,345,151,62,174,31,312,182,205,245,342,339,367,163,35,172,63,397,268,392,140,65,161,365,256,57,227,66,127,125,169,265]","arrowleft","true","0","2","107","400","[""0052_N0400_K0107_CLIQUE"",""0100_N0400_K0107_NOCLIQUE""]"
"","audio-keyboard-response","56","845972","0.0-54.0-0.0-1.0","","","","","","","","","","","","","","","","","","null","audio_feedback/right/coin01.mp3","null","","","","0","2","107","400","[""0052_N0400_K0107_CLIQUE"",""0100_N0400_K0107_NOCLIQUE""]"
"","canvas-keyboard-response","57","846942","0.0-55.0-0.0-0.0","","","","","","","","","","","","","","","","","","929","","arrowleft","[233,351,363,191,73,183,328,148,7,309,250,239,121,106,33,235,299,182,164,360,39,0,156,238,60,97,138,100,335,23,152,214,268,352,278,159,18,391,193,169,287,160,242,136,99,158,107,75,122,289,279,378,65,140,98,284,71,202,199,67,144,245,361,29,118,114,125,109,314,181,370,153,163,340,218,325,282,283,295,311,256,162,261,399,280,243,390,139,184,386,211,254,384,151,271,186,371,257,354,116,343,53,232,15,310,395,241,379,35,247,36,236,318,307,172,10,288,6,374,27,348,293,132,281,206,196,305,332,31,362,260,54,173,119,337,321,356,197,113,74,91,178,365,345,14,133,205,396,44,323,382,22,19,315,308,397,377,25,285,252,392,219,228,313,61,3,369,86,230,96,2,226,213,341,68,155,76,55,102,128,290,240,372,272,32,108,63,179,263,312,249,127,80,204,367,135,42,126,349,380,81,11,253,319,62,57,143,208,174,154,70,190,244,77,201,330,168,51,166,28,274,267,38,150,294,357,393,137,359,157,385,381,248,104,227,262,21,203,342,4,270,110,117,344,59,188,358,120,85,217,187,94,329,176,231,66,320,373,103,229,376,50,255,276,177,180,48,366,88,165,207,146,167,5,364,334,258,387,338,221,331,296,93,141,185,327,41,84,375,79,251,259,30,265,9,316,194,130,388,210,298,78,223,123,40,142,389,246,326,170,269,129,171,111,124,82,95,145,69,58,306,317,216,46,83,398,324,333,12,192,47,17,161,237,16,105,147,212,52,49,92,292,346,225,234,224,394,56,131,13,368,266,264,209,300,20,64,222,215,115,134,275,277,24,304,322,43,112,291,273,301,355,1,189,303,175,353,26,72,34,350,87,336,302,339,89,347,149,383,37,90,220,45,195,101,8,198,200,286,297]","arrowleft","true","0","3","107","400","[""0088_N0400_K0107_CLIQUE"",""0066_N0400_K0107_NOCLIQUE""]"
"","audio-keyboard-response","58","848126","0.0-55.0-0.0-1.0","","","","","","","","","","","","","","","","","","null","audio_feedback/right/coin01.mp3","null","","","","0","3","107","400","[""0088_N0400_K0107_CLIQUE"",""0066_N0400_K0107_NOCLIQUE""]"
"","canvas-keyboard-response","59","851081","0.0-56.0-0.0-0.0","","","","","","","","","","","","","","","","","","2925","","arrowleft","[262,176,233,125,191,311,169,87,143,189,94,303,302,323,231,202,126,223,264,20,98,341,197,184,15,110,79,155,369,381,39,250,296,22,1,194,35,313,268,171,364,154,310,129,321,240,118,272,363,83,90,265,26,312,93,156,193,21,307,58,24,373,153,219,213,359,396,317,203,6,387,67,187,380,368,146,398,384,316,31,314,334,345,45,309,299,290,385,325,397,88,220,28,139,172,356,101,109,8,43,122,82,216,74,259,199,34,72,86,62,324,249,106,152,7,2,102,214,33,208,227,134,70,215,168,37,115,163,283,340,320,64,212,247,44,294,271,46,301,366,258,289,386,179,224,336,218,367,370,362,278,173,195,47,274,10,263,390,128,30,40,54,36,144,300,346,78,148,221,178,286,328,200,5,374,96,91,151,280,244,84,11,111,248,161,355,211,318,190,394,132,239,361,354,121,350,103,76,25,147,376,347,170,281,297,0,27,256,59,337,322,201,245,14,348,123,105,266,308,306,165,331,206,291,182,392,238,160,391,167,205,18,277,237,32,235,315,41,150,180,120,269,137,377,185,292,288,60,383,116,351,228,276,52,326,38,319,282,378,29,81,352,69,210,135,68,246,107,305,251,174,48,188,298,192,56,234,145,339,162,142,136,196,330,399,382,222,217,104,133,285,166,335,241,77,99,371,304,295,12,66,327,61,236,113,89,275,16,344,95,130,360,329,141,267,389,164,100,3,19,353,183,181,119,17,253,229,92,243,177,260,393,138,273,73,375,388,333,242,252,13,65,158,140,127,209,379,365,112,349,270,186,42,49,332,80,338,159,175,85,23,207,279,230,226,71,225,372,53,358,63,9,4,51,257,117,357,284,395,114,97,232,124,342,55,254,108,131,50,287,204,75,261,157,255,57,149,293,198,343]","arrowleft","true","0","4","93","400","[""0066_N0400_K0093_CLIQUE"",""0013_N0400_K0093_NOCLIQUE""]"
"","audio-keyboard-response","60","852271","0.0-56.0-0.0-1.0","","","","","","","","","","","","","","","","","","null","audio_feedback/right/coin01.mp3","null","","","","0","4","93","400","[""0066_N0400_K0093_CLIQUE"",""0013_N0400_K0093_NOCLIQUE""]"
"","canvas-keyboard-response","61","854418","0.0-57.0-0.0-0.0","","","","","","","","","","","","","","","","","","2118","","arrowright","[305,169,183,297,128,286,70,166,244,73,106,78,200,278,299,6,44,8,368,63,235,201,273,77,152,17,310,265,322,18,338,234,88,226,380,22,3,34,346,156,168,42,101,274,138,11,92,329,382,302,28,173,172,395,45,26,5,2,354,160,339,243,355,238,205,112,326,64,343,82,227,125,133,375,218,127,256,208,242,31,251,279,80,341,119,175,53,132,356,315,363,229,136,209,194,46,110,396,217,324,71,147,95,184,164,211,206,87,264,360,54,188,298,40,233,378,171,353,105,336,187,167,23,320,116,126,230,144,90,358,192,161,385,290,312,318,131,178,330,289,153,287,38,107,393,288,304,89,151,67,118,141,332,197,212,365,379,55,337,159,222,47,96,43,19,293,232,361,99,180,246,367,58,84,291,224,145,100,369,162,314,32,349,364,94,14,366,174,215,319,35,196,357,86,108,260,13,1,384,317,335,7,51,252,309,79,41,371,347,12,150,24,381,373,213,225,93,65,36,311,394,323,149,262,253,344,109,155,62,33,69,352,135,269,134,258,261,316,237,25,76,267,388,0,362,59,140,29,48,111,21,255,30,195,129,121,91,276,249,104,139,266,16,81,374,257,245,377,250,263,392,179,214,348,387,27,137,240,340,390,123,389,157,275,223,165,399,334,203,50,97,391,282,158,10,198,207,333,182,9,220,236,57,239,113,170,37,342,303,102,284,216,376,103,247,72,370,68,120,228,146,15,210,321,386,313,189,186,325,98,181,248,292,204,83,241,85,190,359,39,148,75,163,397,300,294,372,4,351,296,259,283,176,280,383,115,281,268,114,61,199,60,124,301,66,398,328,56,177,306,202,231,49,271,350,307,193,74,327,221,117,219,142,122,345,185,295,52,285,20,331,277,191,130,254,308,154,270,143,272]","arrowright","true","0","5","93","400","[""0043_N0400_K0093_NOCLIQUE"",""0041_N0400_K0093_CLIQUE""]"
"","audio-keyboard-response","62","855603","0.0-57.0-0.0-1.0","","","","","","","","","","","","","","","","","","null","audio_feedback/right/coin01.mp3","null","","","","0","5","93","400","[""0043_N0400_K0093_NOCLIQUE"",""0041_N0400_K0093_CLIQUE""]"
"","canvas-keyboard-response","63","856768","0.0-58.0-0.0-0.0","","","","","","","","","","","","","","","","","","1124","","arrowleft","[260,34,286,36,346,181,182,153,298,292,192,391,209,254,394,216,89,353,319,61,349,364,200,303,114,223,44,152,134,385,251,227,293,37,174,235,53,392,31,93,345,325,145,154,204,194,121,180,386,165,0,225,368,363,97,176,352,381,54,278,189,338,241,105,365,160,102,233,156,87,359,328,112,81,331,269,253,195,162,41,55,390,161,280,272,57,143,347,199,239,39,76,52,213,16,104,336,122,20,12,335,7,120,282,118,28,358,398,50,1,311,197,101,136,256,164,372,123,169,355,144,171,395,75,320,135,40,264,232,4,287,198,119,267,316,348,11,166,21,63,49,88,29,266,125,307,268,342,47,362,259,387,207,376,279,117,42,25,317,178,24,147,109,201,384,221,45,247,322,183,285,82,146,203,95,184,343,187,397,222,17,277,375,96,79,9,30,205,140,157,290,218,340,389,334,301,296,289,177,294,172,388,74,80,243,208,23,240,163,151,115,314,91,167,344,72,58,393,168,302,318,327,396,2,324,275,6,370,107,258,191,43,373,148,90,113,245,32,5,210,361,206,230,337,77,288,142,211,65,236,69,33,106,35,380,333,321,354,62,139,379,15,13,229,111,306,297,219,215,85,126,315,14,249,127,312,202,18,83,138,26,186,94,193,242,48,92,257,274,248,284,366,56,188,185,360,19,323,246,300,305,382,224,158,326,299,129,383,276,46,133,313,378,51,60,124,66,3,170,369,265,228,252,71,270,98,351,244,234,150,103,399,108,27,231,374,175,149,10,64,330,8,237,357,116,173,141,86,220,304,190,196,155,295,255,78,250,262,212,128,22,217,308,367,100,377,350,99,263,130,356,261,329,132,214,67,59,131,179,271,283,68,84,38,281,110,159,291,332,226,70,310,371,339,273,137,73,309,341,238]","arrowleft","true","0","6","87","400","[""0010_N0400_K0087_CLIQUE"",""0014_N0400_K0087_NOCLIQUE""]"
"","audio-keyboard-response","64","857960","0.0-58.0-0.0-1.0","","","","","","","","","","","","","","","","","","null","audio_feedback/right/coin01.mp3","null","","","","0","6","87","400","[""0010_N0400_K0087_CLIQUE"",""0014_N0400_K0087_NOCLIQUE""]"
"","canvas-keyboard-response","65","859548","0.0-59.0-0.0-0.0","","","","","","","","","","","","","","","","","","1562","","arrowright","[127,248,285,398,396,199,15,27,314,371,53,99,41,113,243,93,301,32,14,167,88,82,145,267,72,357,103,274,229,44,140,162,40,17,26,387,95,190,264,187,381,227,312,270,56,203,353,35,134,49,344,365,319,242,48,263,176,299,320,5,294,54,183,206,34,262,92,389,57,309,118,172,148,256,233,355,31,236,68,157,238,303,258,202,363,241,223,277,139,123,98,252,144,251,222,273,373,197,67,42,64,36,234,349,356,275,111,334,78,114,394,255,46,345,161,322,77,74,339,126,337,146,189,302,116,169,160,217,175,295,249,289,318,244,266,156,181,182,310,102,159,3,386,239,81,215,291,107,350,331,45,135,290,16,89,375,179,231,214,367,297,86,8,7,213,65,152,50,372,212,109,185,180,259,158,29,138,369,117,282,105,84,265,260,235,219,281,207,364,307,142,224,351,195,6,151,73,193,271,316,366,329,12,55,188,155,150,10,286,85,37,4,210,340,246,388,1,254,347,304,119,209,131,129,288,112,335,380,90,69,96,313,94,125,359,232,18,342,216,315,186,348,296,124,370,147,311,201,128,58,308,280,237,43,121,200,196,391,110,194,220,108,395,377,317,71,83,397,328,361,30,323,341,191,154,284,383,192,23,268,218,378,330,137,184,47,338,346,9,327,60,226,272,39,24,0,104,132,354,385,91,393,324,247,141,19,174,250,66,122,228,22,21,28,376,163,149,321,165,368,20,25,52,306,343,230,384,153,100,101,13,278,211,399,106,130,390,379,51,63,245,225,360,133,164,392,253,198,61,305,336,38,170,205,221,257,292,120,352,204,333,76,59,283,261,75,208,374,33,97,287,168,80,332,358,173,115,325,298,62,269,178,326,143,177,171,2,300,362,276,240,79,87,11,136,279,166,70,293,382]","arrowright","true","0","7","87","400","[""0018_N0400_K0087_NOCLIQUE"",""0050_N0400_K0087_CLIQUE""]"
"","audio-keyboard-response","66","860743","0.0-59.0-0.0-1.0","","","","","","","","","","","","","","","","","","null","audio_feedback/right/coin01.mp3","null","","","","0","7","87","400","[""0018_N0400_K0087_NOCLIQUE"",""0050_N0400_K0087_CLIQUE""]"
"","canvas-keyboard-response","67","863638","0.0-60.0-0.0-0.0","","","","","","","","","","","","","","","","","","2861",""," ","[11,201,132,203,270,18,379,120,205,275,301,238,236,316,399,0,29,49,233,46,173,27,39,96,311,131,57,292,348,179,112,111,284,123,372,304,241,260,387,137,312,256,164,204,347,279,73,337,218,78,249,207,43,22,247,130,285,193,210,71,61,60,147,150,2,55,115,53,151,219,177,118,281,356,88,344,87,175,142,300,313,66,116,31,346,328,349,388,45,47,393,146,80,102,161,331,371,182,377,143,293,317,26,330,374,229,174,222,358,33,190,63,149,252,299,59,169,228,15,52,290,329,315,357,386,244,97,195,321,81,106,318,198,1,135,305,239,359,172,339,376,86,113,9,202,395,263,84,264,16,352,160,351,237,4,389,245,287,183,235,7,375,166,159,248,365,242,181,282,90,129,199,332,167,369,265,139,271,122,184,314,14,214,108,255,296,79,144,50,322,21,294,295,396,165,289,134,209,390,58,392,187,302,223,221,101,268,320,366,382,258,384,216,278,286,180,70,140,51,362,189,225,117,334,196,243,324,93,336,155,262,13,37,24,370,253,338,266,75,32,212,272,82,213,17,261,74,103,269,157,340,234,153,152,280,385,54,326,148,5,361,62,40,363,89,380,8,240,307,227,127,360,274,303,342,254,335,345,267,107,3,297,394,211,124,41,141,136,224,188,23,277,156,98,104,25,163,381,327,333,34,28,308,250,341,373,309,246,230,67,128,56,72,76,171,298,288,85,154,368,94,319,95,194,186,185,283,192,208,367,69,121,257,325,68,65,364,353,126,273,19,6,119,397,38,168,170,232,220,10,231,323,125,35,44,92,138,158,48,100,178,350,259,105,310,215,20,391,398,12,354,355,91,42,30,110,197,226,176,83,133,200,114,77,64,36,217,306,251,99,343,291,383,109,191,206,162,276,145,378]","arrowright","","0","8","80","400","[""0053_N0400_K0080_NOCLIQUE"",""0021_N0400_K0080_CLIQUE""]"
"","audio-keyboard-response","68","864927","0.0-60.0-0.0-1.0","","","","","","","","","","","","","","","","","","null","audio_feedback/shuffles/shuffle01.mp3","null","","","","0","8","80","400","[""0053_N0400_K0080_NOCLIQUE"",""0021_N0400_K0080_CLIQUE""]"
"","canvas-keyboard-response","69","867988","0.0-60.1-0.1-0.1","","","","","","","","","","","","","","","","","","3032","","arrowright","[161,134,65,380,386,10,136,199,371,157,390,378,125,234,209,305,361,358,382,350,109,14,260,160,325,197,377,117,254,7,5,376,230,175,15,266,327,274,50,84,264,389,51,388,107,368,52,192,351,86,148,321,322,212,308,196,214,6,41,18,102,11,189,49,292,302,152,247,320,21,383,347,191,309,153,314,288,42,198,235,183,297,208,174,101,55,232,330,219,374,164,119,362,262,40,122,139,216,269,250,239,345,99,335,291,151,342,270,135,23,379,213,166,294,359,329,0,279,200,114,248,346,272,35,276,45,33,97,348,354,304,363,360,70,62,165,202,307,57,133,369,27,111,56,349,72,375,257,271,283,25,28,172,287,108,163,112,46,319,179,384,281,210,146,265,66,26,22,284,324,259,373,13,204,100,223,170,9,78,306,332,357,395,103,154,128,341,245,74,303,4,186,317,43,253,32,338,385,372,60,316,290,185,58,147,344,195,220,251,162,182,156,63,38,91,280,326,277,29,96,180,285,300,397,61,123,67,206,301,278,226,127,129,275,81,69,343,169,243,118,293,73,392,340,140,88,120,37,255,238,286,381,85,12,141,126,138,237,258,333,267,90,68,89,370,289,310,217,353,205,121,221,39,228,87,256,229,143,328,298,77,224,105,144,184,167,130,93,44,137,399,92,104,171,364,218,355,391,173,337,80,3,268,24,16,106,334,299,203,83,367,296,54,53,207,98,225,352,131,246,149,8,396,158,116,188,273,1,263,168,242,177,249,110,187,241,115,36,145,181,252,323,150,366,132,176,30,393,394,194,398,336,75,20,236,159,82,318,71,282,124,113,331,64,356,94,31,190,312,59,233,339,311,2,17,193,244,313,365,211,201,34,79,315,231,155,387,261,240,227,19,222,48,142,76,295,95,215,178,47]","arrowright","true","0","8","80","400","[""0053_N0400_K0080_NOCLIQUE"",""0021_N0400_K0080_CLIQUE""]"
"","audio-keyboard-response","70","869174","0.0-60.1-0.1-1.1","","","","","","","","","","","","","","","","","","null","audio_feedback/right/coin01.mp3","null","","","","0","8","80","400","[""0053_N0400_K0080_NOCLIQUE"",""0021_N0400_K0080_CLIQUE""]"
"","canvas-keyboard-response","71","872357","0.0-61.0-0.0-0.0","","","","","","","","","","","","","","","","","","3155",""," ","[332,276,68,174,380,96,321,256,208,201,239,93,186,269,198,319,128,394,119,123,385,24,167,184,299,73,293,30,289,371,241,108,334,327,55,358,271,373,46,158,168,306,357,95,61,125,36,3,191,349,13,237,235,274,310,384,209,127,343,172,32,89,84,163,379,369,278,180,287,315,322,303,129,62,222,226,229,270,105,70,313,144,197,210,34,359,356,116,202,246,196,260,166,19,110,326,148,232,39,291,153,121,79,351,99,216,20,330,33,136,133,389,364,190,377,63,60,341,391,392,29,154,49,294,273,366,92,292,28,382,86,295,120,207,182,221,243,215,360,170,85,383,11,76,65,231,336,90,52,118,275,189,212,134,300,251,254,277,185,255,362,376,82,248,211,342,112,236,109,140,117,350,249,368,80,101,45,47,311,367,203,64,285,137,169,132,250,283,193,388,114,23,335,296,53,147,175,160,323,9,257,227,328,206,98,316,67,87,314,399,363,102,183,15,214,10,113,26,205,199,218,325,234,265,100,297,188,155,56,365,181,361,279,43,156,59,244,141,387,6,282,266,178,302,135,307,177,242,329,219,393,21,338,233,317,111,150,263,398,240,91,320,88,340,138,262,42,245,192,2,16,179,77,339,164,288,348,37,122,301,115,78,195,40,8,390,355,104,309,57,48,352,344,152,258,151,347,304,324,396,298,1,139,261,0,81,51,74,228,223,264,281,142,126,83,253,378,286,35,280,4,27,66,22,12,97,354,375,374,18,238,345,176,103,145,162,31,333,353,284,305,252,268,107,38,331,25,372,5,247,204,165,200,72,173,217,7,386,230,187,213,397,71,54,194,395,159,224,290,41,143,161,50,131,157,149,44,267,17,370,58,130,69,225,220,346,94,146,381,259,75,124,318,308,337,272,312,106,14,171]","arrowright","","0","9","80","400","[""0040_N0400_K0080_NOCLIQUE"",""0037_N0400_K0080_CLIQUE""]"
"","audio-keyboard-response","72","873643","0.0-61.0-0.0-1.0","","","","","","","","","","","","","","","","","","null","audio_feedback/shuffles/shuffle01.mp3","null","","","","0","9","80","400","[""0040_N0400_K0080_NOCLIQUE"",""0037_N0400_K0080_CLIQUE""]"
"","canvas-keyboard-response","73","875083","0.0-61.1-0.1-0.1","","","","","","","","","","","","","","","","","","1415","","arrowright","[323,307,291,390,38,96,360,376,175,382,102,75,113,232,306,234,46,143,297,21,371,223,377,139,1,329,220,99,137,241,68,147,378,325,212,158,182,170,265,282,263,287,63,207,164,192,43,23,198,70,230,52,368,40,191,222,389,125,184,114,5,185,161,215,156,71,72,322,93,87,116,79,351,278,155,251,298,48,353,132,279,110,181,50,240,47,197,369,202,160,333,229,365,97,94,78,16,173,92,244,334,82,272,32,362,214,103,280,105,186,239,172,332,341,211,396,342,13,86,205,183,219,101,293,7,187,174,77,159,363,349,228,193,397,292,190,259,256,394,324,384,104,299,81,35,311,10,245,41,194,260,274,271,355,393,213,268,109,168,108,266,354,357,235,283,189,188,126,326,257,163,255,356,98,53,27,15,24,206,296,58,51,312,25,387,335,151,200,66,123,3,300,364,275,316,165,57,26,29,141,310,8,84,250,65,140,64,301,344,277,54,0,119,262,338,246,36,49,331,236,284,339,88,152,39,308,319,22,383,270,90,100,83,385,302,157,118,261,149,180,59,286,372,6,374,395,117,169,80,209,276,204,350,9,129,154,107,267,315,34,366,375,346,281,248,136,358,20,130,134,74,317,328,166,12,146,399,348,233,224,289,231,273,305,217,221,398,2,254,28,30,131,208,148,288,386,89,19,294,345,121,178,67,55,128,313,138,253,201,320,285,216,237,76,33,176,304,290,252,361,318,195,4,150,42,14,359,321,269,115,373,62,122,367,11,120,392,243,391,106,210,145,242,60,177,196,388,309,352,330,380,162,264,225,69,44,144,171,203,37,85,124,303,314,31,327,381,370,73,379,227,226,167,127,295,61,247,337,142,249,95,56,347,336,153,340,18,91,135,179,199,218,45,238,133,17,258,343,111,112]","arrowright","true","0","9","80","400","[""0040_N0400_K0080_NOCLIQUE"",""0037_N0400_K0080_CLIQUE""]"
"","audio-keyboard-response","74","876266","0.0-61.1-0.1-1.1","","","","","","","","","","","","","","","","","","null","audio_feedback/right/coin01.mp3","null","","","","0","9","80","400","[""0040_N0400_K0080_NOCLIQUE"",""0037_N0400_K0080_CLIQUE""]"
"","canvas-keyboard-response","75","878286","0.0-62.0-0.0-0.0","","","","","","","","","","","","","","","","","","1982","","arrowleft","[238,121,106,392,329,206,294,398,44,185,208,312,355,336,54,152,126,180,110,128,48,280,350,389,290,298,308,399,90,97,203,114,372,69,367,181,384,283,378,258,254,166,33,324,263,222,138,264,178,315,76,28,269,363,155,253,211,252,322,241,29,169,289,13,233,34,346,305,99,5,47,124,94,78,158,227,390,335,327,313,272,362,73,386,255,141,331,107,172,273,143,344,270,276,318,27,354,231,142,234,319,328,267,396,376,186,194,226,9,310,347,70,98,19,109,64,31,62,353,173,79,225,349,394,30,286,156,157,167,83,333,271,61,170,243,160,214,397,112,187,278,101,103,53,188,207,368,116,314,190,52,341,237,321,162,326,81,235,385,242,393,102,130,358,179,334,145,200,224,119,297,281,136,217,183,151,345,340,382,295,249,307,197,323,395,219,16,92,164,154,284,301,210,299,245,71,381,146,375,330,246,4,75,26,293,325,195,86,171,361,216,199,17,209,23,15,369,14,96,266,365,359,161,230,296,213,0,51,21,7,366,311,88,240,228,18,215,364,282,45,352,137,168,244,37,212,132,100,303,256,302,192,93,32,131,120,229,133,66,383,223,236,115,24,10,38,95,300,218,25,122,221,59,306,356,89,140,220,279,177,165,56,150,342,348,80,72,198,360,123,285,113,250,304,316,343,205,129,274,204,371,292,55,63,191,388,309,193,67,1,174,8,380,275,11,291,144,65,84,68,159,261,22,163,20,182,239,58,87,257,50,139,248,111,117,277,332,82,147,391,118,12,357,148,259,149,57,337,105,36,379,42,196,201,377,85,189,60,104,262,49,125,108,338,184,43,288,265,35,6,320,247,232,370,287,251,134,374,77,74,317,373,202,2,41,268,91,260,175,153,387,339,3,135,39,127,351,40,46,176]","arrowleft","true","0","10","73","400","[""0085_N0400_K0073_CLIQUE"",""0015_N0400_K0073_NOCLIQUE""]"
"","audio-keyboard-response","76","879477","0.0-62.0-0.0-1.0","","","","","","","","","","","","","","","","","","null","audio_feedback/right/coin01.mp3","null","","","","0","10","73","400","[""0085_N0400_K0073_CLIQUE"",""0015_N0400_K0073_NOCLIQUE""]"
"","canvas-keyboard-response","77","881145","0.0-63.0-0.0-0.0","","","","","","","","","","","","","","","","","","1621","","arrowleft","[263,266,104,237,80,399,365,339,255,105,327,349,156,20,98,315,42,361,377,70,337,92,392,101,265,22,138,252,85,24,31,94,309,241,304,240,176,373,243,49,366,290,65,326,332,356,386,194,308,363,382,239,343,307,135,172,181,329,46,251,119,106,387,285,219,184,38,88,258,81,97,275,207,360,148,213,107,212,118,302,203,33,84,206,83,390,43,129,225,314,301,121,180,111,228,238,93,123,159,355,328,124,375,178,342,364,378,272,122,72,15,62,214,318,226,310,45,350,71,381,77,12,277,264,30,149,235,151,127,170,357,171,78,66,376,95,195,341,108,227,89,53,193,90,354,260,383,16,141,64,17,299,185,28,333,380,166,39,130,131,143,27,271,41,305,370,96,152,54,109,229,144,374,283,259,358,191,296,40,63,268,249,196,79,110,205,393,261,322,202,394,117,145,331,293,323,281,158,157,276,233,208,222,224,223,396,369,163,126,103,137,29,248,48,133,347,120,300,188,6,19,298,102,200,250,132,114,140,338,169,395,57,58,82,274,282,280,320,47,198,234,245,319,139,189,147,2,244,116,192,344,75,56,389,134,385,359,175,34,7,220,284,26,44,99,177,289,269,317,173,128,115,14,279,32,257,291,295,340,232,312,91,346,316,61,345,187,182,25,59,221,371,210,278,209,125,230,199,204,13,100,270,303,179,0,18,211,324,292,112,397,165,297,67,68,154,353,86,217,113,368,262,186,174,287,362,36,334,286,247,21,256,4,150,384,215,10,313,155,246,218,183,335,161,136,336,379,9,388,167,190,5,398,253,273,11,391,236,352,351,231,367,35,50,1,288,267,52,311,60,153,306,197,201,164,146,254,216,372,168,325,294,51,87,330,160,3,69,162,76,74,321,242,37,73,348,55,8,142,23]","arrowleft","true","0","11","73","400","[""0044_N0400_K0073_CLIQUE"",""0086_N0400_K0073_NOCLIQUE""]"
"","audio-keyboard-response","78","882321","0.0-63.0-0.0-1.0","","","","","","","","","","","","","","","","","","null","audio_feedback/right/coin01.mp3","null","","","","0","11","73","400","[""0044_N0400_K0073_CLIQUE"",""0086_N0400_K0073_NOCLIQUE""]"
"","canvas-keyboard-response","79","884985","0.0-64.0-0.0-0.0","","","","","","","","","","","","","","","","","","2638","","arrowleft","[200,135,355,13,61,228,350,216,318,246,165,0,372,319,116,391,217,62,302,184,339,93,202,377,236,143,299,288,107,205,313,88,89,174,210,346,390,145,220,20,171,65,134,36,282,382,335,119,94,175,303,14,273,162,367,156,294,331,301,316,308,126,16,280,40,39,326,179,60,51,185,52,17,58,272,83,343,86,297,3,122,250,341,7,137,75,127,98,320,22,194,269,34,68,238,159,50,392,290,360,349,189,296,114,369,314,124,229,193,348,329,131,28,309,380,90,223,128,362,173,144,234,25,242,279,396,327,224,275,136,187,67,10,389,384,340,208,241,9,132,181,291,149,393,378,357,110,23,232,278,385,108,64,298,334,101,96,112,310,85,130,118,292,261,59,191,315,266,147,231,289,178,24,317,48,74,325,338,198,151,323,1,42,169,115,5,166,207,399,358,71,154,77,37,15,103,45,47,150,81,49,251,351,109,2,277,177,398,222,218,260,368,312,152,240,125,371,248,255,186,197,206,366,18,55,97,73,146,293,307,196,157,41,66,281,239,386,113,353,300,188,106,153,44,117,35,167,227,230,364,305,190,46,347,394,102,324,233,104,212,141,375,337,4,322,63,395,163,225,111,19,140,249,148,180,321,287,53,70,235,8,21,253,199,264,283,284,244,259,170,26,142,295,121,30,6,139,268,274,43,91,168,376,270,361,160,214,82,84,76,129,342,265,176,243,100,195,344,252,247,92,333,33,262,32,87,203,211,258,359,365,352,345,172,72,99,78,332,363,213,123,330,254,215,105,373,374,245,11,158,257,356,201,69,183,311,12,328,276,38,56,57,263,304,381,267,54,133,161,397,204,219,209,388,306,221,164,271,226,79,27,182,237,336,192,95,256,286,29,155,383,80,285,387,370,354,138,379,31,120]","arrowleft","true","0","12","67","400","[""0007_N0400_K0067_CLIQUE"",""0033_N0400_K0067_NOCLIQUE""]"
"","audio-keyboard-response","80","886181","0.0-64.0-0.0-1.0","","","","","","","","","","","","","","","","","","null","audio_feedback/right/coin01.mp3","null","","","","0","12","67","400","[""0007_N0400_K0067_CLIQUE"",""0033_N0400_K0067_NOCLIQUE""]"
"","canvas-keyboard-response","81","887395","0.0-65.0-0.0-0.0","","","","","","","","","","","","","","","","","","1187","","arrowleft","[266,367,238,355,224,337,42,134,59,123,275,336,346,27,28,150,147,86,163,318,187,34,315,93,384,46,345,182,342,290,366,381,69,190,173,103,162,278,10,308,333,36,164,352,149,202,3,87,301,327,192,354,397,120,131,250,132,359,377,296,65,195,170,382,194,217,122,39,248,158,234,100,268,191,208,222,11,38,102,66,225,235,201,262,312,20,273,276,227,121,145,283,108,265,113,199,295,43,204,270,221,137,79,368,57,75,98,259,169,326,360,396,294,374,117,378,83,297,261,67,63,8,302,203,239,176,393,77,244,80,258,264,389,51,99,146,186,180,271,272,240,31,348,133,89,45,184,110,343,383,230,380,313,81,22,73,269,148,277,155,82,53,54,349,300,0,24,249,399,212,241,331,281,200,329,287,130,220,30,376,197,62,370,218,246,64,280,398,26,390,364,88,6,32,2,267,365,322,305,311,206,95,139,19,129,196,175,358,394,369,25,260,141,211,68,321,316,298,97,292,153,254,229,128,310,4,94,395,159,330,138,372,325,74,72,347,198,289,357,299,92,114,16,306,168,385,105,293,84,118,282,189,70,324,90,112,156,213,40,257,245,237,232,171,373,341,144,101,111,166,5,242,50,91,338,256,185,127,115,23,14,135,274,165,228,279,48,126,309,291,143,216,263,172,371,386,340,9,85,151,223,247,379,288,252,41,106,320,219,136,55,215,205,17,334,317,209,177,60,286,255,214,157,387,104,7,344,109,12,124,210,29,351,319,49,15,332,140,391,1,188,154,363,328,285,125,13,350,107,35,193,119,303,335,179,152,207,392,388,167,76,233,96,314,160,226,253,183,339,52,375,21,71,47,307,18,58,61,37,356,174,116,142,78,44,161,284,361,323,353,304,178,236,251,362,181,231,243,56,33]","arrowleft","true","0","13","67","400","[""0089_N0400_K0067_CLIQUE"",""0068_N0400_K0067_NOCLIQUE""]"
"","audio-keyboard-response","82","888579","0.0-65.0-0.0-1.0","","","","","","","","","","","","","","","","","","null","audio_feedback/right/coin01.mp3","null","","","","0","13","67","400","[""0089_N0400_K0067_CLIQUE"",""0068_N0400_K0067_NOCLIQUE""]"
"","canvas-keyboard-response","83","896086","0.0-66.0-0.0-0.0","","","","","","","","","","","","","","","","","","7481",""," ","[29,276,51,180,272,42,379,342,245,83,93,1,286,318,185,163,139,142,335,121,90,95,26,234,255,39,168,45,243,118,14,375,52,176,103,6,199,62,207,250,371,171,266,170,60,87,27,315,0,15,324,265,112,260,320,111,357,242,150,102,166,32,66,173,218,202,71,214,399,145,268,10,341,317,86,302,135,175,238,326,98,227,370,84,316,230,362,360,330,389,94,381,153,321,151,233,208,281,194,246,134,187,110,216,33,352,383,18,350,91,314,200,205,59,21,178,154,8,22,262,147,16,12,209,229,141,105,53,82,344,346,56,228,158,290,49,79,215,374,63,11,219,46,132,162,273,296,294,232,101,36,366,152,319,191,297,345,393,397,210,120,222,359,149,183,332,28,182,55,24,13,248,126,133,354,267,138,274,100,263,129,358,165,385,89,156,144,74,277,125,224,75,253,30,353,92,172,292,369,247,72,217,347,195,380,7,291,169,287,313,203,47,258,109,339,50,323,137,184,116,186,68,58,188,311,54,37,338,77,146,44,391,99,295,181,2,190,17,386,378,235,348,148,43,65,333,97,372,226,271,251,25,34,282,155,159,128,167,119,201,254,35,356,220,160,388,4,70,312,193,221,67,289,127,69,308,244,394,384,20,115,81,363,364,31,367,140,5,361,204,3,19,212,61,223,387,349,179,124,305,331,252,382,192,392,225,161,73,117,174,130,298,390,279,275,376,9,239,78,76,365,280,48,197,211,80,343,198,328,325,240,283,309,284,57,231,398,257,269,327,136,249,236,108,114,304,301,278,336,88,264,164,106,23,322,107,259,40,123,237,143,157,196,355,64,396,337,131,104,334,122,96,306,85,351,213,285,307,329,189,293,340,310,395,206,303,113,41,288,299,256,241,38,270,177,377,261,300,368,373]","arrowleft","","0","14","60","400","[""0053_N0400_K0060_CLIQUE"",""0003_N0400_K0060_NOCLIQUE""]"
"","audio-keyboard-response","84","897604","0.0-66.0-0.0-1.0","","","","","","","","","","","","","","","","","","null","audio_feedback/shuffles/shuffle01.mp3","null","","","","0","14","60","400","[""0053_N0400_K0060_CLIQUE"",""0003_N0400_K0060_NOCLIQUE""]"
"","canvas-keyboard-response","85","899231","0.0-66.1-0.1-0.1","","","","","","","","","","","","","","","","","","1600","","arrowleft","[361,271,229,31,9,59,219,393,175,107,375,324,231,180,44,62,204,270,131,337,147,6,242,388,84,385,329,398,99,374,91,87,304,363,340,74,381,32,51,276,185,332,157,195,97,35,238,89,313,316,314,335,240,172,235,140,126,368,347,3,199,389,262,320,342,54,351,67,395,79,75,317,371,164,177,13,137,2,129,384,221,344,30,355,260,105,365,127,173,224,24,346,20,156,197,289,336,47,196,379,100,300,187,165,111,362,113,341,61,244,334,226,1,251,357,386,194,72,350,28,82,12,56,98,358,142,307,338,315,282,138,349,110,169,214,297,246,249,151,369,275,71,153,68,330,279,41,134,218,146,258,43,178,190,88,378,247,253,183,25,34,364,202,4,125,38,319,176,390,233,26,19,69,382,203,292,265,95,322,299,281,184,85,261,45,372,123,267,397,286,245,391,209,298,343,312,124,139,367,278,93,259,272,76,348,133,112,181,303,148,360,339,52,383,264,49,7,145,217,290,60,189,11,188,223,63,65,155,77,399,150,248,211,81,269,333,306,311,143,15,215,293,325,291,46,213,191,228,64,179,295,284,309,239,331,27,359,57,305,273,256,200,158,277,205,109,50,208,8,106,392,70,370,102,39,192,29,254,222,352,201,225,161,18,159,310,302,144,327,128,193,42,296,114,101,96,257,115,328,288,58,10,380,356,83,103,78,243,122,21,118,152,287,80,182,220,104,268,308,394,237,236,33,227,353,283,301,376,234,321,135,163,90,120,250,198,22,92,168,55,174,206,396,326,160,0,255,252,40,108,318,230,116,73,119,345,166,387,48,210,37,207,274,232,154,36,162,170,354,171,212,5,117,294,53,132,323,94,66,280,366,14,149,263,86,186,241,216,16,23,266,285,130,373,167,136,121,377,17,141]","arrowleft","true","0","14","60","400","[""0053_N0400_K0060_CLIQUE"",""0003_N0400_K0060_NOCLIQUE""]"
"","audio-keyboard-response","86","900412","0.0-66.1-0.1-1.1","","","","","","","","","","","","","","","","","","null","audio_feedback/right/coin01.mp3","null","","","","0","14","60","400","[""0053_N0400_K0060_CLIQUE"",""0003_N0400_K0060_NOCLIQUE""]"
"","canvas-keyboard-response","87","902465","0.0-67.0-0.0-0.0","","","","","","","","","","","","","","","","","","2026","","arrowleft","[350,339,118,100,332,0,395,109,125,143,378,208,54,310,386,381,45,206,60,213,141,62,258,40,223,19,361,239,176,160,356,394,368,14,11,307,385,192,114,91,145,391,283,336,255,358,90,189,309,182,388,164,104,252,244,204,313,134,74,357,354,92,76,225,188,325,47,148,228,355,304,236,296,93,335,311,257,207,186,224,348,65,70,169,344,26,360,261,287,247,346,63,341,286,7,349,194,121,135,36,198,334,105,120,333,365,260,150,197,392,181,71,248,193,173,284,369,131,230,107,323,399,242,96,227,142,306,291,80,238,219,251,268,57,298,280,220,200,279,155,75,396,67,240,27,322,263,293,49,398,72,245,50,318,59,116,132,276,84,329,303,191,364,174,210,359,373,128,340,51,127,6,22,343,269,166,81,149,103,35,10,393,289,376,94,312,221,342,226,9,290,37,237,12,129,20,379,165,328,235,33,3,382,282,31,233,229,2,362,153,218,85,250,266,95,140,389,16,199,66,316,299,58,178,48,151,162,1,380,110,159,201,115,273,98,111,267,331,77,195,44,175,185,277,327,317,61,30,272,285,190,295,172,126,338,177,180,32,377,46,17,43,64,387,302,264,274,397,211,281,315,275,15,363,119,24,108,383,292,101,87,5,56,28,326,171,53,124,55,88,122,288,39,154,321,372,112,187,330,69,374,23,168,337,294,300,137,314,82,297,144,21,319,102,86,278,13,25,214,324,41,167,353,157,18,117,113,301,320,262,305,217,241,78,158,38,79,183,152,212,203,347,68,253,73,97,345,209,89,184,170,99,138,29,270,136,351,271,8,42,308,123,163,156,146,130,216,52,139,4,384,256,375,215,234,366,232,249,231,83,371,222,196,34,179,367,161,254,265,205,147,352,106,259,243,246,370,133,390,202]","arrowleft","true","0","15","60","400","[""0054_N0400_K0060_CLIQUE"",""0002_N0400_K0060_NOCLIQUE""]"
"","audio-keyboard-response","88","903662","0.0-67.0-0.0-1.0","","","","","","","","","","","","","","","","","","null","audio_feedback/right/coin01.mp3","null","","","","0","15","60","400","[""0054_N0400_K0060_CLIQUE"",""0002_N0400_K0060_NOCLIQUE""]"
"","canvas-keyboard-response","89","907296","0.0-68.0-0.0-0.0","","","","","","","","","","","","","","","","","","3601",""," ","[388,34,333,274,144,270,107,55,356,361,252,396,11,176,10,259,157,251,26,267,150,301,200,382,224,368,357,141,22,97,395,321,168,205,373,45,193,345,128,398,199,14,116,152,35,389,331,326,298,317,17,341,390,295,105,126,111,122,156,254,249,134,68,89,60,164,178,112,90,27,340,366,123,350,12,94,110,57,221,32,397,232,233,241,38,143,42,139,182,47,135,296,399,210,99,214,242,75,46,53,347,323,129,131,391,320,248,243,4,104,62,351,29,142,63,70,376,124,83,257,50,218,264,268,367,204,87,203,76,33,66,72,208,318,121,23,212,125,161,21,372,1,377,275,332,319,285,79,108,167,136,175,163,281,256,230,9,160,165,223,148,61,187,41,310,374,344,13,86,316,88,18,287,328,8,306,24,245,59,307,6,3,69,329,159,64,222,343,325,51,96,358,352,74,171,211,258,28,244,354,132,202,384,177,7,170,311,48,228,380,95,133,370,308,336,31,145,179,100,39,247,383,115,65,305,239,138,378,119,288,213,299,73,292,365,109,302,191,71,348,250,2,153,369,181,339,189,362,43,269,188,166,226,201,184,137,284,342,173,394,363,392,19,102,265,393,286,25,120,330,266,80,225,253,278,98,289,92,387,379,360,327,30,260,117,215,386,235,314,127,322,154,93,290,91,272,338,371,0,130,263,309,140,78,58,303,85,349,196,197,118,194,364,106,56,246,52,240,261,183,146,174,217,84,151,277,231,283,36,198,149,294,169,195,346,276,113,186,77,385,313,44,291,49,40,262,335,155,312,227,315,381,304,172,237,353,207,355,5,337,271,300,229,54,255,359,273,190,67,37,209,280,375,15,103,20,185,81,334,82,162,282,114,219,158,238,324,297,216,220,279,293,101,147,16,180,206,234,192,236]","arrowleft","","0","16","53","400","[""0093_N0400_K0053_CLIQUE"",""0039_N0400_K0053_NOCLIQUE""]"
"","audio-keyboard-response","90","908577","0.0-68.0-0.0-1.0","","","","","","","","","","","","","","","","","","null","audio_feedback/shuffles/shuffle01.mp3","null","","","","0","16","53","400","[""0093_N0400_K0053_CLIQUE"",""0039_N0400_K0053_NOCLIQUE""]"
"","canvas-keyboard-response","91","912737","0.0-68.1-0.1-0.1","","","","","","","","","","","","","","","","","","4117","","arrowleft","[330,171,335,258,389,21,290,212,134,38,108,266,31,269,51,54,208,159,106,24,267,28,345,390,2,313,146,95,20,41,125,42,97,351,385,240,33,377,270,242,124,317,311,57,73,283,6,157,360,254,229,148,358,172,343,66,328,277,123,43,48,181,278,394,332,174,203,117,243,303,39,25,284,164,369,215,386,356,344,145,79,310,63,399,271,241,96,175,253,61,158,102,244,160,291,47,299,273,301,114,195,300,167,3,363,32,383,361,218,370,180,143,179,381,101,77,357,118,340,197,132,349,88,259,177,18,86,312,52,170,342,92,74,141,107,135,274,371,152,128,221,173,178,257,19,209,392,188,59,49,182,346,289,36,140,149,154,7,121,262,210,260,60,139,396,362,322,251,306,287,91,70,161,12,105,376,186,184,207,8,224,187,142,255,122,44,367,126,156,23,227,75,90,339,0,200,165,155,309,193,250,216,265,282,198,326,276,354,27,223,89,213,338,316,26,324,68,62,233,348,120,321,293,331,55,320,384,98,214,9,190,82,14,144,366,391,237,232,387,199,314,261,100,280,80,109,307,83,398,219,285,81,352,393,69,245,347,131,217,292,231,359,10,5,189,112,226,45,29,325,15,298,163,22,185,318,166,150,40,379,72,176,305,220,375,84,103,350,295,296,234,202,35,395,204,65,286,304,397,264,364,99,183,71,382,153,230,211,249,288,11,110,302,34,372,119,206,378,13,222,329,50,205,297,133,85,373,315,201,67,246,169,279,268,147,104,323,116,113,380,151,294,319,37,111,236,374,281,46,238,162,368,355,93,194,58,4,30,115,192,341,87,53,388,256,1,272,334,127,191,327,228,130,76,353,365,239,235,333,16,137,64,248,78,275,129,252,337,136,94,247,17,138,56,225,263,308,336,168,196]","arrowleft","true","0","16","53","400","[""0093_N0400_K0053_CLIQUE"",""0039_N0400_K0053_NOCLIQUE""]"
"","audio-keyboard-response","92","913922","0.0-68.1-0.1-1.1","","","","","","","","","","","","","","","","","","null","audio_feedback/right/coin01.mp3","null","","","","0","16","53","400","[""0093_N0400_K0053_CLIQUE"",""0039_N0400_K0053_NOCLIQUE""]"
"","canvas-keyboard-response","93","920589","0.0-69.0-0.0-0.0","","","","","","","","","","","","","","","","","","6637","","arrowleft","[294,366,1,319,247,129,235,51,79,72,386,97,140,165,124,292,170,132,350,146,76,81,374,181,320,30,193,173,337,56,106,150,376,89,123,372,388,160,70,338,234,238,203,25,213,117,19,347,54,333,55,172,41,327,100,194,263,71,143,148,356,16,258,199,321,111,360,94,267,67,229,279,141,33,22,47,236,152,268,69,277,155,209,226,352,182,233,80,364,343,8,329,278,144,122,195,345,108,282,20,179,286,393,253,224,287,275,15,274,14,334,322,40,142,157,252,112,127,392,125,381,384,336,260,395,156,270,218,283,307,200,387,397,331,26,61,297,315,291,135,13,167,166,45,330,49,154,231,358,7,399,390,177,35,221,84,223,361,371,198,208,317,210,183,115,78,96,257,174,28,9,251,149,216,64,389,313,305,248,351,169,362,365,245,105,346,312,269,130,396,280,325,73,261,103,68,243,301,164,207,50,185,162,113,161,288,341,300,42,249,104,255,27,189,382,383,271,353,138,380,332,39,93,206,228,202,359,82,53,59,119,77,139,3,88,85,190,145,328,306,32,342,5,230,188,272,369,136,0,90,239,120,83,46,250,205,48,37,99,398,385,184,244,6,308,176,43,295,304,370,290,357,158,242,232,131,171,220,17,57,302,217,326,246,316,204,264,24,187,10,12,4,259,38,349,293,391,256,128,186,354,298,147,66,303,377,309,98,159,254,118,58,116,214,92,227,34,222,151,314,153,52,240,318,373,44,18,109,289,107,87,75,375,95,262,137,281,86,133,323,265,74,31,101,121,60,284,379,394,225,215,63,23,211,168,191,285,367,196,219,11,21,114,299,355,324,65,348,36,339,62,212,91,126,178,110,163,197,335,378,192,368,2,134,310,102,266,363,201,296,180,344,273,241,340,29,311,276,175,237]","arrowright","false","0","17","53","400","[""0033_N0400_K0053_NOCLIQUE"",""0085_N0400_K0053_CLIQUE""]"
"","audio-keyboard-response","94","922042","0.0-69.0-0.0-1.0","","","","","","","","","","","","","","","","","","null","audio_feedback/wrong/error01.mp3","null","","","","0","17","53","400","[""0033_N0400_K0053_NOCLIQUE"",""0085_N0400_K0053_CLIQUE""]"
"","canvas-keyboard-response","95","925093","0.0-70.0-0.0-0.0","","","","","","","","","","","","","","","","","","3010",""," ","[282,45,210,299,100,197,328,263,46,319,101,233,177,79,391,274,145,109,51,208,92,2,111,383,11,156,81,40,31,33,37,163,284,166,141,368,181,72,28,196,351,103,127,107,243,381,36,311,10,105,5,220,285,14,4,253,225,17,114,337,143,395,9,314,80,7,62,353,162,133,249,240,38,390,212,327,392,49,227,191,217,135,202,388,269,85,214,104,242,287,87,236,0,149,73,207,361,289,372,75,99,378,332,360,175,310,170,272,340,139,76,184,48,98,382,112,16,116,295,41,157,53,257,47,290,393,20,32,342,195,188,335,252,238,237,293,276,164,152,23,298,363,187,94,174,206,369,345,19,245,124,367,317,88,286,115,313,70,375,385,384,281,341,364,246,198,65,302,189,58,167,54,151,330,338,215,356,153,26,346,267,275,268,347,155,255,241,66,91,84,296,8,142,168,185,377,331,61,321,200,209,130,146,256,278,89,147,312,67,292,309,21,43,121,57,271,171,300,234,291,199,370,239,218,387,260,399,376,304,380,306,386,64,248,158,83,352,96,371,50,374,44,102,106,235,350,194,6,125,55,144,333,247,262,222,165,270,224,90,178,126,303,150,230,134,231,204,182,294,265,193,140,307,18,129,261,223,120,216,118,211,186,228,60,95,56,244,357,39,315,161,74,25,389,30,273,297,366,397,325,205,354,344,348,34,52,190,280,180,264,123,320,68,226,251,339,279,24,334,203,266,42,131,13,323,288,12,119,373,29,108,137,172,97,136,86,122,1,82,308,326,71,138,336,283,213,362,3,69,316,179,396,322,343,301,192,355,329,394,232,258,305,365,379,201,148,27,154,250,22,159,110,359,358,173,35,219,128,254,229,59,113,183,324,63,132,77,169,221,78,160,117,259,318,176,15,93,398,349,277]","arrowright","","0","18","47","400","[""0046_N0400_K0047_NOCLIQUE"",""0073_N0400_K0047_CLIQUE""]"
"","audio-keyboard-response","96","926387","0.0-70.0-0.0-1.0","","","","","","","","","","","","","","","","","","null","audio_feedback/shuffles/shuffle01.mp3","null","","","","0","18","47","400","[""0046_N0400_K0047_NOCLIQUE"",""0073_N0400_K0047_CLIQUE""]"
"","canvas-keyboard-response","97","929334","0.0-70.1-0.1-0.1","","","","","","","","","","","","","","","","","","2905","","arrowright","[320,127,43,39,129,190,337,166,358,19,98,5,222,245,297,252,146,137,189,61,160,214,246,153,188,216,240,399,373,85,365,121,278,105,250,49,211,390,9,341,92,187,172,375,316,328,364,164,293,323,338,287,356,102,20,266,141,46,286,13,178,114,22,2,313,232,228,267,17,243,99,111,354,369,238,198,302,100,218,377,89,131,386,230,314,78,140,184,118,124,142,181,86,360,37,168,298,143,145,115,33,7,68,4,327,305,191,199,334,112,34,11,290,309,389,97,205,66,149,282,57,185,48,378,81,76,249,117,251,135,210,292,148,391,104,72,201,25,29,196,88,58,53,259,204,344,363,329,350,128,270,113,122,6,315,392,275,73,65,150,362,326,289,236,382,300,64,340,394,269,288,202,284,257,59,303,69,38,371,108,206,279,336,63,74,227,368,80,372,151,171,351,307,352,233,319,42,395,321,396,247,36,96,60,330,224,93,203,26,357,52,154,109,79,144,388,174,332,101,263,322,41,253,239,91,130,200,123,283,308,208,387,50,170,393,116,291,94,318,248,347,295,374,213,67,1,335,294,45,217,3,311,349,87,70,35,161,234,163,268,277,346,312,265,361,167,138,27,241,355,107,223,132,103,324,23,381,44,256,353,47,28,255,258,186,169,194,383,325,220,110,271,385,380,125,55,159,176,398,384,242,0,397,254,12,10,16,157,40,147,261,301,32,262,272,306,165,366,193,379,136,219,310,376,173,54,95,195,317,177,77,21,281,119,276,75,342,225,71,183,155,192,162,24,197,304,215,126,8,30,15,152,285,231,84,237,180,260,106,133,359,51,175,296,18,244,226,158,339,264,333,235,31,229,274,83,280,345,62,273,221,207,82,90,348,134,209,370,182,299,56,156,179,120,367,343,331,212,14,139]","arrowright","true","0","18","47","400","[""0046_N0400_K0047_NOCLIQUE"",""0073_N0400_K0047_CLIQUE""]"
"","audio-keyboard-response","98","930515","0.0-70.1-0.1-1.1","","","","","","","","","","","","","","","","","","null","audio_feedback/right/coin01.mp3","null","","","","0","18","47","400","[""0046_N0400_K0047_NOCLIQUE"",""0073_N0400_K0047_CLIQUE""]"
"","canvas-keyboard-response","99","932275","0.0-71.0-0.0-0.0","","","","","","","","","","","","","","","","","","1731","","arrowright","[110,135,3,202,141,79,319,314,66,387,62,52,205,367,306,346,44,98,312,150,157,376,336,69,343,277,219,145,379,196,247,363,166,395,65,27,374,146,46,315,251,223,45,94,227,19,229,84,329,211,109,7,399,216,42,203,285,231,298,86,147,361,34,124,243,159,338,381,31,292,318,35,96,33,137,210,183,184,267,32,222,106,348,226,322,170,112,144,113,10,49,232,14,224,332,335,326,384,161,30,117,76,290,212,93,204,81,22,191,252,182,18,107,262,53,89,11,118,13,235,380,355,127,305,140,9,295,142,75,165,154,214,16,386,67,287,351,111,201,206,281,313,50,120,263,257,119,2,388,279,260,301,321,105,104,369,180,143,289,149,396,60,175,152,126,102,324,282,256,349,288,173,197,358,15,253,294,92,225,364,250,43,21,78,1,327,114,172,58,91,228,4,47,192,275,389,382,353,28,186,129,208,244,194,328,385,308,320,297,371,268,278,266,209,239,368,38,188,323,99,193,246,167,176,296,354,372,125,171,160,55,101,108,398,375,88,123,213,392,302,240,131,304,359,236,274,377,41,51,333,12,237,73,95,310,317,258,115,40,68,221,311,347,151,148,179,70,189,360,272,158,132,293,181,8,26,234,100,334,207,198,87,249,337,133,83,265,238,0,17,85,138,164,270,97,264,393,56,345,82,299,271,357,245,77,139,24,121,254,29,283,309,286,241,330,217,350,136,378,242,25,163,300,54,280,80,155,64,370,390,273,199,356,174,90,39,122,248,344,352,373,36,103,169,325,284,259,220,190,291,130,215,269,178,303,397,341,365,6,177,134,342,340,168,48,63,195,316,156,255,200,307,5,187,185,162,230,339,71,23,20,153,391,331,61,128,233,218,383,57,261,72,74,37,116,362,59,394,276,366]","arrowleft","false","0","19","47","400","[""0005_N0400_K0047_CLIQUE"",""0004_N0400_K0047_NOCLIQUE""]"
"","audio-keyboard-response","100","933460","0.0-71.0-0.0-1.0","","","","","","","","","","","","","","","","","","null","audio_feedback/wrong/error01.mp3","null","","","","0","19","47","400","[""0005_N0400_K0047_CLIQUE"",""0004_N0400_K0047_NOCLIQUE""]"
"","canvas-keyboard-response","101","935078","0.0-72.0-0.0-0.0","","","","","","","","","","","","","","","","","","1592","","arrowleft","[174,365,180,330,95,352,212,302,115,349,62,64,373,220,191,12,138,140,346,353,251,270,366,79,45,255,397,394,339,164,340,311,209,337,168,184,289,108,322,18,9,106,195,3,167,256,336,320,71,83,20,8,23,236,178,197,136,185,204,155,72,56,331,142,176,273,102,22,393,374,114,372,241,211,219,37,217,265,326,298,360,105,119,390,47,309,6,343,78,342,90,156,275,354,380,59,112,228,226,43,218,389,278,92,160,53,58,268,21,134,60,304,395,206,172,361,300,51,303,297,234,290,357,166,175,126,266,104,288,223,205,49,123,378,65,233,306,109,91,253,269,299,24,324,157,131,162,296,248,362,313,94,68,276,222,334,122,192,129,244,190,264,151,383,44,76,139,124,46,63,163,187,85,388,135,258,235,16,86,370,312,54,243,57,33,181,225,376,70,81,237,274,202,317,147,75,169,291,186,30,308,96,148,14,215,35,287,385,198,295,323,15,11,246,399,171,188,74,31,328,10,179,159,371,327,368,5,294,48,88,143,392,32,116,214,2,128,13,396,117,316,348,364,137,89,338,55,239,69,132,245,347,39,125,238,283,377,262,207,0,201,93,310,52,29,40,379,165,369,229,382,301,282,277,27,189,182,307,103,367,61,161,149,173,99,281,4,213,110,286,67,315,259,146,19,305,355,341,332,203,261,231,318,358,141,34,350,384,267,252,351,284,73,183,144,329,292,363,375,50,154,356,250,77,232,333,120,242,391,216,127,17,344,260,199,387,133,272,193,41,314,210,100,224,145,82,345,386,263,325,321,98,42,227,66,170,221,150,319,359,113,107,38,26,158,101,249,177,194,97,118,240,247,130,208,285,254,196,335,279,257,28,87,121,230,111,398,80,200,280,293,271,25,7,152,153,1,84,36,381]","arrowright","false","0","20","40","400","[""0052_N0400_K0040_NOCLIQUE"",""0018_N0400_K0040_CLIQUE""]"
"","audio-keyboard-response","102","936264","0.0-72.0-0.0-1.0","","","","","","","","","","","","","","","","","","null","audio_feedback/wrong/error01.mp3","null","","","","0","20","40","400","[""0052_N0400_K0040_NOCLIQUE"",""0018_N0400_K0040_CLIQUE""]"
"","canvas-keyboard-response","103","940421","0.0-73.0-0.0-0.0","","","","","","","","","","","","","","","","","","4128",""," ","[334,140,329,39,9,70,229,33,137,271,278,45,374,27,368,81,82,107,371,119,269,344,270,353,142,182,64,313,114,321,289,76,383,377,359,97,74,54,203,335,261,360,31,56,35,18,113,46,257,94,29,210,122,149,66,83,346,200,294,28,357,397,69,325,22,93,73,213,178,199,155,245,6,40,290,100,354,275,179,207,110,105,196,191,218,146,240,315,24,249,208,394,302,41,57,202,307,205,72,356,215,120,117,399,16,145,172,369,86,366,373,317,85,277,327,375,198,99,162,2,281,49,287,136,51,235,153,364,326,363,214,386,349,251,124,226,15,345,80,0,232,48,47,348,111,311,227,337,347,382,219,322,118,181,184,43,17,370,250,323,367,150,372,231,130,265,164,221,262,71,19,332,12,67,53,236,62,263,14,358,169,266,174,132,376,273,264,79,276,318,88,165,201,381,147,248,285,131,298,151,286,212,61,309,95,192,280,267,26,274,129,336,393,283,252,77,123,59,102,58,112,292,216,384,166,195,167,159,284,220,310,314,301,121,135,183,389,392,25,234,52,75,141,293,44,222,176,5,171,96,42,144,362,193,259,175,391,211,50,247,60,163,101,282,279,320,316,156,106,173,127,246,55,65,339,296,272,37,32,23,143,160,126,186,312,30,188,8,343,152,189,355,134,260,288,138,187,258,158,324,68,291,190,304,1,330,379,333,21,387,217,241,342,223,395,11,20,38,300,125,378,115,90,10,365,128,308,295,255,398,13,244,133,157,396,63,331,233,185,303,148,98,390,380,225,4,306,385,254,7,109,297,256,243,305,78,224,319,139,161,3,253,361,328,84,89,116,239,237,341,180,170,103,92,352,238,388,197,168,268,34,209,228,350,230,206,299,351,338,194,108,104,154,340,242,91,204,87,36,177]","arrowleft","","0","21","40","400","[""0061_N0400_K0040_CLIQUE"",""0072_N0400_K0040_NOCLIQUE""]"
"","audio-keyboard-response","104","941707","0.0-73.0-0.0-1.0","","","","","","","","","","","","","","","","","","null","audio_feedback/shuffles/shuffle01.mp3","null","","","","0","21","40","400","[""0061_N0400_K0040_CLIQUE"",""0072_N0400_K0040_NOCLIQUE""]"
"","canvas-keyboard-response","105","945251","0.0-73.1-0.1-0.1","","","","","","","","","","","","","","","","","","3519",""," ","[286,269,87,378,333,25,214,95,195,51,53,122,3,260,254,165,13,249,275,204,169,291,393,30,390,224,79,31,90,191,109,102,91,371,73,183,201,14,16,304,303,261,48,361,166,328,124,163,387,43,36,356,278,193,98,74,82,243,368,92,281,319,171,63,164,255,145,174,339,133,143,318,94,18,172,2,41,398,350,241,386,111,375,110,212,97,130,299,246,385,277,233,62,83,226,182,279,29,345,58,107,84,267,26,314,148,167,288,266,158,300,96,392,65,271,47,294,101,248,144,324,311,105,348,272,343,301,236,258,136,55,295,290,81,206,175,342,374,35,296,192,225,168,321,93,322,89,137,106,178,381,115,332,251,245,312,285,209,190,231,329,42,293,352,270,366,126,108,173,203,60,156,211,113,208,22,234,50,380,227,336,140,20,259,146,181,358,162,264,347,80,85,39,188,391,70,129,59,67,157,280,138,237,207,263,76,184,365,40,218,388,334,315,316,134,54,88,78,100,1,317,121,118,187,228,283,45,33,104,363,86,395,335,32,199,232,210,265,355,19,64,377,337,152,69,4,305,116,189,372,362,399,154,327,351,297,24,114,52,273,198,117,229,141,323,396,383,177,376,244,28,235,8,23,197,147,149,194,239,185,170,125,219,389,196,344,230,276,242,11,222,44,99,373,128,179,160,370,17,292,238,240,161,357,34,250,12,56,217,213,262,37,159,308,220,326,139,10,340,71,325,27,310,46,103,153,21,313,186,135,132,68,6,252,289,119,205,330,367,309,72,7,223,384,57,360,382,274,66,257,0,123,216,38,359,354,284,9,397,75,77,127,202,247,379,5,131,256,150,151,298,120,353,349,287,268,331,15,112,364,302,215,155,221,200,394,346,338,282,306,307,176,253,320,61,180,49,369,142,341]","arrowleft","","0","21","40","400","[""0061_N0400_K0040_CLIQUE"",""0072_N0400_K0040_NOCLIQUE""]"
"","audio-keyboard-response","106","946523","0.0-73.1-0.1-1.1","","","","","","","","","","","","","","","","","","null","audio_feedback/shuffles/shuffle01.mp3","null","","","","0","21","40","400","[""0061_N0400_K0040_CLIQUE"",""0072_N0400_K0040_NOCLIQUE""]"
"","canvas-keyboard-response","107","956306","0.0-73.2-0.2-0.2","","","","","","","","","","","","","","","","","","9755","","arrowright","[198,124,13,131,140,294,295,70,197,58,287,274,80,171,247,139,201,288,375,14,372,123,168,30,230,4,8,125,110,88,290,306,109,285,259,137,390,181,205,214,329,291,19,243,28,322,249,350,121,38,160,40,128,332,193,236,277,82,204,215,305,325,308,252,155,43,317,45,272,101,16,318,47,6,7,336,195,10,126,57,39,52,5,112,60,339,117,162,269,94,297,62,209,196,376,143,292,66,177,84,220,222,368,75,353,218,190,98,185,273,127,358,300,64,395,278,333,73,256,383,284,338,175,381,399,255,71,334,100,51,319,41,141,217,387,265,313,349,130,120,346,0,26,65,271,164,103,148,275,9,260,172,223,293,90,200,189,370,25,380,153,228,151,33,136,266,187,158,244,56,147,246,264,386,378,22,343,301,99,146,106,184,157,199,107,304,49,281,240,237,363,133,394,225,37,212,81,250,145,188,113,32,311,54,203,254,134,323,357,72,282,178,238,77,302,377,248,276,362,298,36,166,261,382,119,364,34,331,234,150,76,156,149,138,50,192,365,46,24,384,366,206,18,219,326,142,3,176,296,21,242,163,342,226,385,31,210,15,59,132,389,310,105,154,280,67,114,262,321,224,351,257,367,27,68,74,221,69,216,182,283,303,347,251,348,118,102,354,355,312,268,316,398,97,374,89,20,174,213,289,180,191,335,12,361,85,379,61,396,78,371,104,83,360,328,135,161,2,337,208,87,42,356,183,48,397,330,116,239,23,341,108,279,95,96,253,179,169,55,229,144,227,35,307,173,352,309,324,270,344,129,79,152,286,267,29,231,159,194,92,186,115,167,314,122,1,391,245,170,299,359,393,369,315,63,232,263,17,320,111,233,11,241,373,53,86,392,345,165,235,44,340,207,202,93,258,91,211,327,388]","arrowleft","false","0","21","40","400","[""0061_N0400_K0040_CLIQUE"",""0072_N0400_K0040_NOCLIQUE""]"
"","audio-keyboard-response","108","957735","0.0-73.2-0.2-1.2","","","","","","","","","","","","","","","","","","null","audio_feedback/wrong/error01.mp3","null","","","","0","21","40","400","[""0061_N0400_K0040_CLIQUE"",""0072_N0400_K0040_NOCLIQUE""]"
"","canvas-keyboard-response","109","963601","0.0-74.0-0.0-0.0","","","","","","","","","","","","","","","","","","5825",""," ","[219,365,85,190,342,122,235,181,383,385,243,265,14,357,317,285,395,187,382,376,11,362,312,96,55,205,39,391,31,49,185,159,194,98,169,3,260,388,134,50,53,239,389,210,339,228,394,220,186,195,151,263,209,379,301,123,192,236,234,246,8,105,148,271,170,345,229,334,121,145,326,30,262,283,222,19,335,386,109,58,253,41,233,350,83,150,216,241,324,361,313,92,276,157,125,268,57,331,280,352,77,198,72,166,242,54,212,76,101,153,59,100,26,289,15,315,295,206,64,223,156,338,135,390,396,152,1,78,114,202,107,5,393,321,274,155,232,267,118,344,318,93,97,65,154,378,82,298,42,197,140,214,297,12,2,356,384,165,284,139,21,319,51,20,373,213,32,269,227,35,300,70,367,328,86,56,207,203,17,272,22,112,66,251,88,266,372,138,40,113,255,231,256,18,28,104,354,341,126,327,215,0,193,119,179,387,43,288,299,44,371,34,296,36,336,305,184,91,46,45,278,310,279,117,94,240,33,368,348,270,63,52,332,291,180,161,333,340,259,226,238,110,208,131,90,257,144,306,163,102,162,196,237,142,80,282,133,127,174,136,347,211,302,68,325,204,252,316,95,275,84,323,128,273,292,363,168,293,29,79,13,370,221,189,248,141,377,201,218,172,75,303,120,290,124,7,178,38,258,103,366,173,149,286,99,6,87,329,27,294,381,244,182,130,249,67,129,261,217,132,146,264,311,322,346,176,147,69,360,349,314,81,375,71,230,369,10,245,9,225,281,359,61,16,143,115,337,374,353,250,106,89,74,60,399,183,24,62,188,224,380,175,191,392,23,37,398,277,364,73,254,307,48,309,164,171,47,160,247,116,320,199,330,200,343,397,287,137,111,358,4,351,177,304,355,108,25,308,167,158]","arrowleft","","0","22","33","400","[""0053_N0400_K0033_CLIQUE"",""0024_N0400_K0033_NOCLIQUE""]"
"","audio-keyboard-response","110","965159","0.0-74.0-0.0-1.0","","","","","","","","","","","","","","","","","","null","audio_feedback/shuffles/shuffle01.mp3","null","","","","0","22","33","400","[""0053_N0400_K0033_CLIQUE"",""0024_N0400_K0033_NOCLIQUE""]"
"","canvas-keyboard-response","111","965290","0.0-74.1-0.1-0.1","","","","","","","","","","","","","","","","","","96",""," ","[294,46,157,114,120,249,55,306,234,132,309,373,2,136,233,172,28,54,130,128,92,205,240,237,274,248,126,195,348,322,193,96,162,386,76,250,229,20,161,133,134,69,50,62,56,357,220,392,31,194,110,231,257,40,152,27,63,209,154,6,23,310,215,245,1,101,286,303,216,25,184,331,241,329,153,227,9,396,43,324,125,223,325,82,208,18,293,109,39,73,244,267,305,33,235,90,296,78,115,99,379,312,124,89,74,398,142,12,335,292,179,210,271,199,291,272,11,201,192,178,191,255,160,127,188,315,0,59,242,217,278,238,283,288,5,318,287,282,77,185,111,135,202,382,301,316,93,143,251,94,116,60,369,339,88,268,3,17,13,139,334,190,341,308,98,97,376,360,327,91,22,300,48,307,156,219,95,247,102,118,159,280,218,71,53,337,49,58,252,270,66,213,155,367,64,314,150,206,51,281,377,169,394,393,44,366,211,8,345,105,330,269,37,347,197,261,163,42,182,364,380,168,10,165,260,326,253,104,263,34,363,123,146,368,75,61,264,259,355,4,149,381,275,177,16,246,100,383,262,299,333,21,140,36,277,35,166,117,107,158,374,323,26,148,173,319,138,83,342,352,391,304,387,273,19,297,279,207,141,256,289,384,175,131,359,340,350,30,200,290,344,72,361,338,302,183,24,80,144,170,343,221,180,243,87,354,320,222,14,236,397,266,112,311,226,346,365,52,358,362,171,353,7,228,370,106,336,232,285,137,47,84,356,328,113,295,196,81,119,108,187,129,164,212,313,265,225,41,70,32,68,349,224,176,38,230,79,86,276,284,399,151,204,15,385,198,214,389,45,378,147,390,122,239,103,298,388,67,372,167,258,186,65,145,371,254,351,395,85,375,121,174,321,57,29,317,189,203,332,181]","arrowleft","","0","22","33","400","[""0053_N0400_K0033_CLIQUE"",""0024_N0400_K0033_NOCLIQUE""]"
"","audio-keyboard-response","112","966581","0.0-74.1-0.1-1.1","","","","","","","","","","","","","","","","","","null","audio_feedback/shuffles/shuffle01.mp3","null","","","","0","22","33","400","[""0053_N0400_K0033_CLIQUE"",""0024_N0400_K0033_NOCLIQUE""]"
"","canvas-keyboard-response","113","966925","0.0-74.2-0.2-0.2","","","","","","","","","","","","","","","","","","305",""," ","[191,86,346,379,354,336,127,12,261,296,174,62,209,163,25,258,183,301,83,45,31,195,361,153,393,232,242,151,210,96,217,259,134,388,29,318,367,355,189,147,249,264,148,304,237,196,281,156,368,102,315,245,344,164,177,395,27,39,221,378,11,55,167,170,290,155,262,310,192,363,149,1,303,193,178,184,308,230,120,389,19,200,305,337,372,244,145,263,335,396,85,216,269,236,43,166,253,387,273,274,104,52,219,287,356,376,125,317,42,370,324,159,260,207,234,311,112,66,289,218,21,197,339,323,349,121,222,223,111,106,343,283,292,56,270,293,285,342,140,392,198,168,68,276,36,208,391,314,181,326,107,348,74,381,331,187,206,46,48,162,8,316,152,32,320,272,373,139,128,286,34,71,141,72,297,54,143,13,33,49,322,265,295,333,97,172,215,347,30,399,255,385,386,20,15,109,0,82,65,239,398,132,41,180,250,179,299,312,58,185,64,90,22,325,175,330,73,384,3,353,241,154,201,79,138,257,300,352,136,359,91,243,280,7,213,247,17,362,35,173,190,377,275,302,122,169,291,108,369,110,100,26,340,328,60,81,380,279,204,133,366,38,360,251,75,309,2,214,327,358,93,282,229,137,277,176,146,142,98,171,268,390,256,101,188,186,278,57,266,131,37,248,194,375,357,203,6,345,70,129,76,306,118,231,161,51,130,394,10,252,78,254,158,313,59,105,383,63,94,225,80,14,53,18,23,117,67,113,294,160,332,95,321,69,307,87,267,334,144,124,116,228,374,227,165,205,199,382,350,77,24,61,28,220,397,50,103,16,226,150,9,298,182,319,5,135,126,233,114,89,371,157,271,351,92,364,284,224,212,44,115,288,238,40,119,365,246,329,341,240,47,84,211,99,202,338,235,4,88,123]","arrowleft","","0","22","33","400","[""0053_N0400_K0033_CLIQUE"",""0024_N0400_K0033_NOCLIQUE""]"
"","audio-keyboard-response","114","968206","0.0-74.2-0.2-1.2","","","","","","","","","","","","","","","","","","null","audio_feedback/shuffles/shuffle01.mp3","null","","","","0","22","33","400","[""0053_N0400_K0033_CLIQUE"",""0024_N0400_K0033_NOCLIQUE""]"
"","canvas-keyboard-response","115","968589","0.0-74.3-0.3-0.3","","","","","","","","","","","","","","","","","","353",""," ","[61,7,372,305,186,295,215,158,51,353,139,10,152,199,183,46,107,355,323,377,335,97,241,182,316,91,358,193,8,36,26,105,368,290,111,34,85,333,112,17,106,162,394,134,40,48,344,70,285,223,119,233,30,164,74,150,55,109,45,328,281,367,32,120,62,272,49,56,395,256,222,345,68,202,176,128,197,325,98,72,208,390,213,58,337,280,189,54,238,354,207,65,326,194,116,232,274,311,369,138,277,143,273,340,75,352,209,99,248,126,93,13,187,287,253,349,230,282,82,214,76,88,146,12,79,205,296,379,320,384,11,87,57,389,221,271,154,314,237,361,360,203,341,60,188,227,317,283,306,69,308,298,297,220,157,102,309,321,83,2,319,393,397,366,278,312,225,231,291,64,73,327,37,141,81,47,343,115,315,234,104,108,63,28,169,9,135,257,140,246,347,136,127,219,200,16,122,396,210,168,179,324,132,153,156,123,242,80,269,84,239,346,151,204,33,263,66,201,336,329,260,229,348,185,332,118,148,184,121,1,386,43,330,174,52,181,31,27,4,267,0,313,14,41,124,265,388,211,103,322,67,250,266,252,289,370,71,137,351,376,224,261,113,275,228,243,299,129,178,217,175,240,259,373,77,167,262,364,359,38,145,247,254,392,365,381,142,318,310,177,6,29,195,20,279,264,258,92,90,268,244,94,78,196,18,130,180,385,53,251,288,245,24,3,110,95,338,350,114,171,160,42,382,218,5,192,292,387,342,35,300,226,144,331,59,163,383,371,100,22,101,236,270,356,191,378,23,334,302,15,303,391,125,380,235,39,216,293,44,398,161,21,294,117,362,357,50,155,96,133,173,147,339,374,255,304,301,276,190,165,170,284,363,159,172,375,131,19,198,286,25,249,206,307,86,89,212,149,399,166]","arrowleft","","0","22","33","400","[""0053_N0400_K0033_CLIQUE"",""0024_N0400_K0033_NOCLIQUE""]"
"","audio-keyboard-response","116","969872","0.0-74.3-0.3-1.3","","","","","","","","","","","","","","","","","","null","audio_feedback/shuffles/shuffle01.mp3","null","","","","0","22","33","400","[""0053_N0400_K0033_CLIQUE"",""0024_N0400_K0033_NOCLIQUE""]"
"","canvas-keyboard-response","117","970316","0.0-74.4-0.4-0.4","","","","","","","","","","","","","","","","","","397",""," ","[82,254,362,206,252,319,176,297,365,212,306,191,382,64,194,69,234,96,334,161,92,108,270,12,310,131,125,19,313,397,27,383,295,89,258,324,288,90,55,67,231,137,102,73,368,3,299,311,238,174,117,296,268,134,261,366,241,44,205,225,364,246,56,75,219,391,45,230,8,154,163,350,185,312,285,323,76,111,104,207,340,41,331,249,22,259,183,229,196,308,6,91,283,257,376,58,265,94,68,321,42,186,264,357,21,37,180,49,374,72,216,167,7,281,65,158,120,318,247,392,116,99,86,38,338,190,385,103,100,199,298,304,369,122,209,377,52,5,178,279,98,147,274,189,344,217,335,290,317,182,214,396,347,26,126,367,355,200,363,15,388,84,224,251,379,50,203,48,71,145,276,106,287,333,314,275,97,28,301,330,143,267,70,129,156,361,211,11,256,166,398,373,85,1,105,17,53,54,149,20,372,88,226,390,16,236,172,169,394,289,170,248,133,101,195,181,57,286,78,29,326,395,356,198,109,112,168,197,148,175,389,18,327,32,266,74,360,380,121,114,239,62,34,177,282,237,142,2,151,30,348,87,80,193,235,13,39,77,269,250,244,359,150,293,113,171,95,4,192,23,138,208,51,278,218,399,159,351,387,118,262,272,83,342,332,173,14,33,346,232,210,328,220,204,79,325,358,303,139,215,107,46,213,136,309,124,36,47,260,115,59,66,63,9,386,315,187,393,35,316,141,242,153,24,221,300,160,81,277,179,140,130,202,273,349,329,320,345,339,184,132,123,40,341,353,375,61,307,292,31,223,10,128,119,240,305,43,93,110,352,291,201,227,294,60,162,165,152,343,222,135,322,188,271,243,280,384,144,263,164,381,253,354,370,0,336,245,337,233,302,127,25,155,284,146,371,255,378,228,157]","arrowleft","","0","22","33","400","[""0053_N0400_K0033_CLIQUE"",""0024_N0400_K0033_NOCLIQUE""]"
"","audio-keyboard-response","118","971599","0.0-74.4-0.4-1.4","","","","","","","","","","","","","","","","","","null","audio_feedback/shuffles/shuffle01.mp3","null","","","","0","22","33","400","[""0053_N0400_K0033_CLIQUE"",""0024_N0400_K0033_NOCLIQUE""]"
"","canvas-keyboard-response","119","972262","0.0-74.5-0.5-0.5","","","","","","","","","","","","","","","","","","618",""," ","[72,358,66,263,362,268,47,220,387,159,324,347,346,368,298,134,176,257,170,397,219,139,177,213,214,201,35,48,251,131,352,174,354,342,55,165,287,359,317,195,83,313,147,99,232,331,309,250,37,13,382,261,320,127,194,154,204,334,41,276,12,351,390,32,45,295,337,75,29,24,267,243,58,370,245,95,258,290,122,168,51,27,330,49,185,333,137,200,0,300,102,328,148,304,175,73,164,34,273,158,57,375,79,106,110,52,63,275,59,140,56,227,207,296,100,301,187,339,180,266,303,103,247,224,69,223,271,189,60,146,70,7,323,312,377,156,11,360,111,238,253,65,355,197,87,30,10,380,326,211,311,118,279,228,119,386,264,233,215,252,19,278,135,186,124,193,293,132,277,237,190,157,97,93,179,369,191,221,74,8,260,3,274,196,341,321,82,366,128,199,53,240,91,116,126,255,348,18,391,398,15,78,231,192,136,151,163,367,259,384,349,218,246,379,269,92,145,322,306,225,288,77,383,389,31,343,254,62,361,357,182,365,105,5,130,9,71,394,208,76,153,61,363,319,6,340,205,297,117,289,374,129,235,302,54,210,26,101,353,286,21,209,23,22,371,327,173,376,236,262,202,399,50,282,86,226,292,381,155,4,183,299,364,2,133,89,396,161,329,81,64,345,138,393,222,241,325,171,265,114,242,33,144,14,28,280,378,291,98,388,335,305,249,142,373,229,152,239,336,198,285,1,104,395,281,125,392,350,25,203,167,17,40,150,256,162,332,181,166,294,188,121,314,169,107,308,310,160,115,120,216,206,307,113,244,356,43,20,385,212,230,344,184,36,84,90,123,16,85,68,283,38,316,172,67,178,315,39,96,141,46,372,94,338,112,149,318,80,248,88,143,42,272,44,108,270,217,109,284,234]","arrowleft","","0","22","33","400","[""0053_N0400_K0033_CLIQUE"",""0024_N0400_K0033_NOCLIQUE""]"
"","audio-keyboard-response","120","973550","0.0-74.5-0.5-1.5","","","","","","","","","","","","","","","","","","null","audio_feedback/shuffles/shuffle01.mp3","null","","","","0","22","33","400","[""0053_N0400_K0033_CLIQUE"",""0024_N0400_K0033_NOCLIQUE""]"
"","canvas-keyboard-response","121","974430","0.0-74.6-0.6-0.6","","","","","","","","","","","","","","","","","","855",""," ","[15,98,332,381,383,361,399,343,314,279,127,95,370,12,85,244,112,282,190,196,16,138,90,100,236,294,303,353,86,119,114,212,246,151,3,237,371,78,67,185,362,233,128,37,265,217,285,309,318,117,152,68,82,391,378,275,36,187,281,245,324,33,63,103,373,139,216,359,125,107,62,22,27,398,87,348,243,25,24,269,166,267,66,91,380,150,257,10,182,200,307,122,239,124,215,43,338,266,46,393,155,53,379,304,195,115,211,79,283,0,57,56,337,164,189,192,175,148,209,186,240,84,387,116,262,234,47,157,210,397,218,313,144,40,146,250,126,219,171,41,65,321,42,264,204,145,168,238,14,334,23,352,302,221,58,231,220,133,346,222,38,261,165,160,396,167,197,260,300,181,118,372,247,203,278,179,26,317,170,213,92,28,183,386,48,369,286,154,363,161,270,336,258,316,162,77,291,153,184,315,109,205,295,129,74,252,227,6,323,224,289,5,11,277,35,375,75,273,19,255,188,143,1,106,297,134,226,349,248,288,251,50,31,206,88,345,394,55,339,111,72,202,335,104,235,178,193,198,158,163,89,259,341,298,176,142,61,374,76,328,364,140,305,296,292,201,141,241,149,254,208,344,102,358,389,340,2,354,253,71,325,384,388,356,7,365,256,8,172,311,382,69,136,232,93,350,214,355,110,17,329,21,4,319,177,310,330,366,113,331,70,199,308,45,290,230,132,225,52,20,147,274,368,333,156,280,94,390,131,322,385,135,173,64,326,268,347,32,392,272,34,276,320,249,342,357,13,73,174,108,284,9,228,99,194,97,312,271,120,123,293,263,96,306,229,49,159,101,121,18,191,105,351,59,54,223,395,60,367,30,207,39,360,242,327,130,180,169,287,81,301,376,377,51,29,299,80,44,83,137]","arrowleft","","0","22","33","400","[""0053_N0400_K0033_CLIQUE"",""0024_N0400_K0033_NOCLIQUE""]"
"","audio-keyboard-response","122","975723","0.0-74.6-0.6-1.6","","","","","","","","","","","","","","","","","","null","audio_feedback/shuffles/shuffle01.mp3","null","","","","0","22","33","400","[""0053_N0400_K0033_CLIQUE"",""0024_N0400_K0033_NOCLIQUE""]"
"","canvas-keyboard-response","123","976741","0.0-74.7-0.7-0.7","","","","","","","","","","","","","","","","","","977",""," ","[295,98,18,133,156,138,388,50,217,348,345,188,11,157,122,186,392,330,143,243,79,202,389,286,107,226,88,350,303,7,124,35,341,104,227,246,172,8,241,127,336,90,163,129,367,51,155,100,299,41,214,270,34,229,134,137,334,343,91,335,25,72,48,317,42,55,222,1,325,326,302,83,225,28,223,2,297,313,152,200,300,185,80,397,357,394,308,373,76,204,70,128,264,323,140,237,344,288,238,372,136,254,272,149,399,131,77,158,94,315,19,292,84,15,359,381,175,40,310,199,332,182,206,101,17,187,13,290,349,346,211,145,383,218,201,26,318,275,105,338,327,304,4,248,196,110,382,356,117,47,178,36,108,282,273,5,27,263,366,68,210,301,148,173,307,64,289,53,386,74,269,81,142,253,45,250,112,233,276,311,312,329,287,216,351,75,126,347,14,281,30,9,239,20,278,364,228,232,60,236,262,247,181,252,97,89,260,32,86,180,293,37,153,231,363,283,370,314,258,321,183,198,125,221,21,121,352,144,118,113,141,375,384,82,164,266,371,65,12,135,209,165,208,271,212,93,69,387,379,194,294,29,390,306,132,256,374,395,360,377,3,333,43,161,355,213,139,59,285,342,279,230,33,23,396,147,103,176,95,63,130,337,102,114,177,16,197,151,73,166,62,162,362,87,361,71,168,193,179,38,324,219,235,255,280,224,123,54,6,78,245,391,322,320,259,257,305,274,159,109,203,39,354,298,268,24,251,242,265,234,57,339,171,358,385,170,331,119,369,167,328,220,10,154,169,365,267,380,376,146,319,368,215,340,309,192,174,115,106,190,96,207,398,353,67,393,277,52,205,99,316,116,49,44,150,31,195,120,291,58,249,184,61,191,46,296,160,261,111,92,189,22,85,378,284,66,56,240,0,244]","arrowleft","","0","22","33","400","[""0053_N0400_K0033_CLIQUE"",""0024_N0400_K0033_NOCLIQUE""]"
"","audio-keyboard-response","124","978019","0.0-74.7-0.7-1.7","","","","","","","","","","","","","","","","","","null","audio_feedback/shuffles/shuffle01.mp3","null","","","","0","22","33","400","[""0053_N0400_K0033_CLIQUE"",""0024_N0400_K0033_NOCLIQUE""]"
"","canvas-keyboard-response","125","979803","0.0-74.8-0.8-0.8","","","","","","","","","","","","","","","","","","1755",""," ","[66,374,379,114,24,263,164,325,187,233,192,91,205,121,214,123,153,84,281,118,218,305,338,360,28,308,21,207,299,361,234,371,16,280,254,44,225,73,247,293,58,288,46,381,97,394,128,157,101,7,23,189,124,232,81,67,68,284,257,147,273,216,268,79,368,183,96,202,39,229,20,122,302,206,391,333,26,200,266,240,352,358,208,184,331,384,149,82,172,47,48,2,112,203,133,366,319,297,269,75,295,11,173,32,186,154,292,25,311,298,88,42,336,4,145,175,150,389,177,326,77,22,344,262,185,9,35,85,113,38,127,303,316,17,178,176,137,5,385,40,94,140,275,337,31,78,373,354,125,92,353,10,62,54,382,165,146,220,209,217,267,190,19,274,182,89,64,397,364,372,345,179,169,343,14,356,283,152,41,330,168,301,110,285,74,141,116,350,18,181,65,199,255,342,332,111,171,98,3,252,188,51,180,370,323,117,143,351,367,348,396,386,43,383,107,378,213,139,34,349,259,398,90,59,55,265,272,238,264,365,72,277,362,296,357,57,380,300,158,130,63,399,134,329,271,309,131,144,313,304,390,27,226,387,15,135,230,242,138,363,161,56,166,76,321,29,108,376,160,241,197,174,132,310,87,170,148,126,318,167,248,320,223,306,314,278,393,307,253,201,8,324,12,395,359,120,260,341,315,129,163,231,1,258,312,86,105,83,222,291,294,228,99,95,80,239,279,155,355,195,70,136,102,53,37,375,282,194,215,243,256,236,212,251,49,388,221,106,317,286,52,6,0,211,109,235,327,346,335,162,191,69,290,246,60,142,250,227,45,198,93,339,287,369,219,33,104,328,322,30,276,204,115,196,244,103,289,261,392,193,270,347,340,210,36,71,245,224,100,50,61,377,13,249,119,151,237,334,156,159]","arrowleft","","0","22","33","400","[""0053_N0400_K0033_CLIQUE"",""0024_N0400_K0033_NOCLIQUE""]"
"","audio-keyboard-response","126","981088","0.0-74.8-0.8-1.8","","","","","","","","","","","","","","","","","","null","audio_feedback/shuffles/shuffle01.mp3","null","","","","0","22","33","400","[""0053_N0400_K0033_CLIQUE"",""0024_N0400_K0033_NOCLIQUE""]"
"","canvas-keyboard-response","127","981824","0.0-74.9-0.9-0.9","","","","","","","","","","","","","","","","","","707",""," ","[282,374,134,80,283,357,233,106,209,62,44,318,219,215,200,307,290,191,362,394,151,147,266,278,373,292,337,287,232,240,143,109,358,289,196,192,128,85,121,25,22,69,387,393,149,130,20,349,168,230,368,371,384,253,389,66,228,370,217,249,258,96,345,254,396,301,220,79,203,34,197,327,41,94,207,311,280,365,176,229,177,364,279,247,174,60,204,359,59,304,72,195,312,335,82,97,285,184,6,355,169,38,76,256,309,332,26,98,53,326,124,293,302,144,378,190,214,29,46,263,298,73,138,317,23,360,296,188,11,315,120,9,166,125,93,321,377,47,135,223,183,245,340,224,18,175,252,152,251,65,102,313,27,45,274,329,241,35,216,319,17,88,379,325,16,324,127,63,112,222,201,226,305,372,236,71,89,37,294,300,383,272,129,145,131,269,83,369,15,341,133,0,328,19,242,288,225,141,330,161,171,354,275,140,75,398,87,165,8,139,86,336,366,382,148,150,156,14,84,194,111,381,178,185,181,170,231,386,43,199,132,213,367,55,380,155,52,376,5,3,375,257,395,119,13,338,264,303,61,186,42,344,142,271,202,31,235,314,343,32,50,210,54,308,348,316,234,297,391,95,248,259,281,299,164,189,388,352,198,361,70,51,21,81,77,265,67,397,107,173,113,103,342,347,108,239,267,392,160,291,158,162,137,250,339,146,153,105,40,136,238,262,122,64,351,179,205,100,33,268,10,117,385,182,270,118,260,114,92,212,273,363,36,284,28,193,211,104,78,2,244,221,390,399,187,167,277,24,276,101,356,237,320,323,306,333,206,154,123,57,49,56,295,331,99,334,353,243,255,157,74,12,68,116,30,126,90,115,1,261,48,172,310,7,4,246,286,218,322,227,350,91,180,159,208,58,346,110,39,163]","arrowleft","","0","22","33","400","[""0053_N0400_K0033_CLIQUE"",""0024_N0400_K0033_NOCLIQUE""]"
"","audio-keyboard-response","128","983120","0.0-74.9-0.9-1.9","","","","","","","","","","","","","","","","","","null","audio_feedback/shuffles/shuffle01.mp3","null","","","","0","22","33","400","[""0053_N0400_K0033_CLIQUE"",""0024_N0400_K0033_NOCLIQUE""]"
"","canvas-keyboard-response","129","986468","0.0-74.10-0.10-0.10","","","","","","","","","","","","","","","","","","3315","","arrowright","[216,315,184,314,160,217,132,364,131,186,45,205,317,126,32,328,373,365,268,89,341,200,80,355,232,111,198,250,97,300,303,1,29,25,73,26,271,249,386,22,56,47,101,305,388,31,40,12,140,52,46,368,102,48,223,63,322,118,121,311,351,95,380,358,265,342,174,77,298,251,397,299,72,320,36,345,233,136,221,318,152,215,179,291,82,146,337,392,241,138,183,128,220,7,219,266,9,153,209,17,16,19,385,208,312,23,8,292,359,135,375,196,197,81,33,282,260,280,157,123,59,289,35,339,112,378,267,61,49,64,30,296,79,34,242,100,166,376,143,324,165,253,387,4,107,113,347,177,259,203,2,120,39,21,225,349,20,51,245,247,274,74,133,346,84,162,6,270,98,99,310,185,281,343,150,13,194,85,290,69,306,246,55,262,122,361,276,230,362,57,124,50,181,148,382,151,288,130,336,323,53,169,149,75,393,381,168,44,372,396,104,313,172,304,302,379,188,119,3,171,224,207,87,257,109,327,377,254,398,330,202,86,236,309,227,214,88,60,66,286,213,394,395,269,154,237,204,329,283,335,369,391,235,103,258,159,295,360,76,91,147,129,170,117,307,58,340,389,142,108,173,187,41,164,352,370,229,272,18,93,399,62,163,325,167,244,180,158,27,191,38,226,316,199,326,374,338,239,252,11,192,293,105,354,182,228,277,263,287,28,212,297,24,14,110,284,65,10,371,90,0,390,210,201,137,278,139,308,218,195,234,356,366,332,301,134,176,141,155,333,255,70,363,156,116,261,348,161,37,256,114,222,279,344,178,353,331,42,144,384,357,54,43,193,367,145,273,115,294,92,15,125,243,334,68,211,350,106,231,5,319,67,94,248,71,240,175,83,264,238,189,190,127,206,78,321,96,275,383,285]","arrowleft","false","0","22","33","400","[""0053_N0400_K0033_CLIQUE"",""0024_N0400_K0033_NOCLIQUE""]"
"","audio-keyboard-response","130","987652","0.0-74.10-0.10-1.10","","","","","","","","","","","","","","","","","","null","audio_feedback/wrong/error01.mp3","null","","","","0","22","33","400","[""0053_N0400_K0033_CLIQUE"",""0024_N0400_K0033_NOCLIQUE""]"
"","canvas-keyboard-response","131","988673","0.0-75.0-0.0-0.0","","","","","","","","","","","","","","","","","","981","","arrowleft","[6,131,340,318,346,31,74,50,114,387,227,287,199,307,349,201,380,186,152,321,151,298,132,222,254,76,371,146,138,206,357,375,280,333,297,393,96,107,274,142,45,381,129,292,153,141,51,286,37,88,61,218,394,229,57,179,219,228,177,79,331,9,171,161,330,278,339,263,250,352,210,264,23,281,32,167,396,238,70,33,110,193,143,202,190,38,301,182,85,98,150,72,364,27,215,265,134,178,203,240,266,365,140,68,113,145,80,398,368,77,290,207,342,329,296,314,170,220,124,135,285,30,59,147,160,176,149,223,309,360,377,258,251,366,106,14,260,60,117,44,52,304,108,41,332,326,295,363,36,306,92,269,277,313,191,305,2,382,196,18,112,123,0,392,180,164,391,303,192,232,255,115,247,312,293,246,249,335,165,233,118,12,243,139,83,324,372,282,334,94,24,353,144,273,194,221,173,58,69,341,270,354,29,25,168,355,198,154,376,104,300,166,323,213,119,66,200,116,389,174,268,158,327,136,367,75,22,245,209,224,384,121,291,65,64,62,351,217,253,163,231,172,252,183,26,84,399,358,71,257,325,388,189,197,43,299,19,241,91,383,103,271,211,214,159,126,373,336,225,128,46,359,49,4,169,310,319,28,343,395,47,338,242,315,181,81,17,125,1,348,361,234,256,86,11,279,272,205,244,95,15,73,386,40,21,8,7,102,34,235,370,390,48,328,42,130,216,157,63,184,5,208,111,316,120,78,105,397,82,369,156,262,311,345,239,379,122,385,155,187,188,378,67,54,100,212,350,195,148,374,347,294,137,288,267,20,127,275,101,248,175,56,35,276,302,93,226,162,53,87,13,133,10,236,97,89,3,261,237,185,317,16,259,289,90,356,283,320,204,308,344,362,230,284,322,55,39,109,99,337]","arrowleft","true","0","23","33","400","[""0017_N0400_K0033_CLIQUE"",""0053_N0400_K0033_NOCLIQUE""]"
"","audio-keyboard-response","132","989868","0.0-75.0-0.0-1.0","","","","","","","","","","","","","","","","","","null","audio_feedback/right/coin01.mp3","null","","","","0","23","33","400","[""0017_N0400_K0033_CLIQUE"",""0053_N0400_K0033_NOCLIQUE""]"
