"width","height","webaudio","browser","browser_version","mobile","os","fullscreen","vsync_rate","webcam","microphone","trial_type","trial_index","time_elapsed","internal_node_id","value","success","timeout","failed_images","failed_audio","failed_video","view_history","rt","stimulus","response","nodes_order","correct_response","correct","block_index","presentation_index","clique_size","graph_size","graphs_names"
"1920","911","true","chrome","133.0.0","false","Windows 10","true","60.46","true","true","browser-check","0","999","0.0-0.0","","","","","","","","","","","","","","","","","",""
"","","","","","","","","","","","call-function","1","1017","0.0-1.0","","","","","","","","","","","","","","","","","",""
"","","","","","","","","","","","preload","2","1175","0.0-2.0","","true","false","[]","[]","[]","","","","","","","","","","","",""
"","","","","","","","","","","","pavlovia","3","1461","0.0-3.0","","","","","","","","","","","","","","","","","",""
"","","","","","","","","","","","instructions","4","3714","0.0-4.0","","","","","","","[{""page_index"":0,""viewing_time"":1864},{""page_index"":1,""viewing_time"":384}]","2249","","","","","","","","","",""
"","","","","","","","","","","","html-keyboard-response","5","5380","0.0-5.0-0.0","","","","","","","","1664","By accepting to participate in this study, you confirm:
                <p style='text-align:left'>
                    - That I have carefully read the explanations regarding this study and the entire experimental procedure;<br>
                    - That I have been informed about the aims and objectives of this research;<br>
                    - That I am aware of the inconveniences, if any, caused by the experiment;<br>
                    - That I have received satisfactory assurances regarding the confidentiality of the information obtained from the examination of my own person; <br>
                    - That I am aware that I can withdraw at any stage of the study.
                <p>
                <span style=""color: #808080"">
                    Press [Y] to <strong>accept</strong>.
                </span> <br>
                <span style=""color: #808080"">
                    Press [N] to <strong>refuse</strong>.
                </span>","y","","","","","","","",""
"","","","","","","","","","","","survey-html-form","6","8978","0.0-6.0","","","","","","","","3596","","{""gender"":""male"",""age"":""23""}","","","","","","","",""
"","","","","","","","","","","","preload","7","9344","0.0-7.0","","true","false","[]","[]","[]","","","","","","","","","","","",""
"","","","","","","","","","","","instructions","8","21201","0.0-8.0","","","","","","","[{""page_index"":0,""viewing_time"":947},{""page_index"":1,""viewing_time"":207},{""page_index"":2,""viewing_time"":176},{""page_index"":3,""viewing_time"":160},{""page_index"":4,""viewing_time"":191},{""page_index"":5,""viewing_time"":401},{""page_index"":6,""viewing_time"":129},{""page_index"":7,""viewing_time"":193},{""page_index"":8,""viewing_time"":143},{""page_index"":9,""viewing_time"":191},{""page_index"":10,""viewing_time"":545},{""page_index"":11,""viewing_time"":207},{""page_index"":12,""viewing_time"":225},{""page_index"":13,""viewing_time"":223},{""page_index"":14,""viewing_time"":416},{""page_index"":15,""viewing_time"":208},{""page_index"":16,""viewing_time"":353},{""page_index"":17,""viewing_time"":224},{""page_index"":18,""viewing_time"":193},{""page_index"":19,""viewing_time"":336},{""page_index"":20,""viewing_time"":191},{""page_index"":21,""viewing_time"":194},{""page_index"":22,""viewing_time"":175},{""page_index"":23,""viewing_time"":191},{""page_index"":24,""viewing_time"":175},{""page_index"":25,""viewing_time"":160},{""page_index"":26,""viewing_time"":192},{""page_index"":27,""viewing_time"":177},{""page_index"":28,""viewing_time"":176},{""page_index"":29,""viewing_time"":161},{""page_index"":30,""viewing_time"":191},{""page_index"":31,""viewing_time"":177},{""page_index"":32,""viewing_time"":208},{""page_index"":33,""viewing_time"":176},{""page_index"":34,""viewing_time"":159},{""page_index"":35,""viewing_time"":163},{""page_index"":36,""viewing_time"":192},{""page_index"":37,""viewing_time"":175},{""page_index"":38,""viewing_time"":191},{""page_index"":39,""viewing_time"":193},{""page_index"":40,""viewing_time"":208},{""page_index"":41,""viewing_time"":192},{""page_index"":42,""viewing_time"":321},{""page_index"":43,""viewing_time"":241},{""page_index"":44,""viewing_time"":207},{""page_index"":45,""viewing_time"":207},{""page_index"":46,""viewing_time"":178},{""page_index"":47,""viewing_time"":208},{""page_index"":48,""viewing_time"":176},{""page_index"":49,""viewing_time"":208},{""page_index"":50,""viewing_time"":237},{""page_index"":51,""viewing_time"":193}]","11857","","","","","","","","","",""
"","","","","","","","","","","","instructions","9","22450","0.0-9.0","","","","","","","[{""page_index"":0,""viewing_time"":1248}]","1248","","","","","","","","","",""
"","","","","","","","","","","","preload","10","22747","0.0-10.0","","true","false","[]","[]","[]","","","","","","","","","","","",""
"","","","","","","","","","","","image-keyboard-response","11","22786","0.0-11.0","","","","","","","","35","tutorial/p_reduce/task_familiarization_images/part 1/01_N160_K90_cliqueRight_question1.PNG"," ","","","","","","","",""
"","","","","","","","","","","","image-keyboard-response","12","23266","0.0-12.0","","","","","","","","479","tutorial/p_reduce/task_familiarization_images/part 1/02_N160_K90_cliqueRight_question2.PNG"," ","","","","","","","",""
"","","","","","","","","","","","image-keyboard-response","13","23698","0.0-13.0","","","","","","","","431","tutorial/p_reduce/task_familiarization_images/part 1/03_N160_K90_cliqueRight_question3.PNG","arrowleft","","","","","","","",""
"","","","","","","","","","","","image-keyboard-response","14","23858","0.0-14.0","","","","","","","","158","tutorial/p_reduce/task_familiarization_images/part 1/04_N160_K90_cliqueRight_solution.PNG"," ","","","","","","","",""
"","","","","","","","","","","","image-keyboard-response","15","24082","0.0-15.0","","","","","","","","222","tutorial/p_reduce/task_familiarization_images/part 1/05_N160_K65_cliqueRight_question1.PNG"," ","","","","","","","",""
"","","","","","","","","","","","image-keyboard-response","16","24291","0.0-16.0","","","","","","","","207","tutorial/p_reduce/task_familiarization_images/part 1/06_N160_K65_cliqueRight_question2.PNG"," ","","","","","","","",""
"","","","","","","","","","","","image-keyboard-response","17","24611","0.0-17.0","","","","","","","","318","tutorial/p_reduce/task_familiarization_images/part 1/07_N160_K65_cliqueRight_question3.PNG","arrowleft","","","","","","","",""
"","","","","","","","","","","","image-keyboard-response","18","24708","0.0-18.0","","","","","","","","95","tutorial/p_reduce/task_familiarization_images/part 1/08_N160_K65_cliqueRight_solution.PNG"," ","","","","","","","",""
"","","","","","","","","","","","image-keyboard-response","19","25474","0.0-19.0","","","","","","","","765","tutorial/p_reduce/task_familiarization_images/part 1/09_N160_K50_cliqueLeft_question1.PNG"," ","","","","","","","",""
"","","","","","","","","","","","image-keyboard-response","20","25713","0.0-20.0","","","","","","","","238","tutorial/p_reduce/task_familiarization_images/part 1/10_N160_K50_cliqueLeft_question2.PNG"," ","","","","","","","",""
"","","","","","","","","","","","image-keyboard-response","21","25969","0.0-21.0","","","","","","","","255","tutorial/p_reduce/task_familiarization_images/part 1/11_N160_K50_cliqueLeft_question3.PNG","arrowleft","","","","","","","",""
"","","","","","","","","","","","image-keyboard-response","22","26065","0.0-22.0","","","","","","","","95","tutorial/p_reduce/task_familiarization_images/part 1/12_N160_K50_cliqueLeft_solution.PNG"," ","","","","","","","",""
"","","","","","","","","","","","image-keyboard-response","23","26290","0.0-23.0","","","","","","","","221","tutorial/p_reduce/task_familiarization_images/part 1/13_N160_K80_cliqueLeft_question1.PNG"," ","","","","","","","",""
"","","","","","","","","","","","image-keyboard-response","24","26481","0.0-24.0","","","","","","","","190","tutorial/p_reduce/task_familiarization_images/part 1/14_N160_K80_cliqueLeft_question2.PNG"," ","","","","","","","",""
"","","","","","","","","","","","image-keyboard-response","25","26641","0.0-25.0","","","","","","","","159","tutorial/p_reduce/task_familiarization_images/part 1/15_N160_K80_cliqueLeft_question3.PNG","arrowright","","","","","","","",""
"","","","","","","","","","","","image-keyboard-response","26","26785","0.0-26.0","","","","","","","","143","tutorial/p_reduce/task_familiarization_images/part 1/16_N160_K80_cliqueLeft_solution.PNG"," ","","","","","","","",""
"","","","","","","","","","","","image-keyboard-response","27","26961","0.0-27.0","","","","","","","","175","tutorial/p_reduce/task_familiarization_images/part 1/17_N160_K40_cliqueRight_question1.PNG"," ","","","","","","","",""
"","","","","","","","","","","","image-keyboard-response","28","27137","0.0-28.0","","","","","","","","174","tutorial/p_reduce/task_familiarization_images/part 1/18_N160_K40_cliqueRight_question2.PNG"," ","","","","","","","",""
"","","","","","","","","","","","image-keyboard-response","29","27361","0.0-29.0","","","","","","","","222","tutorial/p_reduce/task_familiarization_images/part 1/19_N160_K40_cliqueRight_question3.PNG","arrowleft","","","","","","","",""
"","","","","","","","","","","","image-keyboard-response","30","27521","0.0-30.0","","","","","","","","159","tutorial/p_reduce/task_familiarization_images/part 1/20_N160_K40_cliqueRight_solution.PNG"," ","","","","","","","",""
"","","","","","","","","","","","image-keyboard-response","31","27697","0.0-31.0","","","","","","","","174","tutorial/p_reduce/task_familiarization_images/part 1/21_N160_K70_cliqueLeft_question1.PNG"," ","","","","","","","",""
"","","","","","","","","","","","image-keyboard-response","32","27889","0.0-32.0","","","","","","","","190","tutorial/p_reduce/task_familiarization_images/part 1/22_N160_K70_cliqueLeft_question2.PNG"," ","","","","","","","",""
"","","","","","","","","","","","image-keyboard-response","33","28177","0.0-33.0","","","","","","","","287","tutorial/p_reduce/task_familiarization_images/part 1/23_N160_K70_cliqueLeft_question3.PNG","arrowleft","","","","","","","",""
"","","","","","","","","","","","image-keyboard-response","34","28353","0.0-34.0","","","","","","","","174","tutorial/p_reduce/task_familiarization_images/part 1/24_N160_K70_cliqueLeft_solution.PNG"," ","","","","","","","",""
"","","","","","","","","","","","preload","35","28630","0.0-35.0","","true","false","[]","[]","[]","","","","","","","","","","","",""
"","","","","","","","","","","","image-keyboard-response","36","28961","0.0-36.0","","","","","","","","330","tutorial/p_reduce/task_familiarization_images/part 2/01_N160_K80_cliqueLeft_withFeedback_1.PNG"," ","","","","","","","",""
"","","","","","","","","","","","image-keyboard-response","37","29169","0.0-37.0","","","","","","","","207","tutorial/p_reduce/task_familiarization_images/part 2/02_N160_K80_cliqueLeft_withFeedback_2.PNG"," ","","","","","","","",""
"","","","","","","","","","","","image-keyboard-response","38","29409","0.0-38.0","","","","","","","","240","tutorial/p_reduce/task_familiarization_images/part 2/03_N160_K80_cliqueLeft_withFeedback_3.PNG","arrowright","","","","","","","",""
"","","","","","","","","","","","image-keyboard-response","39","29569","0.0-39.0","","","","","","","","158","tutorial/p_reduce/task_familiarization_images/part 2/04_N160_K80_cliqueLeft_withFeedback_wrong.PNG"," ","","","","","","","",""
"","","","","","","","","","","","image-keyboard-response","40","29857","0.0-40.0","","","","","","","","286","tutorial/p_reduce/task_familiarization_images/part 2/05_N160_K55_cliqueRight_withFeedback_1.PNG"," ","","","","","","","",""
"","","","","","","","","","","","image-keyboard-response","41","30001","0.0-41.0","","","","","","","","144","tutorial/p_reduce/task_familiarization_images/part 2/06_N160_K55_cliqueRight_withFeedback_2.PNG"," ","","","","","","","",""
"","","","","","","","","","","","image-keyboard-response","42","30161","0.0-42.0","","","","","","","","158","tutorial/p_reduce/task_familiarization_images/part 2/07_N160_K55_cliqueRight_withFeedback_3.PNG","arrowleft","","","","","","","",""
"","","","","","","","","","","","image-keyboard-response","43","30289","0.0-43.0","","","","","","","","127","tutorial/p_reduce/task_familiarization_images/part 2/08_N160_K55_cliqueRight_withFeedback_wrong.PNG"," ","","","","","","","",""
"","","","","","","","","","","","image-keyboard-response","44","30481","0.0-44.0","","","","","","","","191","tutorial/p_reduce/task_familiarization_images/part 2/09_N160_K70_cliqueLeft_withFeedback_1.PNG"," ","","","","","","","",""
"","","","","","","","","","","","image-keyboard-response","45","30673","0.0-45.0","","","","","","","","191","tutorial/p_reduce/task_familiarization_images/part 2/10_N160_K70_cliqueLeft_withFeedback_2.PNG"," ","","","","","","","",""
"","","","","","","","","","","","image-keyboard-response","46","30816","0.0-46.0","","","","","","","","142","tutorial/p_reduce/task_familiarization_images/part 2/11_N160_K70_cliqueLeft_withFeedback_3.PNG","arrowleft","","","","","","","",""
"","","","","","","","","","","","image-keyboard-response","47","30913","0.0-47.0","","","","","","","","96","tutorial/p_reduce/task_familiarization_images/part 2/12_N160_K70_cliqueLeft_withFeedback_correct.PNG"," ","","","","","","","",""
"","","","","","","","","","","","preload","48","31144","0.0-48.0","","true","false","[]","[]","[]","","","","","","","","","","","",""
"","","","","","","","","","","","instructions","49","31521","0.0-49.0","","","","","","","[{""page_index"":0,""viewing_time"":375}]","375","","","","","","","","","",""
"","","","","","","","","","","","fullscreen","50","34390","0.0-51.0","","true","","","","","","","","","","","","","","","",""
"","","","","","","","","","","","canvas-keyboard-response","51","45250","0.0-52.0-0.0-0.0","","","","","","","","10761","","arrowleft","[32,28,209,279,299,284,228,281,283,70,77,282,111,198,227,199,292,25,298,98,94,143,83,189,167,206,195,184,251,96,68,204,8,50,263,104,280,231,123,53,113,41,36,224,233,140,244,221,150,137,278,30,202,79,297,69,285,157,39,92,170,269,22,249,2,33,75,295,163,5,266,62,172,38,131,66,126,252,230,225,4,100,54,160,112,89,57,154,219,245,181,193,186,24,205,180,197,182,135,102,287,159,134,27,211,6,81,171,178,136,108,48,232,82,275,37,61,74,67,236,185,196,213,216,16,258,190,51,155,220,63,229,201,208,146,119,253,151,12,188,1,120,239,235,162,139,158,14,265,149,47,130,19,296,86,194,264,260,125,187,34,145,183,210,175,11,248,290,20,250,60,144,58,109,115,133,192,203,247,93,179,288,55,153,173,15,214,234,177,168,52,40,169,272,259,64,270,141,142,164,106,13,242,95,10,101,71,21,291,85,107,42,268,80,105,110,238,237,289,222,84,165,293,166,90,35,46,18,88,128,17,207,277,226,31,56,127,274,129,255,99,261,218,132,9,262,117,286,97,45,0,215,65,243,59,147,23,3,124,212,254,43,200,91,156,240,294,87,122,138,174,273,246,7,256,217,257,26,121,152,103,72,176,78,191,29,148,114,49,118,267,241,44,276,271,76,73,223,161,116]","arrowleft","true","0","0","90","300","[""0054_N0300_K0090_CLIQUE"",""0086_N0300_K0090_NOCLIQUE""]"
"","","","","","","","","","","","audio-keyboard-response","52","46573","0.0-52.0-0.0-1.0","","","","","","","","null","audio_feedback/right/coin01.mp3","null","","","","0","0","90","300","[""0054_N0300_K0090_CLIQUE"",""0086_N0300_K0090_NOCLIQUE""]"
"","","","","","","","","","","","canvas-keyboard-response","53","48001","0.0-53.0-0.0-0.0","","","","","","","","1370","","arrowleft","[166,15,155,108,120,88,19,223,185,106,129,150,146,116,66,253,178,276,1,230,285,45,67,224,203,80,291,201,194,142,149,14,161,78,279,104,286,44,231,53,233,191,50,110,275,181,186,73,204,269,153,71,180,200,7,140,193,5,152,117,46,242,227,125,288,121,170,254,10,135,287,234,119,245,208,41,17,77,182,95,265,143,154,89,215,252,195,76,62,75,257,241,219,283,192,22,57,3,218,111,244,92,49,84,0,113,132,171,37,260,107,278,8,34,124,169,292,268,206,197,131,97,91,251,239,160,29,243,52,266,237,216,147,69,212,54,238,115,109,144,168,35,261,4,163,70,267,255,207,183,100,90,79,40,82,68,28,221,138,240,112,86,262,179,11,228,298,225,198,151,167,289,23,114,165,159,25,87,187,130,202,133,232,74,246,226,176,148,174,39,277,172,20,273,175,12,33,296,272,58,173,98,299,6,264,259,93,235,83,102,61,294,293,59,137,18,217,48,56,184,177,164,127,145,47,128,222,229,63,213,43,199,247,157,123,256,297,101,55,141,282,85,24,122,248,36,189,258,42,13,210,64,94,81,134,31,96,32,65,139,2,270,295,26,60,105,271,21,9,263,51,196,156,103,162,281,211,136,190,188,158,249,72,126,205,250,38,118,236,284,30,27,209,214,220,99,290,16,280,274]","arrowleft","true","0","1","90","300","[""0051_N0300_K0090_CLIQUE"",""0084_N0300_K0090_NOCLIQUE""]"
"","","","","","","","","","","","audio-keyboard-response","54","49034","0.0-53.0-0.0-1.0","","","","","","","","null","audio_feedback/right/coin01.mp3","null","","","","0","1","90","300","[""0051_N0300_K0090_CLIQUE"",""0084_N0300_K0090_NOCLIQUE""]"
"","","","","","","","","","","","canvas-keyboard-response","55","50049","0.0-54.0-0.0-0.0","","","","","","","","942","","arrowleft","[6,181,214,61,151,131,173,263,200,252,290,273,103,26,220,241,182,25,56,126,67,176,258,63,36,261,89,22,118,280,97,191,64,201,257,41,124,195,162,66,299,217,193,155,137,129,10,262,207,233,88,270,52,172,136,282,163,76,143,70,294,287,50,7,213,283,289,293,286,59,267,211,107,106,78,82,75,281,157,38,119,94,135,154,101,69,156,55,169,14,298,93,184,5,223,4,85,35,175,198,226,142,146,45,254,166,80,204,20,49,185,170,112,86,99,115,13,221,102,183,109,33,171,123,224,31,72,134,218,65,46,51,190,44,228,288,247,178,158,248,192,9,295,90,74,297,266,271,206,132,153,128,108,219,242,8,268,291,104,28,87,210,100,16,292,168,161,251,11,234,12,73,17,68,189,227,42,159,71,77,130,272,256,0,54,15,236,34,111,197,140,265,19,165,167,21,98,110,225,160,255,105,1,276,117,230,81,244,40,238,43,149,199,279,260,249,60,179,24,278,253,53,114,62,133,113,29,144,37,275,188,177,141,239,246,27,186,284,215,259,47,240,58,274,150,32,145,237,208,205,216,147,79,264,202,3,121,148,2,92,39,84,95,187,120,57,96,152,203,232,180,139,164,243,196,122,285,23,194,127,125,222,48,250,229,231,30,269,296,116,209,174,245,18,138,235,277,212,83,91]","arrowleft","true","0","2","80","300","[""0025_N0300_K0080_CLIQUE"",""0035_N0300_K0080_NOCLIQUE""]"
"","","","","","","","","","","","audio-keyboard-response","56","51033","0.0-54.0-0.0-1.0","","","","","","","","null","audio_feedback/right/coin01.mp3","null","","","","0","2","80","300","[""0025_N0300_K0080_CLIQUE"",""0035_N0300_K0080_NOCLIQUE""]"
"","","","","","","","","","","","canvas-keyboard-response","57","51554","0.0-55.0-0.0-0.0","","","","","","","","454","","arrowleft","[22,292,50,137,94,161,114,0,99,216,87,108,102,54,148,123,35,16,4,104,293,219,95,270,258,48,5,60,197,55,173,142,176,255,201,213,131,85,166,253,80,239,73,246,281,68,261,212,18,205,233,286,178,285,118,204,279,20,245,237,230,90,26,208,77,190,290,271,193,93,199,86,179,70,101,267,172,57,21,288,113,266,240,242,72,96,297,223,168,83,284,250,19,210,154,198,264,144,188,52,214,274,32,92,256,196,236,249,276,243,289,45,158,295,49,132,3,226,299,145,277,251,259,273,130,156,2,136,125,44,192,238,247,215,105,107,268,146,134,252,39,164,10,76,62,128,116,79,82,138,227,63,244,298,140,64,228,149,106,75,31,287,282,225,147,24,58,167,283,155,37,40,177,195,97,187,71,17,191,232,218,8,163,186,98,275,61,260,41,111,206,28,51,47,296,220,224,78,117,209,263,103,1,67,36,13,254,84,152,91,194,33,109,7,203,169,6,69,180,248,175,100,181,265,207,126,235,115,184,241,59,81,174,74,143,171,23,56,229,291,34,121,150,11,257,278,122,234,189,14,38,30,129,153,222,231,124,269,294,182,202,280,127,211,135,65,185,12,25,133,120,15,160,157,159,151,183,89,53,162,112,46,170,217,262,110,29,43,27,119,200,165,139,42,221,9,272,88,66,141]","arrowright","false","0","3","80","300","[""0037_N0300_K0080_NOCLIQUE"",""0017_N0300_K0080_CLIQUE""]"
"","","","","","","","","","","","audio-keyboard-response","58","52592","0.0-55.0-0.0-1.0","","","","","","","","null","audio_feedback/wrong/error01.mp3","null","","","","0","3","80","300","[""0037_N0300_K0080_NOCLIQUE"",""0017_N0300_K0080_CLIQUE""]"
"","","","","","","","","","","","canvas-keyboard-response","59","53282","0.0-56.0-0.0-0.0","","","","","","","","625","","arrowleft","[176,64,298,292,67,57,188,285,296,157,240,110,35,272,184,50,124,173,249,79,98,29,117,199,1,205,203,113,237,5,31,135,191,127,241,196,81,17,59,106,3,252,212,61,2,187,14,202,264,26,19,291,218,33,192,220,219,85,46,286,11,48,6,287,143,119,158,138,193,238,149,226,266,43,265,224,7,270,52,213,225,77,104,144,86,96,13,255,10,71,75,129,94,170,178,40,208,58,152,114,217,230,282,83,141,299,16,28,41,131,229,91,134,233,275,24,244,22,258,171,49,236,8,84,145,62,183,30,268,100,125,274,142,160,206,123,76,112,120,38,97,185,165,115,60,109,231,108,153,89,288,90,73,289,55,88,122,99,161,128,154,251,25,277,194,95,92,209,68,181,174,235,279,164,82,247,21,215,78,133,39,167,263,250,72,151,148,198,34,166,111,179,259,45,4,243,295,210,32,200,294,180,271,15,93,140,269,182,42,156,101,214,74,80,37,44,130,223,103,23,234,280,150,54,260,246,283,126,139,63,222,257,168,261,159,18,273,118,239,227,20,186,256,107,163,36,0,254,190,276,278,245,201,132,169,116,197,262,284,27,66,221,147,155,137,195,87,216,121,56,293,290,267,12,207,53,253,102,70,242,281,47,65,175,204,177,69,248,9,232,189,105,297,211,51,146,162,172,228,136]","arrowleft","true","0","4","70","300","[""0023_N0300_K0070_CLIQUE"",""0043_N0300_K0070_NOCLIQUE""]"
"","","","","","","","","","","","audio-keyboard-response","60","54273","0.0-56.0-0.0-1.0","","","","","","","","null","audio_feedback/right/coin01.mp3","null","","","","0","4","70","300","[""0023_N0300_K0070_CLIQUE"",""0043_N0300_K0070_NOCLIQUE""]"
"","","","","","","","","","","","canvas-keyboard-response","61","58099","0.0-57.0-0.0-0.0","","","","","","","","3763","","arrowright","[54,52,268,19,171,182,203,213,278,110,261,224,163,62,259,176,27,192,42,284,292,148,120,99,0,238,229,279,139,97,95,89,244,146,69,159,158,26,263,108,126,9,260,215,49,12,67,216,8,190,235,197,43,50,202,14,102,166,147,172,137,106,36,256,169,265,269,183,75,18,60,64,48,78,112,195,236,24,138,161,221,254,251,186,241,119,117,262,83,23,219,109,189,57,253,267,288,153,205,123,32,82,293,294,71,191,227,287,210,285,196,247,55,212,275,209,44,79,141,2,175,228,25,22,160,77,290,125,122,4,180,266,178,40,156,206,179,16,234,164,116,74,35,30,63,242,51,85,168,225,114,165,200,115,157,132,199,201,149,170,198,271,167,211,177,134,143,208,220,286,113,282,65,1,28,72,88,94,274,270,11,218,174,299,129,188,3,152,121,66,144,76,31,46,295,154,107,142,280,223,128,252,86,96,231,10,264,207,243,93,34,226,47,45,298,80,249,91,277,273,101,193,58,100,21,20,81,250,53,56,297,13,283,103,38,194,29,118,7,237,296,240,6,68,37,246,59,245,73,291,248,272,184,127,136,276,124,130,105,84,232,217,204,98,133,140,39,15,41,162,214,92,61,258,87,281,239,33,185,90,230,17,257,173,155,181,255,222,289,104,233,70,131,111,145,150,135,187,151,5]","arrowright","true","0","5","70","300","[""0030_N0300_K0070_NOCLIQUE"",""0056_N0300_K0070_CLIQUE""]"
"","","","","","","","","","","","audio-keyboard-response","62","59133","0.0-57.0-0.0-1.0","","","","","","","","null","audio_feedback/right/coin01.mp3","null","","","","0","5","70","300","[""0030_N0300_K0070_NOCLIQUE"",""0056_N0300_K0070_CLIQUE""]"
"","","","","","","","","","","","canvas-keyboard-response","63","59953","0.0-58.0-0.0-0.0","","","","","","","","730","","arrowright","[280,216,86,37,83,222,172,0,217,23,249,267,225,164,282,116,143,125,190,215,297,123,245,5,188,208,91,170,127,57,118,240,61,153,107,98,227,87,204,77,243,185,272,54,270,102,165,42,81,138,69,43,169,258,173,111,228,55,9,236,97,59,104,181,20,206,149,19,194,40,290,112,199,224,120,34,58,67,211,85,80,1,63,242,251,202,101,108,233,166,103,100,157,177,29,150,4,167,2,162,66,274,35,117,221,264,226,110,31,256,254,132,191,30,275,17,33,134,26,184,229,203,248,193,287,89,160,62,27,79,292,156,196,214,192,182,238,263,8,53,183,45,247,231,294,50,84,198,21,25,259,260,14,121,176,131,99,52,78,140,113,41,186,60,273,72,11,218,276,18,144,255,171,82,174,200,158,180,266,239,15,179,288,92,49,293,189,281,133,235,278,96,12,145,265,296,283,261,220,277,271,38,119,135,148,88,178,246,13,93,289,161,141,128,232,146,269,284,279,129,115,151,94,36,6,65,223,73,71,175,24,124,286,16,7,298,137,237,105,187,268,130,299,90,154,241,159,219,48,28,257,213,205,250,51,126,234,64,22,152,95,155,168,212,207,56,32,142,114,44,10,291,147,70,163,74,244,197,253,68,122,295,139,39,195,230,75,109,106,252,262,285,201,76,210,46,209,3,136,47]","arrowright","true","0","6","65","300","[""0053_N0300_K0065_NOCLIQUE"",""0078_N0300_K0065_CLIQUE""]"
"","","","","","","","","","","","audio-keyboard-response","64","60953","0.0-58.0-0.0-1.0","","","","","","","","null","audio_feedback/right/coin01.mp3","null","","","","0","6","65","300","[""0053_N0300_K0065_NOCLIQUE"",""0078_N0300_K0065_CLIQUE""]"
"","","","","","","","","","","","canvas-keyboard-response","65","61538","0.0-59.0-0.0-0.0","","","","","","","","507","","arrowleft","[277,257,279,253,192,182,70,95,194,59,99,28,173,43,114,111,76,77,227,24,117,137,15,57,136,254,36,247,30,46,29,282,262,107,179,127,161,69,152,68,273,271,278,196,160,25,243,184,275,94,285,168,220,264,223,130,206,158,255,289,122,231,96,101,167,17,234,116,246,37,89,145,47,290,208,51,23,238,272,105,276,134,88,178,61,40,67,109,261,222,209,205,62,38,199,214,6,288,235,170,131,204,41,14,153,149,193,263,16,175,21,274,93,118,203,216,291,164,34,9,144,60,42,84,86,294,295,39,281,100,45,265,218,55,128,154,8,211,133,151,0,176,157,12,286,141,74,181,228,259,212,52,4,251,140,65,210,242,215,292,198,299,293,241,73,3,148,108,260,2,233,98,197,91,20,226,138,50,66,177,139,287,169,219,248,33,1,225,85,240,115,83,132,97,191,267,104,266,195,245,31,126,174,180,79,75,166,113,120,249,124,190,147,230,129,54,207,297,283,143,284,201,213,81,26,224,172,119,103,11,159,200,27,150,155,5,187,22,268,44,156,232,56,269,106,202,13,183,123,90,64,142,239,189,63,270,72,121,258,185,280,296,58,7,18,110,188,92,237,49,186,87,102,80,162,48,135,229,163,71,244,112,125,78,146,256,35,252,236,82,171,53,250,19,165,298,221,217,32,10]","arrowleft","true","0","7","65","300","[""0011_N0300_K0065_CLIQUE"",""0016_N0300_K0065_NOCLIQUE""]"
"","","","","","","","","","","","audio-keyboard-response","66","62533","0.0-59.0-0.0-1.0","","","","","","","","null","audio_feedback/right/coin01.mp3","null","","","","0","7","65","300","[""0011_N0300_K0065_CLIQUE"",""0016_N0300_K0065_NOCLIQUE""]"
"","","","","","","","","","","","canvas-keyboard-response","67","63170","0.0-60.0-0.0-0.0","","","","","","","","575","","arrowright","[103,292,19,219,239,276,25,169,73,28,161,106,121,240,66,75,252,127,190,261,86,262,110,62,278,27,129,145,107,146,241,231,220,285,264,170,108,256,57,298,162,118,182,91,80,197,56,105,242,5,148,236,211,79,223,37,134,39,147,52,291,68,40,173,154,157,217,2,93,43,76,164,116,98,181,32,248,15,30,228,138,283,183,247,199,119,194,196,237,234,12,213,65,255,51,195,100,38,156,31,141,272,153,251,290,226,9,269,131,10,72,192,49,299,208,7,295,265,297,171,94,29,71,115,11,122,174,177,165,270,205,186,259,58,254,245,189,55,77,209,46,44,142,215,135,101,238,45,99,296,69,18,233,227,61,293,89,20,144,78,137,203,166,275,53,281,95,249,202,268,133,167,120,216,87,273,206,81,82,152,102,136,221,172,1,187,13,124,207,36,155,140,151,258,24,294,176,64,212,266,130,163,88,4,14,193,54,67,74,284,243,185,246,70,41,117,47,214,83,60,143,279,50,159,230,85,260,8,84,287,289,128,96,235,111,149,23,123,175,33,0,178,257,132,288,150,97,218,114,198,224,263,282,3,90,126,125,232,225,280,59,188,204,286,109,210,160,104,274,139,113,191,168,92,26,250,63,21,180,48,229,112,267,16,158,35,22,17,179,6,34,277,42,201,184,200,271,253,244,222]","arrowleft","false","0","8","60","300","[""0041_N0300_K0060_CLIQUE"",""0032_N0300_K0060_NOCLIQUE""]"
"","","","","","","","","","","","audio-keyboard-response","68","64173","0.0-60.0-0.0-1.0","","","","","","","","null","audio_feedback/wrong/error01.mp3","null","","","","0","8","60","300","[""0041_N0300_K0060_CLIQUE"",""0032_N0300_K0060_NOCLIQUE""]"
"","","","","","","","","","","","canvas-keyboard-response","69","64930","0.0-61.0-0.0-0.0","","","","","","","","690","","arrowright","[27,126,44,134,130,99,102,0,135,201,103,180,59,147,43,233,192,17,297,105,137,185,258,172,65,238,285,88,97,85,225,108,286,173,76,206,132,230,186,232,143,207,94,64,178,124,133,182,39,55,210,107,208,284,296,166,86,199,271,203,179,189,193,256,298,81,282,26,231,117,155,58,188,204,136,260,35,18,80,77,131,265,212,109,127,211,16,215,257,235,259,281,280,263,37,45,24,51,152,242,293,168,40,23,104,261,9,74,5,12,3,31,156,159,25,36,223,275,294,272,115,98,247,148,273,75,267,116,237,70,28,42,114,151,269,95,254,11,245,53,56,150,93,15,6,52,214,61,234,221,79,158,2,92,295,264,278,287,113,101,163,146,4,171,73,14,139,149,22,181,277,71,229,57,194,54,160,128,138,216,289,144,100,34,252,68,8,111,49,41,183,153,205,228,255,209,106,240,66,239,283,47,161,219,48,19,227,292,142,112,119,170,167,140,82,187,291,202,224,10,125,67,50,21,279,157,246,78,87,29,60,175,141,154,91,32,164,200,89,38,236,249,69,72,266,217,165,243,248,218,274,118,63,90,30,288,174,226,1,220,250,253,299,191,196,184,251,198,120,7,121,195,197,123,62,145,110,169,213,122,276,270,13,129,20,46,241,190,162,33,84,244,222,176,177,290,83,96,262,268]","arrowright","true","0","9","60","300","[""0013_N0300_K0060_NOCLIQUE"",""0015_N0300_K0060_CLIQUE""]"
"","","","","","","","","","","","audio-keyboard-response","70","65933","0.0-61.0-0.0-1.0","","","","","","","","null","audio_feedback/right/coin01.mp3","null","","","","0","9","60","300","[""0013_N0300_K0060_NOCLIQUE"",""0015_N0300_K0060_CLIQUE""]"
"","","","","","","","","","","","canvas-keyboard-response","71","66320","0.0-62.0-0.0-0.0","","","","","","","","328","","arrowleft","[125,167,252,268,278,44,14,43,121,161,243,9,22,119,4,2,93,115,181,280,95,90,265,283,228,224,46,49,141,186,182,62,247,293,254,25,177,97,155,165,64,8,175,184,193,54,289,42,127,107,298,166,282,13,248,128,55,140,78,195,30,194,211,264,214,89,108,269,129,6,233,100,209,70,173,202,295,67,212,113,241,117,199,197,143,222,7,23,227,51,157,267,144,109,291,160,71,178,164,52,118,152,101,272,26,35,12,79,3,275,85,27,122,238,163,285,234,130,45,15,82,73,153,179,172,37,96,188,205,253,216,288,174,183,39,226,148,208,235,50,156,146,40,21,200,231,102,41,150,112,266,0,48,80,19,32,16,75,213,259,245,198,281,154,192,74,236,218,29,261,151,258,135,132,232,191,246,168,217,255,69,105,242,87,24,123,262,116,196,17,171,204,185,225,110,251,256,297,138,221,68,142,286,47,131,120,299,210,149,189,56,98,88,274,10,1,237,230,38,287,99,159,104,263,106,28,20,81,206,137,58,86,257,170,34,57,277,158,134,239,91,201,219,244,223,292,296,187,250,279,162,83,240,31,60,36,215,139,190,18,271,180,229,5,72,169,207,33,203,65,220,249,294,61,126,76,145,114,176,66,94,124,77,111,270,11,92,136,63,59,276,84,273,284,290,260,133,147,103,53]","arrowright","false","0","10","55","300","[""0005_N0300_K0055_NOCLIQUE"",""0023_N0300_K0055_CLIQUE""]"
"","","","","","","","","","","","audio-keyboard-response","72","67314","0.0-62.0-0.0-1.0","","","","","","","","null","audio_feedback/wrong/error01.mp3","null","","","","0","10","55","300","[""0005_N0300_K0055_NOCLIQUE"",""0023_N0300_K0055_CLIQUE""]"
"","","","","","","","","","","","canvas-keyboard-response","73","67716","0.0-63.0-0.0-0.0","","","","","","","","348","","arrowright","[150,208,61,51,37,160,257,45,135,132,228,157,6,262,47,74,209,16,139,2,62,202,184,177,180,127,221,167,224,114,28,236,265,291,277,52,36,197,187,281,94,258,128,70,1,104,194,186,25,269,233,299,93,173,57,67,12,155,48,60,164,293,123,42,69,87,259,13,282,231,112,212,170,102,207,267,40,59,247,185,43,190,238,9,196,55,266,255,96,117,240,145,250,143,88,284,234,264,3,178,227,242,5,33,229,260,171,122,275,295,161,54,8,181,213,241,193,103,115,99,270,89,147,108,121,168,204,248,79,219,91,176,75,156,44,4,210,23,26,217,110,53,140,138,125,72,235,86,162,71,107,105,20,223,243,252,198,200,254,220,81,78,66,30,137,179,169,246,287,10,119,58,239,17,41,296,18,237,118,126,153,83,211,165,111,136,133,116,142,106,297,289,263,192,286,174,50,288,151,249,222,203,268,261,130,68,97,230,191,95,98,82,109,49,100,7,298,280,34,272,256,35,11,166,279,63,172,218,285,195,271,201,152,158,14,175,24,56,251,92,0,21,77,76,274,163,32,15,134,29,278,216,27,73,215,245,141,154,31,253,124,199,188,101,38,144,206,39,283,183,113,84,273,80,90,22,226,182,294,232,85,205,244,276,131,120,129,19,64,65,225,46,189,290,146,159,214,149,292,148]","arrowleft","false","0","11","55","300","[""0047_N0300_K0055_CLIQUE"",""0063_N0300_K0055_NOCLIQUE""]"
"","","","","","","","","","","","audio-keyboard-response","74","68713","0.0-63.0-0.0-1.0","","","","","","","","null","audio_feedback/wrong/error01.mp3","null","","","","0","11","55","300","[""0047_N0300_K0055_CLIQUE"",""0063_N0300_K0055_NOCLIQUE""]"
"","","","","","","","","","","","canvas-keyboard-response","75","68865","0.0-64.0-0.0-0.0","","","","","","","","81","","arrowleft","[37,100,269,140,251,238,252,38,219,248,128,280,46,132,299,185,243,206,44,265,205,285,60,16,149,277,32,131,123,230,59,201,257,155,141,56,207,116,30,227,97,152,118,112,288,76,110,192,114,3,210,34,184,175,267,212,162,167,296,160,70,42,26,25,105,187,2,264,239,75,63,278,232,14,249,293,266,250,80,204,57,276,79,125,261,231,8,94,211,174,134,234,246,168,27,23,289,292,4,130,24,109,179,65,0,283,9,33,62,95,108,228,81,156,169,203,183,217,235,5,143,49,35,294,297,10,13,221,208,7,197,85,133,124,245,82,111,193,163,67,272,52,29,240,224,279,298,51,87,142,50,43,256,225,144,151,154,48,101,282,20,40,275,39,28,15,242,281,186,64,171,263,190,11,213,200,77,47,255,17,104,270,74,291,223,150,115,72,290,254,145,53,216,84,55,58,99,189,22,199,136,1,180,233,12,96,188,126,157,271,244,36,258,54,146,215,194,69,198,262,148,119,159,176,286,214,237,137,241,129,21,86,135,153,73,209,91,147,166,71,218,41,158,191,220,66,164,106,90,295,287,61,6,247,178,268,78,253,202,18,92,98,226,222,89,236,102,260,113,88,259,107,68,127,139,19,138,161,196,195,274,229,172,120,170,284,93,273,117,173,122,121,181,182,103,165,45,177,83,31]","arrowleft","true","0","12","50","300","[""0053_N0300_K0050_CLIQUE"",""0056_N0300_K0050_NOCLIQUE""]"
"","","","","","","","","","","","audio-keyboard-response","76","69853","0.0-64.0-0.0-1.0","","","","","","","","null","audio_feedback/right/coin01.mp3","null","","","","0","12","50","300","[""0053_N0300_K0050_CLIQUE"",""0056_N0300_K0050_NOCLIQUE""]"
"","","","","","","","","","","","canvas-keyboard-response","77","70178","0.0-65.0-0.0-0.0","","","","","","","","258","","arrowright","[186,116,60,30,83,93,294,15,267,26,163,50,172,230,168,130,171,17,33,175,261,64,195,47,44,176,253,18,242,180,109,226,58,110,100,208,142,240,236,293,31,43,19,0,201,212,257,104,32,2,161,111,118,78,287,189,103,254,90,70,137,9,292,191,200,80,277,288,245,224,231,291,262,65,138,179,1,239,223,295,290,148,71,209,284,112,150,119,11,151,147,273,263,79,22,187,266,210,259,256,74,158,299,6,246,7,178,62,61,28,69,12,235,220,192,125,280,183,281,270,13,52,88,271,204,174,232,113,154,157,233,40,75,216,162,5,134,159,185,153,146,139,260,181,252,140,275,297,274,152,16,34,42,276,68,217,124,99,81,3,258,98,123,136,247,131,243,196,169,102,87,89,35,173,222,164,84,203,20,39,238,228,214,177,166,206,219,55,193,155,264,285,170,268,105,76,251,188,126,272,95,72,41,269,165,107,160,14,82,145,190,194,85,66,10,122,205,25,21,29,278,27,227,59,167,229,73,249,128,121,108,8,106,241,141,199,86,225,57,215,56,77,237,218,51,234,244,197,213,96,286,48,143,94,132,250,115,92,135,53,54,184,289,24,149,36,279,23,91,298,127,207,67,114,198,248,133,46,202,120,283,101,282,97,296,221,38,37,144,49,129,156,255,4,45,182,63,117,265,211]","arrowleft","false","0","13","50","300","[""0087_N0300_K0050_CLIQUE"",""0074_N0300_K0050_NOCLIQUE""]"
"","","","","","","","","","","","audio-keyboard-response","78","71173","0.0-65.0-0.0-1.0","","","","","","","","null","audio_feedback/wrong/error01.mp3","null","","","","0","13","50","300","[""0087_N0300_K0050_CLIQUE"",""0074_N0300_K0050_NOCLIQUE""]"
"","","","","","","","","","","","canvas-keyboard-response","79","71344","0.0-66.0-0.0-0.0","","","","","","","","101","","arrowright","[173,204,20,42,290,200,212,283,63,150,29,279,59,109,60,127,153,234,210,216,253,7,195,202,254,148,151,227,264,156,258,281,180,280,261,161,93,217,97,273,78,137,123,139,162,53,232,178,99,14,79,222,117,6,284,286,285,90,28,94,299,192,240,75,260,84,26,245,270,224,1,55,188,221,250,163,289,36,46,177,242,229,10,157,113,39,2,259,295,266,205,31,76,249,33,265,134,136,112,35,185,114,69,5,106,211,267,116,11,64,12,169,145,184,50,291,191,105,49,72,223,125,32,95,92,246,122,82,154,102,226,230,297,164,238,247,251,159,201,108,8,45,56,67,44,61,65,206,68,142,27,199,98,37,293,248,70,196,268,86,296,220,115,34,174,288,129,128,41,141,38,160,235,274,43,219,194,13,214,25,81,132,213,62,243,244,256,51,101,22,100,225,140,190,30,255,193,15,130,233,54,9,292,228,147,131,144,85,287,168,138,198,231,182,272,52,121,89,298,104,74,40,236,23,57,143,21,277,0,152,91,176,282,96,215,175,19,167,294,88,208,3,186,181,73,4,275,155,166,18,276,120,126,135,118,24,189,111,183,170,124,271,47,241,58,237,87,66,179,103,48,77,278,71,207,171,269,239,107,209,252,262,83,257,119,149,80,133,110,158,17,197,172,218,165,263,146,203,187,16]","arrowright","true","0","14","45","300","[""0095_N0300_K0045_NOCLIQUE"",""0053_N0300_K0045_CLIQUE""]"
"","","","","","","","","","","","audio-keyboard-response","80","72332","0.0-66.0-0.0-1.0","","","","","","","","null","audio_feedback/right/coin01.mp3","null","","","","0","14","45","300","[""0095_N0300_K0045_NOCLIQUE"",""0053_N0300_K0045_CLIQUE""]"
"","","","","","","","","","","","canvas-keyboard-response","81","72675","0.0-67.0-0.0-0.0","","","","","","","","282","","arrowleft","[52,63,269,255,118,126,27,13,154,251,45,234,235,107,233,192,282,72,191,200,88,279,150,201,166,117,262,169,40,70,128,216,265,47,212,232,56,5,248,87,261,149,124,163,0,186,278,148,139,142,78,116,274,85,8,28,110,183,243,275,229,290,247,43,252,51,132,257,73,245,53,221,147,108,259,172,81,250,194,190,165,17,97,100,64,206,111,29,193,69,299,74,180,231,296,211,230,217,242,133,7,157,189,105,19,213,34,174,93,181,76,168,295,91,3,289,37,84,254,66,138,210,199,140,106,33,92,101,236,225,205,273,86,121,58,26,220,288,21,50,25,114,253,158,159,39,83,2,89,31,286,177,103,15,227,131,57,65,11,196,55,42,6,277,109,49,112,20,271,96,268,94,67,239,284,281,258,113,272,208,228,219,173,41,237,16,264,99,160,204,270,287,184,187,263,22,146,280,125,68,223,144,80,283,135,130,79,35,202,297,179,218,61,23,293,256,260,82,276,238,102,153,14,185,24,195,294,266,54,9,170,141,115,182,48,224,161,207,175,171,267,162,214,198,176,285,71,164,203,120,59,244,291,134,188,12,240,226,123,215,152,155,145,18,75,178,143,129,60,77,95,98,209,46,249,127,104,1,292,167,151,30,137,4,136,241,156,222,90,119,38,44,246,32,62,10,36,298,197,122]","arrowleft","true","0","15","45","300","[""0054_N0300_K0045_CLIQUE"",""0019_N0300_K0045_NOCLIQUE""]"
"","","","","","","","","","","","audio-keyboard-response","82","73674","0.0-67.0-0.0-1.0","","","","","","","","null","audio_feedback/right/coin01.mp3","null","","","","0","15","45","300","[""0054_N0300_K0045_CLIQUE"",""0019_N0300_K0045_NOCLIQUE""]"
"","","","","","","","","","","","canvas-keyboard-response","83","73857","0.0-68.0-0.0-0.0","","","","","","","","130","","arrowright","[180,213,244,160,260,252,288,289,195,91,61,56,184,190,203,227,62,74,224,128,231,228,183,220,159,294,219,135,98,99,55,9,269,18,230,54,240,113,147,174,232,95,211,270,6,96,57,218,229,179,24,207,84,141,239,265,124,188,13,235,266,238,176,48,165,251,236,115,215,67,202,277,298,75,3,225,86,152,8,287,41,271,59,140,280,187,149,282,64,110,35,85,273,197,15,101,196,296,17,25,93,194,39,199,79,284,105,11,125,14,90,66,156,139,150,20,193,212,295,29,185,81,223,189,170,209,134,248,283,137,22,40,102,109,78,241,208,131,71,275,286,259,127,53,36,42,250,70,73,237,0,146,285,111,226,278,47,173,143,5,171,106,249,118,100,210,104,38,201,133,94,264,299,130,268,82,145,151,281,155,233,168,246,157,214,77,261,186,158,108,144,132,191,204,166,262,50,89,21,276,7,97,167,76,153,32,34,234,129,142,177,181,182,205,112,119,123,164,26,4,198,178,122,1,12,116,136,31,200,253,33,23,272,293,256,297,255,274,45,114,254,263,43,126,46,257,69,88,63,10,51,83,37,107,290,52,80,120,68,27,60,162,267,221,216,245,30,2,163,87,175,222,247,154,121,103,291,206,28,192,65,16,148,217,44,58,161,92,138,243,72,49,292,279,172,117,169,258,19,242]","arrowright","true","0","16","40","300","[""0022_N0300_K0040_NOCLIQUE"",""0043_N0300_K0040_CLIQUE""]"
"","","","","","","","","","","","audio-keyboard-response","84","74853","0.0-68.0-0.0-1.0","","","","","","","","null","audio_feedback/right/coin01.mp3","null","","","","0","16","40","300","[""0022_N0300_K0040_NOCLIQUE"",""0043_N0300_K0040_CLIQUE""]"
"","","","","","","","","","","","canvas-keyboard-response","85","75041","0.0-69.0-0.0-0.0","","","","","","","","114","","arrowleft","[254,107,125,176,253,293,47,92,220,201,5,227,248,236,37,269,190,272,204,198,104,87,60,194,16,271,244,2,292,166,297,138,167,294,83,249,113,205,75,250,291,67,145,187,219,14,118,224,238,211,186,251,55,174,230,3,136,223,32,285,100,184,153,202,273,30,105,270,195,12,280,229,57,10,163,265,144,192,262,152,130,7,239,245,22,258,101,90,156,263,110,133,246,266,54,286,117,19,242,58,226,241,6,63,52,98,28,122,222,140,257,178,44,108,185,170,20,288,150,161,102,177,276,240,225,48,274,237,42,165,215,295,299,109,50,114,65,95,131,181,172,62,40,45,206,97,51,0,261,36,111,207,231,74,123,267,34,209,1,43,68,278,191,264,216,78,120,147,129,49,287,168,134,228,26,15,157,127,76,208,99,298,18,234,29,116,73,159,124,275,79,179,119,77,139,260,189,96,84,21,199,4,33,235,284,135,143,282,281,13,142,66,296,88,72,232,221,151,25,196,137,23,82,162,183,175,35,252,182,197,56,64,146,203,141,277,289,70,128,91,169,283,11,200,259,173,71,158,268,39,193,86,89,103,121,218,93,213,148,27,154,61,126,247,132,212,17,256,217,94,46,81,69,59,106,85,8,290,24,112,9,164,180,243,188,38,279,31,149,233,41,210,160,255,171,115,53,80,155,214]","arrowleft","true","0","17","40","300","[""0022_N0300_K0040_CLIQUE"",""0036_N0300_K0040_NOCLIQUE""]"
"","","","","","","","","","","","audio-keyboard-response","86","76034","0.0-69.0-0.0-1.0","","","","","","","","null","audio_feedback/right/coin01.mp3","null","","","","0","17","40","300","[""0022_N0300_K0040_CLIQUE"",""0036_N0300_K0040_NOCLIQUE""]"
"","","","","","","","","","","","canvas-keyboard-response","87","76289","0.0-70.0-0.0-0.0","","","","","","","","184","","arrowright","[156,51,175,134,245,16,196,253,265,222,199,66,281,231,24,144,97,228,36,282,14,20,268,197,101,150,218,243,117,143,96,35,43,28,289,111,259,141,159,296,183,10,129,261,83,151,262,60,242,12,86,173,172,238,50,45,260,275,190,177,74,180,87,133,91,290,19,18,61,104,32,44,147,93,189,94,176,114,109,136,283,5,46,166,63,230,112,15,140,152,209,31,164,288,299,26,188,198,192,64,77,171,89,98,120,294,130,165,182,149,79,118,110,155,186,204,115,273,220,1,41,271,85,2,160,7,246,286,293,137,284,38,142,80,251,146,138,23,65,239,69,248,179,280,225,201,73,22,127,81,203,154,170,59,27,58,213,178,8,270,37,224,56,102,92,297,298,25,174,195,237,217,267,278,57,223,100,78,219,122,6,158,235,95,33,292,216,42,211,276,128,67,11,4,157,202,193,244,214,52,76,249,264,191,72,82,233,49,162,84,255,258,123,241,161,266,184,168,47,205,29,62,119,40,106,107,200,48,194,21,108,105,257,75,103,116,53,236,285,125,221,169,54,113,9,68,13,121,226,206,163,131,250,99,187,252,240,254,207,153,181,148,295,227,132,70,210,3,279,39,263,126,291,272,269,185,277,256,145,71,90,167,247,287,208,0,274,30,215,139,232,212,34,17,124,229,55,88,234,135]","arrowleft","false","0","18","35","300","[""0024_N0300_K0035_CLIQUE"",""0078_N0300_K0035_NOCLIQUE""]"
"","","","","","","","","","","","audio-keyboard-response","88","77294","0.0-70.0-0.0-1.0","","","","","","","","null","audio_feedback/wrong/error01.mp3","null","","","","0","18","35","300","[""0024_N0300_K0035_CLIQUE"",""0078_N0300_K0035_NOCLIQUE""]"
"","","","","","","","","","","","canvas-keyboard-response","89","77658","0.0-71.0-0.0-0.0","","","","","","","","277","","arrowright","[151,157,124,10,200,79,189,7,1,297,125,213,42,122,75,22,218,287,196,82,110,211,158,115,16,230,279,261,155,15,272,101,201,0,164,159,169,114,180,41,238,290,256,113,62,232,88,143,216,212,119,147,190,139,198,128,194,13,140,50,121,195,165,105,34,96,29,285,244,53,197,203,260,127,33,118,9,63,182,235,92,288,294,44,77,141,69,5,259,47,192,162,26,187,126,296,35,94,45,183,89,93,240,32,156,71,59,43,103,133,38,40,271,51,237,249,267,167,174,202,298,97,188,210,146,90,123,76,291,239,168,66,80,111,229,58,166,278,250,100,284,270,14,295,31,231,292,117,193,68,214,204,228,85,116,215,220,242,48,286,18,255,21,265,86,226,173,84,144,6,170,161,25,91,136,247,20,95,145,293,234,163,17,206,102,23,254,112,70,252,186,72,245,171,176,8,135,222,109,99,129,207,236,289,74,246,153,108,83,179,134,36,280,120,282,73,181,78,277,178,258,199,154,274,243,184,224,37,175,152,104,227,12,65,233,257,11,185,132,55,61,225,299,217,131,54,283,49,57,253,269,268,27,39,107,56,24,262,46,248,251,148,208,281,273,64,177,52,130,87,275,106,209,205,81,138,191,160,137,67,142,2,263,30,4,60,150,3,98,276,221,28,172,19,264,266,219,241,223,149]","arrowright","true","0","19","35","300","[""0037_N0300_K0035_NOCLIQUE"",""0005_N0300_K0035_CLIQUE""]"
"","","","","","","","","","","","audio-keyboard-response","90","78653","0.0-71.0-0.0-1.0","","","","","","","","null","audio_feedback/right/coin01.mp3","null","","","","0","19","35","300","[""0037_N0300_K0035_NOCLIQUE"",""0005_N0300_K0035_CLIQUE""]"
"","","","","","","","","","","","canvas-keyboard-response","91","78725","0.0-72.0-0.0-0.0","","","","","","","","1","","arrowleft","[274,48,138,164,187,159,171,22,52,2,186,295,140,237,111,203,137,62,279,160,174,292,161,47,268,194,28,130,96,198,294,68,257,7,234,27,110,91,45,115,155,239,264,281,246,169,296,93,266,258,79,17,157,143,72,156,44,11,126,213,23,224,117,53,119,57,176,1,286,251,199,144,113,184,128,84,132,170,241,114,260,211,92,282,148,104,37,64,142,247,208,90,118,154,89,66,293,185,141,88,54,214,97,255,197,272,273,222,109,235,175,289,209,38,165,56,181,191,61,13,276,205,40,218,212,107,178,58,150,291,225,200,15,195,116,192,227,242,5,243,277,158,240,206,180,173,182,193,122,249,49,232,278,95,297,69,67,263,236,288,207,50,78,219,284,18,221,229,166,172,151,153,147,261,152,298,19,112,8,121,135,59,20,81,262,123,25,14,210,189,103,42,149,99,16,245,253,9,230,77,41,87,233,217,256,70,231,100,29,267,46,98,82,179,73,145,26,125,86,252,31,124,269,55,283,238,133,216,228,226,120,275,196,204,101,201,270,106,36,105,146,21,254,32,43,33,215,271,265,6,35,129,248,134,244,285,30,202,250,76,63,177,167,280,190,71,287,65,139,34,299,3,94,220,290,4,85,60,51,127,259,83,163,168,162,102,131,75,10,188,24,183,223,108,39,0,74,80,12,136]","arrowleft","true","0","20","30","300","[""0029_N0300_K0030_CLIQUE"",""0082_N0300_K0030_NOCLIQUE""]"
"","","","","","","","","","","","audio-keyboard-response","92","79713","0.0-72.0-0.0-1.0","","","","","","","","null","audio_feedback/right/coin01.mp3","null","","","","0","20","30","300","[""0029_N0300_K0030_CLIQUE"",""0082_N0300_K0030_NOCLIQUE""]"
"","","","","","","","","","","","canvas-keyboard-response","93","80018","0.0-73.0-0.0-0.0","","","","","","","","215","","arrowright","[283,106,235,92,227,179,208,91,159,233,245,282,65,177,35,276,250,176,83,26,80,200,132,143,184,193,239,201,221,23,78,173,161,100,158,22,242,28,30,64,294,75,265,206,199,138,87,77,72,44,164,257,253,171,231,46,112,194,218,53,148,224,244,160,286,279,153,40,267,126,205,203,130,195,252,278,125,4,192,104,43,119,3,211,120,295,68,241,222,113,287,214,249,150,144,243,139,228,34,266,299,21,217,149,281,105,59,264,298,258,97,156,293,93,10,95,0,12,261,129,107,57,49,145,296,24,225,122,45,39,263,268,178,82,74,202,237,140,163,141,89,71,47,134,1,292,180,108,175,209,31,232,137,67,86,7,55,260,79,48,234,16,288,186,94,81,111,277,99,118,51,269,174,207,54,254,90,167,256,103,116,110,27,172,154,204,121,151,185,56,162,84,36,166,168,15,18,69,170,25,229,11,271,190,272,290,19,117,63,182,76,14,50,291,289,135,219,146,9,181,220,240,187,128,275,101,215,259,5,284,73,52,17,152,142,189,246,33,274,157,236,6,191,216,169,280,136,60,123,131,251,41,98,213,20,212,32,147,165,247,226,230,88,210,13,188,114,42,66,262,115,8,223,2,273,70,285,197,102,198,248,196,155,255,109,61,270,38,127,58,96,133,62,297,29,37,124,238,85,183]","arrowleft","false","0","21","30","300","[""0075_N0300_K0030_CLIQUE"",""0057_N0300_K0030_NOCLIQUE""]"
"","","","","","","","","","","","audio-keyboard-response","94","81014","0.0-73.0-0.0-1.0","","","","","","","","null","audio_feedback/wrong/error01.mp3","null","","","","0","21","30","300","[""0075_N0300_K0030_CLIQUE"",""0057_N0300_K0030_NOCLIQUE""]"
"","","","","","","","","","","","canvas-keyboard-response","95","81298","0.0-74.0-0.0-0.0","","","","","","","","216","","arrowright","[111,288,50,216,110,57,121,131,237,176,286,241,279,281,100,49,177,28,295,129,230,0,88,156,170,127,95,180,86,141,257,284,89,1,261,96,4,264,218,114,157,201,232,113,30,40,73,132,8,297,287,275,76,254,13,21,47,210,107,18,233,276,175,82,74,145,116,208,273,162,215,294,137,154,33,190,268,223,99,37,178,278,55,83,221,59,75,247,70,270,17,35,14,104,164,125,85,32,211,231,236,84,133,128,118,60,184,226,94,253,138,79,87,44,277,166,22,134,152,217,81,159,282,126,192,15,255,243,185,144,92,269,194,97,61,200,93,56,101,155,240,163,222,158,77,151,193,182,173,256,196,283,150,2,139,153,225,123,42,290,251,260,214,245,262,68,289,199,203,212,160,248,106,63,171,168,293,204,266,263,135,188,187,10,227,186,130,117,67,108,149,38,259,91,246,179,258,174,285,103,109,298,252,228,169,183,267,51,148,41,181,161,207,53,213,239,265,235,29,43,58,102,202,147,23,98,189,224,54,36,52,220,195,229,244,299,7,296,143,65,191,119,66,5,205,280,16,69,142,19,105,274,165,71,20,197,146,9,206,45,140,219,39,24,90,25,78,26,272,27,80,3,48,291,292,249,242,136,250,167,209,120,234,172,12,122,64,6,31,112,72,11,46,62,34,238,124,198,271,115]","arrowright","true","0","22","25","300","[""0013_N0300_K0025_NOCLIQUE"",""0043_N0300_K0025_CLIQUE""]"
"","","","","","","","","","","","audio-keyboard-response","96","82293","0.0-74.0-0.0-1.0","","","","","","","","null","audio_feedback/right/coin01.mp3","null","","","","0","22","25","300","[""0013_N0300_K0025_NOCLIQUE"",""0043_N0300_K0025_CLIQUE""]"
"","","","","","","","","","","","canvas-keyboard-response","97","82554","0.0-75.0-0.0-0.0","","","","","","","","196","","arrowleft","[98,65,83,155,85,168,75,289,33,97,288,160,243,220,262,92,68,81,292,73,34,246,0,256,159,46,216,101,50,93,257,217,253,140,132,5,186,117,274,43,174,190,202,267,254,105,102,195,203,137,127,79,26,211,62,172,295,221,39,143,206,180,212,42,165,157,196,142,106,204,214,290,200,60,9,182,258,4,135,15,242,37,147,248,145,2,237,268,120,273,20,35,291,247,241,249,136,275,40,103,69,110,279,48,18,10,118,215,264,151,156,80,244,78,209,219,111,192,45,125,210,223,286,294,229,76,277,22,201,283,94,56,63,82,91,129,177,154,146,24,84,114,30,230,3,38,224,47,128,269,276,141,88,112,181,163,52,285,44,185,66,297,150,255,14,282,55,252,28,6,161,231,189,191,113,86,260,11,222,187,108,281,250,158,198,115,238,104,207,87,124,234,130,54,299,280,176,169,233,183,7,236,218,270,49,107,205,164,272,239,245,57,263,167,149,99,131,19,8,271,193,178,123,71,25,109,144,53,152,61,166,232,70,284,119,100,228,58,251,208,225,1,134,17,90,227,278,235,64,170,296,74,72,121,27,197,179,96,32,122,266,126,133,175,67,51,148,259,173,188,293,213,298,138,171,265,89,261,139,153,95,23,12,77,194,36,31,59,13,21,226,162,199,287,116,41,240,29,184,16]","arrowleft","true","0","23","25","300","[""0020_N0300_K0025_CLIQUE"",""0092_N0300_K0025_NOCLIQUE""]"
"","","","","","","","","","","","audio-keyboard-response","98","83554","0.0-75.0-0.0-1.0","","","","","","","","null","audio_feedback/right/coin01.mp3","null","","","","0","23","25","300","[""0020_N0300_K0025_CLIQUE"",""0092_N0300_K0025_NOCLIQUE""]"
"","","","","","","","","","","","canvas-keyboard-response","99","83778","0.0-76.0-0.0-0.0","","","","","","","","145","","arrowright","[99,278,146,38,242,106,261,256,167,64,30,250,255,251,3,245,8,294,187,297,171,47,288,268,161,35,135,108,91,65,240,54,200,280,213,77,45,185,260,174,70,197,82,154,28,51,10,216,120,246,81,208,50,97,105,267,25,61,18,68,62,44,228,139,19,253,210,73,206,111,130,42,0,141,159,248,184,142,128,147,31,26,85,87,80,114,121,191,239,173,219,190,229,144,40,170,48,149,220,103,233,179,43,153,41,143,5,122,69,58,116,181,92,186,53,151,23,14,27,21,198,93,164,259,209,218,183,230,148,152,107,274,189,227,199,225,49,257,52,204,157,215,244,13,132,136,96,71,74,249,156,241,291,102,298,275,212,7,279,11,166,234,75,162,196,109,232,193,264,226,299,158,266,283,89,243,78,272,63,67,138,296,269,110,292,123,34,214,83,178,282,56,127,221,32,9,263,270,126,16,273,182,262,222,235,286,119,125,192,211,60,33,37,4,134,115,168,22,15,79,293,271,113,94,224,252,207,176,117,84,277,238,289,137,155,180,124,203,205,59,101,100,66,131,160,223,46,295,20,86,76,258,231,201,202,118,24,284,285,172,145,290,95,217,265,98,17,72,175,237,169,281,247,36,12,2,163,55,6,150,129,236,29,90,194,276,287,195,112,104,177,57,165,188,133,140,39,1,88,254]","arrowleft","false","0","24","20","300","[""0037_N0300_K0020_CLIQUE"",""0038_N0300_K0020_NOCLIQUE""]"
"","","","","","","","","","","","audio-keyboard-response","100","84794","0.0-76.0-0.0-1.0","","","","","","","","null","audio_feedback/wrong/error01.mp3","null","","","","0","24","20","300","[""0037_N0300_K0020_CLIQUE"",""0038_N0300_K0020_NOCLIQUE""]"
"","","","","","","","","","","","canvas-keyboard-response","101","84977","0.0-77.0-0.0-0.0","","","","","","","","113","","arrowright","[294,233,230,5,127,223,156,94,252,229,264,279,164,237,240,214,255,241,139,150,19,65,60,96,74,132,72,148,125,115,176,175,51,91,218,208,111,62,191,197,133,66,172,71,104,14,122,46,33,171,209,228,201,8,47,24,89,103,173,202,44,88,235,234,57,290,163,231,260,271,138,101,82,258,130,242,165,63,68,4,28,181,48,100,141,246,227,155,239,167,18,34,53,210,112,174,238,204,77,114,137,73,86,280,42,278,142,1,178,198,274,205,26,166,76,61,152,31,207,203,225,261,22,286,162,189,126,244,147,30,110,143,151,95,98,195,107,134,192,281,49,35,52,27,25,285,7,45,161,80,20,93,157,257,38,268,135,85,69,54,116,245,159,40,254,292,43,87,199,11,158,265,99,287,160,64,291,124,168,70,10,289,131,56,84,78,247,97,153,263,212,206,21,200,3,193,251,120,59,297,236,296,211,23,109,183,272,186,273,58,288,146,39,177,298,248,293,282,253,216,222,196,119,13,284,275,270,187,217,169,102,108,117,12,105,36,277,185,140,15,113,184,67,92,81,145,149,283,55,29,232,269,194,136,75,250,243,190,32,79,144,221,179,37,90,219,123,249,154,83,129,259,17,9,299,295,170,276,118,215,180,41,220,224,213,0,226,2,267,121,50,266,16,256,6,182,128,106,188,262]","arrowleft","false","0","25","20","300","[""0021_N0300_K0020_CLIQUE"",""0060_N0300_K0020_NOCLIQUE""]"
"","","","","","","","","","","","audio-keyboard-response","102","85973","0.0-77.0-0.0-1.0","","","","","","","","null","audio_feedback/wrong/error01.mp3","null","","","","0","25","20","300","[""0021_N0300_K0020_CLIQUE"",""0060_N0300_K0020_NOCLIQUE""]"
"","","","","","","","","","","","canvas-keyboard-response","103","86209","0.0-78.0-0.0-0.0","","","","","","","","181","","arrowleft","[90,61,217,185,89,64,222,167,285,75,226,288,283,44,267,147,297,228,127,51,3,153,271,115,96,12,20,36,31,233,112,107,21,48,173,225,46,188,246,252,298,216,113,81,15,270,187,74,204,23,261,88,57,218,55,191,0,104,4,254,63,58,272,211,39,27,60,274,7,117,198,124,291,16,5,24,229,103,120,41,232,45,277,56,265,130,177,162,253,86,258,289,208,53,94,18,42,71,170,1,199,145,8,129,85,249,245,257,111,206,102,139,157,66,275,282,100,30,87,43,37,279,266,166,197,35,125,237,263,164,19,76,273,93,268,11,160,131,281,6,169,2,26,54,205,122,295,69,174,235,171,135,287,223,67,236,83,140,230,148,126,38,207,92,299,189,178,138,292,163,134,280,209,255,182,91,133,196,294,190,179,49,123,244,17,151,259,168,98,195,108,247,142,106,201,121,29,241,239,80,212,95,193,154,22,220,79,213,13,238,143,175,262,34,62,202,184,33,286,119,203,156,77,234,243,141,59,70,251,296,215,159,183,256,52,137,155,47,293,136,72,276,25,165,78,176,144,109,231,242,118,227,186,10,161,248,172,65,97,290,221,28,200,68,149,181,40,50,82,32,194,240,146,105,110,260,224,264,152,219,269,180,210,214,192,132,150,101,9,14,250,99,73,84,278,158,114,116,284,128]","arrowleft","true","0","26","15","300","[""0030_N0300_K0015_CLIQUE"",""0074_N0300_K0015_NOCLIQUE""]"
"","","","","","","","","","","","audio-keyboard-response","104","87194","0.0-78.0-0.0-1.0","","","","","","","","null","audio_feedback/right/coin01.mp3","null","","","","0","26","15","300","[""0030_N0300_K0015_CLIQUE"",""0074_N0300_K0015_NOCLIQUE""]"
"","","","","","","","","","","","canvas-keyboard-response","105","87360","0.0-79.0-0.0-0.0","","","","","","","","68","","arrowright","[25,210,270,26,35,156,250,193,199,90,126,38,192,254,185,118,170,87,50,176,54,179,242,95,257,18,14,7,180,53,274,125,128,64,77,241,265,278,178,289,264,214,263,207,60,56,131,232,219,283,154,102,17,260,123,239,293,117,133,49,184,152,12,69,227,244,63,198,132,135,195,158,108,240,188,4,159,58,183,34,206,296,62,98,286,172,30,285,22,226,247,217,84,200,220,230,100,279,41,33,249,222,121,143,150,271,173,165,166,221,189,42,252,55,298,27,114,267,245,104,146,138,216,76,37,228,11,223,268,253,97,99,243,269,284,208,122,6,280,218,70,113,130,292,92,94,261,110,3,169,82,29,196,109,40,19,275,44,106,59,212,91,203,175,161,111,155,246,171,16,288,66,167,20,294,181,164,197,57,119,153,259,238,157,85,191,13,160,291,215,144,23,89,262,211,2,65,233,36,115,273,201,141,129,96,148,28,71,255,72,120,86,47,68,237,209,145,194,224,297,168,46,24,81,229,75,103,266,163,225,187,177,116,234,139,79,251,105,149,74,276,235,287,142,43,137,48,21,78,93,202,281,5,80,248,213,88,258,295,204,272,182,10,236,83,231,107,73,174,256,52,15,8,147,39,140,31,205,51,1,61,101,162,136,277,282,45,124,151,67,290,190,127,299,186,112,134,32,9,0]","arrowright","true","0","27","15","300","[""0044_N0300_K0015_NOCLIQUE"",""0041_N0300_K0015_CLIQUE""]"
"","","","","","","","","","","","audio-keyboard-response","106","88353","0.0-79.0-0.0-1.0","","","","","","","","null","audio_feedback/right/coin01.mp3","null","","","","0","27","15","300","[""0044_N0300_K0015_NOCLIQUE"",""0041_N0300_K0015_CLIQUE""]"
"","","","","","","","","","","","canvas-keyboard-response","107","88644","0.0-80.0-0.0-0.0","","","","","","","","229","","arrowright","[45,103,19,113,151,100,84,188,170,98,206,276,172,245,71,171,212,109,254,298,220,250,263,22,68,126,32,73,120,115,233,237,261,240,18,252,211,197,286,134,223,122,282,9,1,184,20,203,234,177,178,207,204,226,135,161,124,279,231,70,76,157,116,281,152,75,189,195,54,139,227,13,277,141,130,79,111,167,0,268,55,218,246,85,72,16,110,154,175,33,66,266,123,42,198,30,201,119,43,242,53,56,196,101,179,269,222,265,155,264,285,48,49,294,255,194,290,238,210,202,35,125,183,138,144,225,284,74,182,127,158,50,104,91,249,208,62,95,214,121,81,299,230,25,288,262,156,27,199,40,64,146,14,173,88,77,69,192,67,291,52,270,251,168,174,143,150,38,239,148,147,205,253,149,241,5,292,94,295,80,44,232,129,31,17,180,145,166,187,221,57,217,58,272,216,117,63,28,137,215,61,190,280,162,278,213,59,51,160,3,132,271,273,136,297,293,181,142,140,46,6,10,186,164,82,165,2,244,8,105,153,87,247,283,219,83,114,21,106,112,99,4,7,243,47,12,176,92,236,159,275,15,26,224,258,93,229,118,65,200,29,267,259,60,89,131,228,209,78,107,34,274,11,296,133,37,97,193,24,256,23,41,39,169,90,289,108,102,191,86,260,96,287,185,248,36,235,257,128,163]","arrowright","true","0","28","10","300","[""0023_N0300_K0010_NOCLIQUE"",""0080_N0300_K0010_CLIQUE""]"
"","","","","","","","","","","","audio-keyboard-response","108","89653","0.0-80.0-0.0-1.0","","","","","","","","null","audio_feedback/right/coin01.mp3","null","","","","0","28","10","300","[""0023_N0300_K0010_NOCLIQUE"",""0080_N0300_K0010_CLIQUE""]"
"","","","","","","","","","","","canvas-keyboard-response","109","90145","0.0-81.0-0.0-0.0","","","","","","","","413","","arrowleft","[83,10,235,269,205,76,126,33,40,115,287,22,162,174,286,220,149,53,128,81,75,242,132,9,263,80,146,72,62,274,0,133,284,99,266,292,209,147,151,206,197,293,225,52,173,229,233,134,4,143,50,3,17,124,97,291,181,184,39,212,6,226,27,24,65,180,20,109,141,85,213,114,196,155,122,119,105,106,95,188,57,148,79,288,177,150,35,227,264,68,189,104,71,130,265,198,261,32,262,207,21,89,101,224,2,19,204,202,289,144,279,175,199,129,111,87,276,90,113,123,145,142,59,56,250,252,94,110,172,161,36,163,28,255,244,125,8,11,241,38,246,138,176,245,237,69,253,295,260,166,247,234,13,178,1,120,84,271,193,102,44,34,26,186,91,201,165,240,185,228,183,86,232,23,249,46,190,210,168,256,219,270,37,216,268,278,221,259,48,200,92,54,254,280,211,112,194,214,182,49,103,156,238,30,58,192,296,18,61,297,77,55,236,5,283,167,215,70,169,78,170,171,217,41,257,277,118,281,60,258,64,16,285,74,121,160,117,82,43,116,96,251,203,100,31,243,299,290,25,230,195,67,267,282,223,47,248,66,139,154,159,275,45,88,158,131,135,107,179,29,136,239,140,272,137,164,127,98,93,63,152,14,73,298,42,15,294,12,231,273,51,157,191,218,187,153,222,7,108,208]","arrowleft","true","0","29","10","300","[""0083_N0300_K0010_CLIQUE"",""0009_N0300_K0010_NOCLIQUE""]"
"","","","","","","","","","","","audio-keyboard-response","110","91133","0.0-81.0-0.0-1.0","","","","","","","","null","audio_feedback/right/coin01.mp3","null","","","","0","29","10","300","[""0083_N0300_K0010_CLIQUE"",""0009_N0300_K0010_NOCLIQUE""]"
"","","","","","","","","","","","instructions","111","92754","0.0-82.0","","","","","","","[{""page_index"":0,""viewing_time"":1619}]","1620","","","","","","","","","",""
"","","","","","","","","","","","fullscreen","112","92756","0.0-83.0","","true","","","","","","","","","","","","","","","",""
