"value","trial_type","trial_index","time_elapsed","internal_node_id","width","height","webaudio","browser","browser_version","mobile","os","fullscreen","vsync_rate","webcam","microphone","success","timeout","failed_images","failed_audio","failed_video","view_history","rt","stimulus","response","nodes_order","correct_response","block_index","presentation_index","clique_size","graph_size","graphs_names","correct"
"","call-function","0","4","0.0-0.0","","","","","","","","","","","","","","","","","","","","","","","","","","","",""
"","browser-check","1","1007","0.0-1.0","1536","738","true","chrome","132.0.0","false","Windows 10","true","60.44","true","true","","","","","","","","","","","","","","","","",""
"","preload","2","2441","0.0-2.0","","","","","","","","","","","","true","false","[]","[]","[]","","","","","","","","","","","",""
"","pavlovia","3","3416","0.0-3.0","","","","","","","","","","","","","","","","","","","","","","","","","","","",""
"","instructions","4","129347","0.0-4.0","","","","","","","","","","","","","","","","","[{""page_index"":0,""viewing_time"":8499},{""page_index"":1,""viewing_time"":117414}]","125923","","","","","","","","","",""
"","html-keyboard-response","5","148207","0.0-5.0-0.0","","","","","","","","","","","","","","","","","","18815","By accepting to participate in this study, you confirm:
                <p style='text-align:left'>
                    - That I have carefully read the explanations regarding this study and the entire experimental procedure;<br>
                    - That I have been informed about the aims and objectives of this research;<br>
                    - That I am aware of the inconveniences, if any, caused by the experiment;<br>
                    - That I have received satisfactory assurances regarding the confidentiality of the information obtained from the examination of my own person; <br>
                    - That I am aware that I can withdraw at any stage of the study.
                <p>
                <span style=""color: #808080"">
                    Press [Y] to <strong>accept</strong>.
                </span> <br>
                <span style=""color: #808080"">
                    Press [N] to <strong>refuse</strong>.
                </span>","y","","","","","","","",""
"","survey-html-form","6","158637","0.0-6.0","","","","","","","","","","","","","","","","","","10384","","{""gender"":""male"",""age"":""25""}","","","","","","","",""
"","preload","7","160927","0.0-7.0","","","","","","","","","","","","true","false","[]","[]","[]","","","","","","","","","","","",""
"","instructions","8","505382","0.0-8.0","","","","","","","","","","","","","","","","","[{""page_index"":0,""viewing_time"":4258},{""page_index"":1,""viewing_time"":3642},{""page_index"":2,""viewing_time"":5129},{""page_index"":3,""viewing_time"":9856},{""page_index"":4,""viewing_time"":9676},{""page_index"":5,""viewing_time"":6518},{""page_index"":6,""viewing_time"":1845},{""page_index"":7,""viewing_time"":3790},{""page_index"":8,""viewing_time"":3551},{""page_index"":9,""viewing_time"":6034},{""page_index"":10,""viewing_time"":2638},{""page_index"":11,""viewing_time"":1843},{""page_index"":12,""viewing_time"":2704},{""page_index"":13,""viewing_time"":2857},{""page_index"":14,""viewing_time"":1706},{""page_index"":15,""viewing_time"":1292},{""page_index"":16,""viewing_time"":1346},{""page_index"":17,""viewing_time"":1625},{""page_index"":18,""viewing_time"":1212},{""page_index"":19,""viewing_time"":1850},{""page_index"":20,""viewing_time"":1306},{""page_index"":21,""viewing_time"":2129},{""page_index"":22,""viewing_time"":2084},{""page_index"":23,""viewing_time"":946},{""page_index"":24,""viewing_time"":1278},{""page_index"":25,""viewing_time"":1215},{""page_index"":26,""viewing_time"":813},{""page_index"":27,""viewing_time"":3981},{""page_index"":28,""viewing_time"":6028},{""page_index"":29,""viewing_time"":2544},{""page_index"":30,""viewing_time"":1967},{""page_index"":31,""viewing_time"":5884},{""page_index"":32,""viewing_time"":12869},{""page_index"":33,""viewing_time"":4994},{""page_index"":34,""viewing_time"":3783},{""page_index"":33,""viewing_time"":1098},{""page_index"":34,""viewing_time"":1205},{""page_index"":35,""viewing_time"":11468},{""page_index"":36,""viewing_time"":2786},{""page_index"":37,""viewing_time"":1681},{""page_index"":36,""viewing_time"":410},{""page_index"":37,""viewing_time"":4073},{""page_index"":38,""viewing_time"":8100},{""page_index"":39,""viewing_time"":8676},{""page_index"":40,""viewing_time"":7088},{""page_index"":41,""viewing_time"":5502},{""page_index"":42,""viewing_time"":3434},{""page_index"":43,""viewing_time"":8359},{""page_index"":44,""viewing_time"":2480},{""page_index"":43,""viewing_time"":638},{""page_index"":44,""viewing_time"":12028},{""page_index"":43,""viewing_time"":465},{""page_index"":44,""viewing_time"":546},{""page_index"":45,""viewing_time"":15775},{""page_index"":44,""viewing_time"":576},{""page_index"":45,""viewing_time"":785},{""page_index"":44,""viewing_time"":545},{""page_index"":45,""viewing_time"":1102},{""page_index"":44,""viewing_time"":172},{""page_index"":43,""viewing_time"":73698},{""page_index"":44,""viewing_time"":1976},{""page_index"":43,""viewing_time"":358},{""page_index"":44,""viewing_time"":2204},{""page_index"":45,""viewing_time"":8317},{""page_index"":46,""viewing_time"":2863},{""page_index"":47,""viewing_time"":2565},{""page_index"":48,""viewing_time"":4052},{""page_index"":49,""viewing_time"":4454},{""page_index"":50,""viewing_time"":10852},{""page_index"":51,""viewing_time"":8925}]","344447","","","","","","","","","",""
"","instructions","9","516065","0.0-9.0","","","","","","","","","","","","","","","","","[{""page_index"":0,""viewing_time"":10667}]","10668","","","","","","","","","",""
"","preload","10","519070","0.0-10.0","","","","","","","","","","","","true","false","[]","[]","[]","","","","","","","","","","","",""
"","image-keyboard-response","11","541122","0.0-11.0","","","","","","","","","","","","","","","","","","22032","tutorial/p_reduce/task_familiarization_images/part 1/01_N160_K90_cliqueRight_question1.PNG"," ","","","","","","","",""
"","image-keyboard-response","12","543296","0.0-12.0","","","","","","","","","","","","","","","","","","2172","tutorial/p_reduce/task_familiarization_images/part 1/02_N160_K90_cliqueRight_question2.PNG"," ","","","","","","","",""
"","image-keyboard-response","13","549408","0.0-13.0","","","","","","","","","","","","","","","","","","6110","tutorial/p_reduce/task_familiarization_images/part 1/03_N160_K90_cliqueRight_question3.PNG","arrowright","","","","","","","",""
"","image-keyboard-response","14","551453","0.0-14.0","","","","","","","","","","","","","","","","","","2044","tutorial/p_reduce/task_familiarization_images/part 1/04_N160_K90_cliqueRight_solution.PNG"," ","","","","","","","",""
"","image-keyboard-response","15","556576","0.0-15.0","","","","","","","","","","","","","","","","","","5121","tutorial/p_reduce/task_familiarization_images/part 1/05_N160_K65_cliqueRight_question1.PNG"," ","","","","","","","",""
"","image-keyboard-response","16","559009","0.0-16.0","","","","","","","","","","","","","","","","","","2433","tutorial/p_reduce/task_familiarization_images/part 1/06_N160_K65_cliqueRight_question2.PNG"," ","","","","","","","",""
"","image-keyboard-response","17","562793","0.0-17.0","","","","","","","","","","","","","","","","","","3783","tutorial/p_reduce/task_familiarization_images/part 1/07_N160_K65_cliqueRight_question3.PNG","arrowright","","","","","","","",""
"","image-keyboard-response","18","565164","0.0-18.0","","","","","","","","","","","","","","","","","","2368","tutorial/p_reduce/task_familiarization_images/part 1/08_N160_K65_cliqueRight_solution.PNG"," ","","","","","","","",""
"","image-keyboard-response","19","571578","0.0-19.0","","","","","","","","","","","","","","","","","","6412","tutorial/p_reduce/task_familiarization_images/part 1/09_N160_K50_cliqueLeft_question1.PNG"," ","","","","","","","",""
"","image-keyboard-response","20","575663","0.0-20.0","","","","","","","","","","","","","","","","","","4084","tutorial/p_reduce/task_familiarization_images/part 1/10_N160_K50_cliqueLeft_question2.PNG"," ","","","","","","","",""
"","image-keyboard-response","21","579428","0.0-21.0","","","","","","","","","","","","","","","","","","3765","tutorial/p_reduce/task_familiarization_images/part 1/11_N160_K50_cliqueLeft_question3.PNG","arrowleft","","","","","","","",""
"","image-keyboard-response","22","591812","0.0-22.0","","","","","","","","","","","","","","","","","","12383","tutorial/p_reduce/task_familiarization_images/part 1/12_N160_K50_cliqueLeft_solution.PNG"," ","","","","","","","",""
"","image-keyboard-response","23","595577","0.0-23.0","","","","","","","","","","","","","","","","","","3764","tutorial/p_reduce/task_familiarization_images/part 1/13_N160_K80_cliqueLeft_question1.PNG"," ","","","","","","","",""
"","image-keyboard-response","24","595905","0.0-24.0","","","","","","","","","","","","","","","","","","327","tutorial/p_reduce/task_familiarization_images/part 1/14_N160_K80_cliqueLeft_question2.PNG"," ","","","","","","","",""
"","image-keyboard-response","25","597388","0.0-25.0","","","","","","","","","","","","","","","","","","1482","tutorial/p_reduce/task_familiarization_images/part 1/15_N160_K80_cliqueLeft_question3.PNG","arrowleft","","","","","","","",""
"","image-keyboard-response","26","598222","0.0-26.0","","","","","","","","","","","","","","","","","","833","tutorial/p_reduce/task_familiarization_images/part 1/16_N160_K80_cliqueLeft_solution.PNG"," ","","","","","","","",""
"","image-keyboard-response","27","605247","0.0-27.0","","","","","","","","","","","","","","","","","","7023","tutorial/p_reduce/task_familiarization_images/part 1/17_N160_K40_cliqueRight_question1.PNG"," ","","","","","","","",""
"","image-keyboard-response","28","607396","0.0-28.0","","","","","","","","","","","","","","","","","","2148","tutorial/p_reduce/task_familiarization_images/part 1/18_N160_K40_cliqueRight_question2.PNG"," ","","","","","","","",""
"","image-keyboard-response","29","610096","0.0-29.0","","","","","","","","","","","","","","","","","","2697","tutorial/p_reduce/task_familiarization_images/part 1/19_N160_K40_cliqueRight_question3.PNG","arrowright","","","","","","","",""
"","image-keyboard-response","30","612614","0.0-30.0","","","","","","","","","","","","","","","","","","2516","tutorial/p_reduce/task_familiarization_images/part 1/20_N160_K40_cliqueRight_solution.PNG"," ","","","","","","","",""
"","image-keyboard-response","31","617893","0.0-31.0","","","","","","","","","","","","","","","","","","5276","tutorial/p_reduce/task_familiarization_images/part 1/21_N160_K70_cliqueLeft_question1.PNG"," ","","","","","","","",""
"","image-keyboard-response","32","619645","0.0-32.0","","","","","","","","","","","","","","","","","","1749","tutorial/p_reduce/task_familiarization_images/part 1/22_N160_K70_cliqueLeft_question2.PNG"," ","","","","","","","",""
"","image-keyboard-response","33","621031","0.0-33.0","","","","","","","","","","","","","","","","","","1385","tutorial/p_reduce/task_familiarization_images/part 1/23_N160_K70_cliqueLeft_question3.PNG","arrowleft","","","","","","","",""
"","image-keyboard-response","34","622574","0.0-34.0","","","","","","","","","","","","","","","","","","1537","tutorial/p_reduce/task_familiarization_images/part 1/24_N160_K70_cliqueLeft_solution.PNG"," ","","","","","","","",""
"","preload","35","624408","0.0-35.0","","","","","","","","","","","","true","false","[]","[]","[]","","","","","","","","","","","",""
"","image-keyboard-response","36","654939","0.0-36.0","","","","","","","","","","","","","","","","","","30529","tutorial/p_reduce/task_familiarization_images/part 2/01_N160_K80_cliqueLeft_withFeedback_1.PNG"," ","","","","","","","",""
"","image-keyboard-response","37","662345","0.0-37.0","","","","","","","","","","","","","","","","","","7405","tutorial/p_reduce/task_familiarization_images/part 2/02_N160_K80_cliqueLeft_withFeedback_2.PNG"," ","","","","","","","",""
"","image-keyboard-response","38","666061","0.0-38.0","","","","","","","","","","","","","","","","","","3711","tutorial/p_reduce/task_familiarization_images/part 2/03_N160_K80_cliqueLeft_withFeedback_3.PNG","arrowleft","","","","","","","",""
"","image-keyboard-response","39","672403","0.0-39.0","","","","","","","","","","","","","","","","","","6327","tutorial/p_reduce/task_familiarization_images/part 2/04_N160_K80_cliqueLeft_withFeedback_correct.PNG"," ","","","","","","","",""
"","image-keyboard-response","40","682511","0.0-40.0","","","","","","","","","","","","","","","","","","10106","tutorial/p_reduce/task_familiarization_images/part 2/05_N160_K55_cliqueRight_withFeedback_1.PNG"," ","","","","","","","",""
"","image-keyboard-response","41","695203","0.0-41.0","","","","","","","","","","","","","","","","","","12687","tutorial/p_reduce/task_familiarization_images/part 2/06_N160_K55_cliqueRight_withFeedback_2.PNG"," ","","","","","","","",""
"","image-keyboard-response","42","702405","0.0-42.0","","","","","","","","","","","","","","","","","","7200","tutorial/p_reduce/task_familiarization_images/part 2/07_N160_K55_cliqueRight_withFeedback_3.PNG","arrowright","","","","","","","",""
"","image-keyboard-response","43","706533","0.0-43.0","","","","","","","","","","","","","","","","","","4125","tutorial/p_reduce/task_familiarization_images/part 2/08_N160_K55_cliqueRight_withFeedback_correct.PNG"," ","","","","","","","",""
"","image-keyboard-response","44","710732","0.0-44.0","","","","","","","","","","","","","","","","","","4196","tutorial/p_reduce/task_familiarization_images/part 2/09_N160_K70_cliqueLeft_withFeedback_1.PNG"," ","","","","","","","",""
"","image-keyboard-response","45","711803","0.0-45.0","","","","","","","","","","","","","","","","","","1068","tutorial/p_reduce/task_familiarization_images/part 2/10_N160_K70_cliqueLeft_withFeedback_2.PNG"," ","","","","","","","",""
"","image-keyboard-response","46","713397","0.0-46.0","","","","","","","","","","","","","","","","","","1593","tutorial/p_reduce/task_familiarization_images/part 2/11_N160_K70_cliqueLeft_withFeedback_3.PNG","arrowleft","","","","","","","",""
"","image-keyboard-response","47","718110","0.0-47.0","","","","","","","","","","","","","","","","","","4711","tutorial/p_reduce/task_familiarization_images/part 2/12_N160_K70_cliqueLeft_withFeedback_correct.PNG"," ","","","","","","","",""
"","preload","48","718906","0.0-48.0","","","","","","","","","","","","true","false","[]","[]","[]","","","","","","","","","","","",""
"","instructions","49","759336","0.0-49.0","","","","","","","","","","","","","","","","","[{""page_index"":0,""viewing_time"":40417}]","40428","","","","","","","","","",""
"","fullscreen","50","765585","0.0-51.0","","","","","","","","","","","","true","","","","","","","","","","","","","","","",""
"","canvas-keyboard-response","51","780884","0.0-52.0-0.0-0.0","","","","","","","","","","","","","","","","","","15025",""," ","[193,272,214,107,183,69,99,143,202,101,225,177,219,108,234,11,51,169,187,19,114,53,213,46,112,161,15,98,110,68,88,203,185,262,56,190,286,40,240,267,297,211,64,205,65,116,84,279,233,292,129,2,230,159,195,134,197,158,76,131,293,91,32,82,54,8,89,156,123,165,282,83,252,280,239,147,218,0,70,201,118,22,259,113,275,264,121,199,152,299,236,249,204,260,142,251,296,28,13,212,12,189,75,120,81,271,23,226,151,261,62,145,3,248,148,1,7,60,63,290,168,100,164,55,59,291,144,5,276,247,250,42,36,130,79,232,124,224,191,242,86,29,103,285,136,58,72,24,289,26,27,71,45,95,77,49,209,287,217,126,66,44,106,281,4,149,127,135,266,30,238,139,160,111,41,246,117,97,57,85,255,122,257,180,295,263,162,176,52,207,93,186,269,119,94,208,215,241,210,253,37,96,146,153,245,184,17,102,171,198,172,163,227,34,125,61,265,6,14,47,178,294,128,243,231,137,254,237,90,277,132,235,16,278,104,74,87,43,141,109,174,181,167,188,206,80,192,229,170,288,39,78,38,196,48,298,256,21,133,179,155,140,105,9,20,274,138,73,284,33,220,166,18,273,50,173,154,67,150,35,92,222,228,270,216,200,182,283,175,194,31,244,115,258,157,268,223,25,10,221]","arrowleft","0","0","90","300","[""0095_N0300_K0090_CLIQUE"",""0058_N0300_K0090_NOCLIQUE""]",""
"","audio-keyboard-response","52","782960","0.0-52.0-0.0-1.0","","","","","","","","","","","","","","","","","","null","audio_feedback/shuffles/shuffle01.mp3","null","","","0","0","90","300","[""0095_N0300_K0090_CLIQUE"",""0058_N0300_K0090_NOCLIQUE""]",""
"","canvas-keyboard-response","53","788102","0.0-52.1-0.1-0.1","","","","","","","","","","","","","","","","","","5091",""," ","[17,269,236,90,221,153,215,67,298,222,201,22,210,109,11,274,188,216,172,52,196,146,154,293,272,114,57,292,171,131,233,26,27,102,225,223,198,58,100,70,94,15,46,125,178,256,88,10,162,107,136,235,241,96,147,33,145,113,197,289,155,185,253,170,288,238,246,258,262,40,286,123,0,291,227,115,191,218,98,42,135,62,72,229,239,203,282,103,248,16,287,139,23,118,110,116,79,156,97,66,25,189,43,212,228,265,87,61,6,190,230,99,141,93,150,78,84,143,211,105,260,297,126,83,28,119,294,249,101,122,20,168,68,7,137,134,85,35,166,194,76,184,276,254,82,255,242,51,108,181,281,2,73,261,243,295,124,250,13,91,37,117,220,86,217,183,257,9,41,279,29,49,213,169,240,157,208,120,74,38,164,71,133,204,63,54,245,251,278,138,277,144,24,32,161,219,273,182,231,81,209,177,104,128,36,175,19,167,8,34,12,64,148,214,232,60,202,92,69,270,180,179,121,112,1,149,290,59,56,271,176,127,200,129,21,18,50,111,244,252,132,142,165,205,247,45,283,259,296,266,206,65,158,152,53,5,193,44,195,77,224,285,151,275,268,173,48,186,267,159,199,95,4,234,55,192,39,237,106,89,263,226,280,30,75,47,264,299,31,160,80,174,187,14,284,207,163,130,140,3]","arrowleft","0","0","90","300","[""0095_N0300_K0090_CLIQUE"",""0058_N0300_K0090_NOCLIQUE""]",""
"","audio-keyboard-response","54","789180","0.0-52.1-0.1-1.1","","","","","","","","","","","","","","","","","","null","audio_feedback/shuffles/shuffle01.mp3","null","","","0","0","90","300","[""0095_N0300_K0090_CLIQUE"",""0058_N0300_K0090_NOCLIQUE""]",""
"","canvas-keyboard-response","55","791602","0.0-52.2-0.2-0.2","","","","","","","","","","","","","","","","","","2362",""," ","[3,191,43,161,231,245,39,8,227,179,82,141,136,207,213,155,112,40,225,199,175,232,123,95,142,139,167,293,118,170,126,285,171,173,103,129,240,254,226,274,81,105,165,106,157,256,47,116,77,35,63,219,258,298,250,36,145,299,14,132,17,261,180,75,275,109,38,56,163,259,71,273,206,87,239,78,181,76,294,65,148,88,15,168,58,234,54,228,184,121,253,107,216,265,236,190,102,6,176,158,144,0,104,296,251,269,218,60,143,287,11,61,134,100,10,201,172,224,52,289,255,230,200,284,26,89,197,137,174,135,111,19,186,248,212,262,12,194,92,31,131,64,205,281,162,159,80,211,44,217,208,7,41,18,290,23,62,115,55,101,147,48,130,151,229,215,33,263,169,46,202,97,278,114,279,193,178,221,21,22,268,196,260,243,45,185,241,189,214,153,156,93,96,113,124,177,74,244,125,192,164,83,127,282,67,13,49,4,98,72,99,24,286,264,203,34,68,187,237,252,120,277,152,53,69,146,233,238,154,297,288,195,91,183,108,140,249,25,295,235,1,84,242,160,276,272,138,85,210,270,209,59,20,90,42,220,32,79,166,110,246,223,27,257,86,73,37,122,133,117,198,50,70,291,280,150,5,9,182,128,267,119,51,188,266,57,66,30,283,16,94,28,247,271,29,204,222,149,2,292]","arrowleft","0","0","90","300","[""0095_N0300_K0090_CLIQUE"",""0058_N0300_K0090_NOCLIQUE""]",""
"","audio-keyboard-response","56","792680","0.0-52.2-0.2-1.2","","","","","","","","","","","","","","","","","","null","audio_feedback/shuffles/shuffle01.mp3","null","","","0","0","90","300","[""0095_N0300_K0090_CLIQUE"",""0058_N0300_K0090_NOCLIQUE""]",""
"","canvas-keyboard-response","57","796320","0.0-52.3-0.3-0.3","","","","","","","","","","","","","","","","","","3580",""," ","[84,28,125,62,15,239,232,37,205,121,155,0,206,172,26,269,73,168,52,208,204,146,41,10,113,3,268,23,169,61,264,292,47,198,142,195,88,189,282,157,35,207,70,162,65,182,127,108,166,140,263,224,277,285,101,234,185,223,30,163,147,96,131,120,226,116,244,49,259,235,273,8,255,76,191,67,94,112,109,252,53,46,7,75,143,151,134,58,106,159,257,161,85,68,167,262,227,105,298,32,295,209,229,153,124,290,149,118,160,222,38,129,89,56,294,25,297,197,152,103,119,251,6,122,107,86,135,220,184,296,9,141,178,194,256,115,22,18,203,20,217,186,215,253,201,187,165,236,216,200,66,196,55,33,69,158,188,48,291,261,241,148,213,286,51,254,280,287,128,212,44,114,40,63,243,137,288,156,284,225,199,39,144,57,274,265,240,289,92,228,138,260,293,5,60,104,276,80,16,132,50,36,247,91,1,72,299,77,111,238,283,245,110,145,13,82,102,190,17,136,281,249,31,202,270,210,154,79,242,173,177,230,180,64,81,150,71,164,248,99,231,59,98,14,78,176,139,233,183,54,45,219,34,258,171,237,211,170,266,279,181,97,43,24,27,221,11,90,250,93,214,174,29,2,42,218,74,246,21,133,271,4,267,95,193,83,192,100,175,126,275,87,272,117,278,179,123,130,12,19]","arrowleft","0","0","90","300","[""0095_N0300_K0090_CLIQUE"",""0058_N0300_K0090_NOCLIQUE""]",""
"","audio-keyboard-response","58","797420","0.0-52.3-0.3-1.3","","","","","","","","","","","","","","","","","","null","audio_feedback/shuffles/shuffle01.mp3","null","","","0","0","90","300","[""0095_N0300_K0090_CLIQUE"",""0058_N0300_K0090_NOCLIQUE""]",""
"","canvas-keyboard-response","59","800645","0.0-52.4-0.4-0.4","","","","","","","","","","","","","","","","","","3158",""," ","[219,21,209,246,39,137,206,102,24,20,289,95,169,253,198,172,155,59,140,4,203,280,272,97,29,207,45,87,290,190,142,217,112,171,34,132,134,64,32,270,202,177,153,124,235,170,173,256,287,10,286,150,88,296,297,2,42,200,46,63,151,91,193,89,283,274,199,159,288,41,234,237,227,83,277,163,65,80,293,120,176,27,11,248,68,197,215,127,201,58,61,284,196,81,14,103,93,299,161,233,107,75,23,291,108,49,0,257,261,195,180,210,44,182,116,189,266,226,56,100,128,188,183,265,268,281,98,69,243,55,275,48,33,115,214,244,70,13,130,162,105,74,30,292,238,126,149,230,136,43,104,121,5,276,106,129,263,242,187,36,175,273,94,164,240,216,160,178,156,26,143,53,185,85,213,76,133,50,211,1,174,96,138,99,181,271,252,158,60,262,229,62,117,168,57,22,148,123,232,241,19,7,3,279,154,47,18,145,40,222,52,221,295,78,247,139,225,152,236,255,147,166,38,231,294,267,92,28,90,191,251,111,186,269,66,141,110,82,9,278,239,84,144,249,67,250,86,125,223,114,6,282,31,12,118,254,131,212,79,260,194,119,135,220,35,285,264,15,157,37,167,258,122,179,16,208,298,8,218,184,205,192,245,204,146,17,72,71,101,113,165,25,259,228,224,73,109,77,54,51]","arrowleft","0","0","90","300","[""0095_N0300_K0090_CLIQUE"",""0058_N0300_K0090_NOCLIQUE""]",""
"","audio-keyboard-response","60","801719","0.0-52.4-0.4-1.4","","","","","","","","","","","","","","","","","","null","audio_feedback/shuffles/shuffle01.mp3","null","","","0","0","90","300","[""0095_N0300_K0090_CLIQUE"",""0058_N0300_K0090_NOCLIQUE""]",""
"","canvas-keyboard-response","61","805625","0.0-52.5-0.5-0.5","","","","","","","","","","","","","","","","","","3861",""," ","[193,220,240,26,184,77,246,295,263,196,78,144,208,0,149,262,128,181,82,121,36,248,20,217,91,40,288,285,223,145,51,45,30,17,86,213,68,292,271,94,88,127,259,237,24,281,92,11,175,287,279,25,62,298,150,168,3,164,122,296,243,269,228,100,146,59,274,183,255,71,257,83,57,72,52,28,6,254,253,97,268,104,284,31,211,123,151,115,37,226,143,106,158,130,79,118,212,194,245,188,250,225,119,166,258,219,114,216,98,231,8,129,76,282,241,154,294,34,90,215,173,174,110,177,23,198,264,235,293,58,189,54,256,93,39,126,135,157,70,206,185,289,113,131,252,199,41,133,66,280,170,203,5,200,124,179,197,297,61,234,101,218,214,141,73,109,140,191,244,81,186,4,22,169,102,1,50,75,147,49,96,29,209,136,267,224,239,270,155,201,238,137,190,163,132,251,283,33,42,120,291,63,165,69,27,227,202,7,99,236,207,260,13,266,233,176,12,74,111,21,232,171,95,80,242,272,247,182,278,48,15,275,159,273,299,160,138,261,205,112,85,229,65,222,35,152,116,249,38,192,156,117,265,105,148,56,134,2,178,9,286,44,180,277,221,290,162,18,64,87,55,43,19,210,142,53,108,125,187,10,14,47,60,172,89,107,167,84,195,230,67,16,46,153,32,204,103,139,276,161]","arrowleft","0","0","90","300","[""0095_N0300_K0090_CLIQUE"",""0058_N0300_K0090_NOCLIQUE""]",""
"","audio-keyboard-response","62","806719","0.0-52.5-0.5-1.5","","","","","","","","","","","","","","","","","","null","audio_feedback/shuffles/shuffle01.mp3","null","","","0","0","90","300","[""0095_N0300_K0090_CLIQUE"",""0058_N0300_K0090_NOCLIQUE""]",""
"","canvas-keyboard-response","63","809199","0.0-52.6-0.6-0.6","","","","","","","","","","","","","","","","","","2416","","arrowleft","[259,227,178,232,266,8,143,45,160,273,94,144,76,79,203,171,147,274,237,98,177,221,299,182,66,226,93,25,199,282,4,185,212,75,133,54,65,263,206,238,168,44,228,258,169,99,113,100,74,279,256,181,200,231,90,265,137,163,184,132,286,233,234,219,110,165,162,89,40,148,35,102,262,116,246,167,86,68,202,106,296,56,73,294,60,117,17,157,223,267,250,129,161,249,42,77,28,101,215,55,209,13,268,240,96,236,34,285,59,264,57,10,270,47,111,112,190,135,32,192,275,7,145,152,153,158,293,138,151,107,71,141,242,248,257,39,269,119,198,5,194,230,277,2,191,166,103,67,15,72,287,247,109,251,252,84,297,154,52,140,298,69,50,97,43,170,64,6,16,280,36,179,241,12,229,189,271,172,193,122,20,211,85,187,207,156,51,125,87,173,224,33,21,210,11,222,92,139,261,225,23,131,291,26,159,63,176,146,38,62,239,27,220,272,255,213,82,104,244,284,186,18,218,120,196,70,214,81,48,105,134,283,46,276,278,127,0,142,29,174,216,19,208,115,164,61,136,195,188,118,58,14,149,121,243,126,95,41,217,197,130,114,83,253,289,235,31,201,37,88,288,128,80,9,260,155,290,30,150,108,281,254,24,1,183,78,53,204,3,295,245,123,124,175,205,292,180,22,91,49]","arrowleft","0","0","90","300","[""0095_N0300_K0090_CLIQUE"",""0058_N0300_K0090_NOCLIQUE""]","true"
"","audio-keyboard-response","64","810198","0.0-52.6-0.6-1.6","","","","","","","","","","","","","","","","","","null","audio_feedback/right/coin01.mp3","null","","","0","0","90","300","[""0095_N0300_K0090_CLIQUE"",""0058_N0300_K0090_NOCLIQUE""]",""
"","canvas-keyboard-response","65","814091","0.0-53.0-0.0-0.0","","","","","","","","","","","","","","","","","","3816",""," ","[265,33,191,169,168,294,98,21,174,228,285,14,165,175,94,157,224,227,263,260,190,31,67,20,225,223,85,142,32,181,149,75,160,19,11,221,10,201,248,219,124,276,164,186,123,29,60,280,215,177,23,53,154,290,232,132,61,226,270,121,202,298,192,100,140,293,207,234,256,195,103,101,245,259,141,92,48,222,25,261,73,88,150,64,0,231,296,144,40,185,113,268,131,279,22,271,289,43,210,184,78,284,155,68,106,206,47,9,218,267,51,89,118,288,129,152,6,119,42,26,243,16,273,15,299,274,247,49,24,120,220,91,275,262,213,252,194,4,198,292,253,104,238,295,138,212,110,189,235,244,45,193,105,80,197,3,55,36,76,291,230,95,58,163,283,196,161,114,167,250,204,46,5,257,59,65,72,63,148,41,246,130,69,7,255,233,82,137,156,8,200,134,90,56,30,162,208,111,70,297,50,12,115,286,139,239,107,147,71,199,62,151,93,135,27,287,122,282,54,277,1,264,81,17,143,28,171,128,240,102,87,18,281,96,214,229,266,38,37,74,251,216,183,187,77,249,86,278,209,258,242,108,44,237,57,79,254,269,236,182,127,2,116,241,158,39,272,84,13,205,66,188,203,153,146,34,117,99,166,173,159,179,97,170,176,83,180,133,125,217,126,145,35,172,52,136,178,109,211,112]","arrowright","0","1","90","300","[""0002_N0300_K0090_NOCLIQUE"",""0072_N0300_K0090_CLIQUE""]",""
"","audio-keyboard-response","66","815160","0.0-53.0-0.0-1.0","","","","","","","","","","","","","","","","","","null","audio_feedback/shuffles/shuffle01.mp3","null","","","0","1","90","300","[""0002_N0300_K0090_NOCLIQUE"",""0072_N0300_K0090_CLIQUE""]",""
"","canvas-keyboard-response","67","816303","0.0-53.1-0.1-0.1","","","","","","","","","","","","","","","","","","1093",""," ","[142,143,230,206,260,125,265,232,237,235,239,117,146,99,137,225,189,240,285,264,37,55,252,33,275,20,61,191,276,105,178,17,185,127,101,97,26,181,16,186,51,4,290,28,150,56,107,120,212,141,91,259,130,221,36,257,47,169,147,22,196,93,116,98,21,34,157,182,159,29,224,25,136,24,50,8,280,253,111,278,103,74,234,227,215,222,118,45,42,154,69,110,102,71,204,139,76,100,183,27,113,70,180,205,243,132,188,193,148,44,23,122,35,2,73,66,244,87,53,281,92,72,197,11,68,128,171,217,209,268,283,211,119,5,258,262,39,18,58,293,163,199,194,202,78,176,294,135,251,77,133,219,254,67,64,75,295,129,85,38,6,282,174,168,79,138,10,248,271,263,121,242,106,86,195,123,267,52,238,218,216,57,82,14,9,94,49,156,140,226,284,3,172,89,207,255,289,12,95,40,144,131,115,145,198,213,246,31,279,81,48,200,286,1,292,288,173,160,134,149,249,170,274,32,190,261,165,167,0,112,297,104,65,179,229,175,245,269,273,231,220,59,54,62,277,184,13,162,201,7,266,210,208,192,250,41,158,272,155,90,43,108,299,291,270,124,152,96,164,247,151,236,63,19,177,109,214,241,287,223,161,84,228,256,15,153,126,30,60,46,80,233,88,298,83,166,203,114,187,296]","arrowright","0","1","90","300","[""0002_N0300_K0090_NOCLIQUE"",""0072_N0300_K0090_CLIQUE""]",""
"","audio-keyboard-response","68","817380","0.0-53.1-0.1-1.1","","","","","","","","","","","","","","","","","","null","audio_feedback/shuffles/shuffle01.mp3","null","","","0","1","90","300","[""0002_N0300_K0090_NOCLIQUE"",""0072_N0300_K0090_CLIQUE""]",""
"","canvas-keyboard-response","69","818657","0.0-53.2-0.2-0.2","","","","","","","","","","","","","","","","","","1212","","arrowright","[122,55,296,173,102,132,198,179,118,82,227,58,231,29,205,178,84,288,153,289,214,221,181,238,259,70,224,249,30,146,199,290,11,4,25,157,111,98,170,236,174,239,121,147,13,12,57,113,169,165,211,87,192,208,145,150,262,269,172,212,228,141,268,78,193,216,217,252,115,19,62,45,86,282,117,41,254,93,104,80,20,123,286,125,176,154,33,133,182,204,271,66,266,222,137,244,264,40,103,201,295,105,171,175,8,44,287,26,99,96,226,203,50,265,270,166,60,95,237,281,134,253,152,257,275,135,71,21,292,23,43,256,116,6,297,89,47,52,294,91,81,27,272,184,53,245,17,24,159,144,72,273,197,261,28,49,183,283,195,124,196,223,263,15,162,267,46,54,160,39,61,148,164,213,106,233,250,158,94,129,92,284,139,293,177,5,9,18,206,136,210,187,218,186,101,185,230,3,140,16,255,240,110,2,37,114,22,279,59,278,35,56,73,167,119,241,127,156,285,51,76,83,235,189,243,100,232,126,75,291,149,32,1,130,131,220,31,63,74,48,97,155,200,274,191,65,248,36,14,246,69,163,109,247,77,7,42,188,120,209,138,128,277,251,242,229,190,88,280,194,68,234,10,64,85,107,108,258,79,0,168,298,260,90,38,67,34,151,143,225,180,219,112,161,299,207,142,215,202,276]","arrowright","0","1","90","300","[""0002_N0300_K0090_NOCLIQUE"",""0072_N0300_K0090_CLIQUE""]","true"
"","audio-keyboard-response","70","819660","0.0-53.2-0.2-1.2","","","","","","","","","","","","","","","","","","null","audio_feedback/right/coin01.mp3","null","","","0","1","90","300","[""0002_N0300_K0090_NOCLIQUE"",""0072_N0300_K0090_CLIQUE""]",""
"","canvas-keyboard-response","71","821668","0.0-54.0-0.0-0.0","","","","","","","","","","","","","","","","","","1945","","arrowright","[294,69,270,220,233,279,176,77,109,239,170,172,231,25,280,261,254,58,219,85,78,268,290,284,259,68,211,27,103,274,188,62,169,142,45,48,84,234,238,206,179,6,3,256,123,202,165,9,191,228,101,15,54,16,264,152,33,260,37,108,151,124,120,99,96,42,79,154,87,180,133,168,267,43,11,181,273,117,199,14,20,10,242,91,7,214,221,203,247,183,93,52,75,276,36,148,116,136,161,153,71,147,5,140,160,90,298,212,185,187,23,29,73,163,146,166,28,135,2,245,150,98,215,272,218,131,18,299,192,237,184,258,111,97,21,193,115,49,263,44,132,265,143,285,107,67,250,227,222,50,196,137,144,286,198,213,158,129,100,186,31,94,204,17,138,224,156,130,46,76,178,235,13,105,289,293,216,134,72,95,82,252,282,118,275,128,110,295,41,190,155,60,159,162,225,74,125,174,104,277,26,205,241,61,175,56,251,145,207,80,249,112,244,66,173,255,70,47,19,40,194,292,113,64,297,217,89,253,157,278,189,126,4,291,22,262,141,83,57,223,195,230,81,122,246,32,201,257,121,63,243,296,1,24,171,88,119,197,287,34,209,51,288,39,53,281,200,240,55,164,232,127,283,271,30,139,208,266,177,167,269,38,12,229,59,149,86,226,248,92,8,102,35,182,210,236,114,65,106,0]","arrowright","0","2","80","300","[""0077_N0300_K0080_NOCLIQUE"",""0017_N0300_K0080_CLIQUE""]","true"
"","audio-keyboard-response","72","822658","0.0-54.0-0.0-1.0","","","","","","","","","","","","","","","","","","null","audio_feedback/right/coin01.mp3","null","","","0","2","80","300","[""0077_N0300_K0080_NOCLIQUE"",""0017_N0300_K0080_CLIQUE""]",""
"","canvas-keyboard-response","73","823936","0.0-55.0-0.0-0.0","","","","","","","","","","","","","","","","","","1233","","arrowleft","[24,167,201,248,217,179,235,34,158,84,51,50,116,294,255,194,283,91,22,169,95,80,254,94,70,0,73,85,19,268,32,189,251,232,284,117,242,249,151,273,59,261,244,223,212,149,12,195,270,53,128,246,67,291,154,78,178,155,104,74,203,25,57,198,293,297,252,161,277,35,92,8,264,171,245,5,10,200,290,101,285,36,219,140,48,99,147,192,14,29,123,266,58,137,227,131,17,113,288,263,39,31,60,2,279,225,96,86,76,68,41,269,146,16,109,236,90,126,196,47,120,144,139,224,153,13,262,122,265,181,207,202,176,107,118,289,250,150,44,103,271,214,63,165,125,204,55,243,20,267,182,110,163,221,111,238,89,172,187,278,162,241,119,231,142,102,42,240,164,130,239,27,127,66,228,133,88,218,170,234,222,213,114,106,141,1,281,159,209,206,121,56,11,253,18,108,49,215,199,258,177,136,135,272,33,156,237,64,79,145,54,247,4,299,134,45,188,37,71,160,7,26,43,286,69,292,9,112,157,229,275,72,40,97,274,216,260,143,132,115,186,30,138,257,168,211,295,174,46,298,256,191,287,93,166,77,21,62,100,3,184,233,61,197,124,81,276,6,175,282,52,129,296,148,185,65,15,82,230,173,83,208,280,98,28,105,193,183,87,226,180,75,259,190,152,205,38,210,220,23]","arrowleft","0","3","80","300","[""0100_N0300_K0080_CLIQUE"",""0001_N0300_K0080_NOCLIQUE""]","true"
"","audio-keyboard-response","74","824958","0.0-55.0-0.0-1.0","","","","","","","","","","","","","","","","","","null","audio_feedback/right/coin01.mp3","null","","","0","3","80","300","[""0100_N0300_K0080_CLIQUE"",""0001_N0300_K0080_NOCLIQUE""]",""
"","canvas-keyboard-response","75","829007","0.0-56.0-0.0-0.0","","","","","","","","","","","","","","","","","","3995","","arrowright","[16,254,28,33,291,50,47,290,142,198,6,78,11,178,143,132,134,188,36,297,212,158,287,275,101,289,109,264,161,76,83,192,185,295,221,174,60,104,156,118,266,57,201,9,117,19,48,53,180,52,286,68,187,248,215,210,79,279,62,44,278,148,69,96,128,145,168,140,262,253,197,157,122,21,263,296,207,273,111,150,238,35,14,123,49,107,93,199,40,95,177,41,247,144,261,166,220,200,56,54,272,258,38,260,45,285,222,169,43,283,203,136,74,63,172,1,277,151,99,268,20,162,32,3,100,204,88,149,129,170,4,205,15,17,65,232,51,181,271,84,218,235,208,137,61,276,243,29,191,184,256,231,110,225,46,103,34,229,98,239,115,94,293,7,23,105,70,86,164,138,186,259,108,85,112,106,42,120,195,92,299,288,72,213,194,292,154,13,81,67,30,89,163,87,124,190,0,294,8,270,240,165,66,202,2,130,102,152,73,245,82,25,189,255,246,135,227,39,251,219,37,133,206,230,160,10,139,284,71,176,282,26,131,274,59,211,153,114,12,224,18,90,27,241,171,298,252,141,237,216,113,265,193,58,64,236,80,267,77,5,173,242,183,249,127,91,125,147,175,233,119,182,146,155,121,159,97,22,55,167,244,250,75,226,24,234,280,31,269,257,217,228,126,209,116,196,214,281,223,179]","arrowright","0","4","70","300","[""0026_N0300_K0070_NOCLIQUE"",""0032_N0300_K0070_CLIQUE""]","true"
"","audio-keyboard-response","76","830000","0.0-56.0-0.0-1.0","","","","","","","","","","","","","","","","","","null","audio_feedback/right/coin01.mp3","null","","","0","4","70","300","[""0026_N0300_K0070_NOCLIQUE"",""0032_N0300_K0070_CLIQUE""]",""
"","canvas-keyboard-response","77","831650","0.0-57.0-0.0-0.0","","","","","","","","","","","","","","","","","","1601","","arrowright","[124,258,164,296,259,38,181,122,277,49,134,253,167,107,86,194,153,110,256,21,177,13,14,224,8,186,211,161,53,68,166,120,278,295,108,54,24,48,104,36,273,119,206,69,234,34,283,213,249,112,242,126,115,149,56,55,72,17,87,71,61,241,298,27,202,218,91,255,178,144,11,92,284,246,33,131,1,262,285,290,254,22,192,263,271,225,30,77,272,113,173,29,73,45,97,182,292,146,136,233,150,66,221,57,199,270,101,23,35,280,170,70,127,261,197,229,141,64,28,51,243,78,121,148,252,25,237,117,193,195,201,205,289,200,99,162,165,281,63,80,50,179,244,172,39,102,155,251,75,275,159,42,274,139,287,19,10,2,47,175,41,250,238,168,239,247,0,174,74,140,191,105,62,151,152,176,248,160,65,84,183,260,154,7,133,88,220,212,128,188,76,266,103,135,5,180,299,240,9,32,228,264,82,114,3,20,46,31,96,293,267,232,190,90,93,231,118,132,156,196,12,257,269,216,158,59,294,89,282,236,147,291,15,40,204,44,52,219,265,214,123,209,184,189,85,203,106,279,230,208,4,129,142,111,185,169,215,286,227,223,187,18,245,16,26,100,67,137,109,83,143,198,130,58,217,94,157,210,116,6,79,43,138,125,222,98,226,81,235,207,163,145,171,37,268,297,60,276,95,288]","arrowright","0","5","70","300","[""0032_N0300_K0070_NOCLIQUE"",""0100_N0300_K0070_CLIQUE""]","true"
"","audio-keyboard-response","78","832658","0.0-57.0-0.0-1.0","","","","","","","","","","","","","","","","","","null","audio_feedback/right/coin01.mp3","null","","","0","5","70","300","[""0032_N0300_K0070_NOCLIQUE"",""0100_N0300_K0070_CLIQUE""]",""
"","canvas-keyboard-response","79","835230","0.0-58.0-0.0-0.0","","","","","","","","","","","","","","","","","","2486",""," ","[15,145,141,12,230,270,189,155,199,179,138,125,43,192,108,249,170,258,142,246,285,196,121,94,157,143,139,191,115,287,90,271,87,228,171,193,135,68,265,6,131,7,132,69,288,186,123,237,241,148,208,226,201,33,149,104,165,198,182,219,297,86,203,274,91,280,242,136,231,13,255,172,259,223,62,32,29,151,147,18,238,57,240,21,92,3,227,124,224,195,71,161,34,84,63,181,40,19,99,205,213,211,222,236,103,88,46,220,200,173,30,76,183,67,41,159,190,61,154,25,289,126,78,83,292,269,82,24,4,272,73,36,85,266,26,298,250,134,245,202,56,209,206,120,215,11,44,102,110,31,153,216,75,299,207,39,72,109,51,184,93,97,113,293,169,267,95,263,214,66,101,277,17,185,295,158,128,119,98,176,156,10,233,204,296,178,284,107,244,96,22,252,14,70,5,47,140,20,80,162,106,291,167,45,251,218,133,55,28,257,74,144,253,1,23,174,254,286,187,137,225,268,8,221,64,50,105,60,111,49,194,37,232,163,2,59,114,239,217,48,261,247,256,127,100,58,188,42,160,283,89,52,264,35,118,77,229,164,175,81,54,234,16,294,150,279,177,146,235,129,0,152,282,248,180,212,290,117,38,260,53,281,243,112,9,273,65,122,262,116,197,276,27,210,79,166,278,168,130,275]","arrowleft","0","6","65","300","[""0058_N0300_K0065_CLIQUE"",""0073_N0300_K0065_NOCLIQUE""]",""
"","audio-keyboard-response","80","836341","0.0-58.0-0.0-1.0","","","","","","","","","","","","","","","","","","null","audio_feedback/shuffles/shuffle01.mp3","null","","","0","6","65","300","[""0058_N0300_K0065_CLIQUE"",""0073_N0300_K0065_NOCLIQUE""]",""
"","canvas-keyboard-response","81","837971","0.0-58.1-0.1-0.1","","","","","","","","","","","","","","","","","","1570",""," ","[193,251,210,35,133,99,26,51,274,233,238,283,250,152,153,104,108,60,3,145,124,66,30,123,34,20,89,143,121,54,114,200,249,166,212,40,242,259,31,9,228,204,25,134,285,90,27,239,44,61,76,167,78,0,91,156,226,120,49,264,106,67,103,144,146,255,278,59,75,269,254,174,175,281,79,188,262,46,55,88,275,171,73,155,235,87,173,98,258,122,214,298,110,291,190,81,70,218,15,41,158,268,32,172,94,65,244,236,52,225,256,279,289,92,160,241,113,184,187,95,17,8,295,284,234,141,107,194,109,177,208,266,39,129,169,24,197,267,136,199,247,13,72,261,168,222,164,216,11,165,211,186,5,4,116,100,290,195,84,273,142,288,282,201,229,296,154,150,118,14,140,215,230,28,182,203,252,265,42,272,191,294,58,263,227,277,246,149,93,102,206,83,21,18,97,260,12,192,36,299,77,271,219,209,22,178,245,163,16,82,221,101,69,6,217,276,176,33,179,2,125,10,74,162,50,147,111,185,96,57,240,105,202,205,213,257,253,223,130,161,180,53,43,128,132,115,286,181,135,131,1,85,68,151,80,47,137,29,37,198,7,189,207,64,119,297,232,62,48,292,23,19,38,112,127,183,220,56,71,159,280,243,45,237,224,231,86,157,126,63,117,248,139,293,138,170,287,270,196,148]","arrowleft","0","6","65","300","[""0058_N0300_K0065_CLIQUE"",""0073_N0300_K0065_NOCLIQUE""]",""
"","audio-keyboard-response","82","839060","0.0-58.1-0.1-1.1","","","","","","","","","","","","","","","","","","null","audio_feedback/shuffles/shuffle01.mp3","null","","","0","6","65","300","[""0058_N0300_K0065_CLIQUE"",""0073_N0300_K0065_NOCLIQUE""]",""
"","canvas-keyboard-response","83","840318","0.0-58.2-0.2-0.2","","","","","","","","","","","","","","","","","","1206","","arrowleft","[0,158,291,234,85,238,115,146,63,135,22,53,68,57,264,145,286,5,191,197,30,122,64,256,266,183,151,275,93,92,6,207,35,129,222,157,251,171,189,103,94,125,89,116,280,32,74,219,186,39,40,269,90,2,172,202,48,218,113,12,297,247,239,165,227,82,260,60,100,55,194,205,284,102,173,77,142,133,38,278,26,153,86,111,160,50,212,267,208,127,274,272,299,29,14,273,243,226,268,293,296,132,188,253,244,190,245,255,235,250,121,42,181,152,248,184,195,156,282,203,13,69,70,75,67,236,206,140,196,215,277,88,211,170,198,41,263,16,45,59,27,66,224,95,1,78,18,149,217,91,276,20,216,167,65,15,213,144,83,223,19,209,138,107,199,84,119,31,56,185,114,241,161,246,123,193,3,237,36,87,130,230,99,24,117,54,180,47,285,80,220,112,214,225,81,261,34,200,155,166,143,17,141,97,147,105,163,118,49,28,58,182,292,164,289,221,281,233,162,229,21,139,4,288,290,242,283,295,168,177,106,137,73,210,154,249,201,150,240,25,257,294,254,101,37,179,271,228,72,126,10,265,108,259,104,187,148,136,174,52,120,262,7,192,61,252,8,298,231,98,44,79,175,279,109,287,131,51,178,232,33,204,96,23,169,134,128,258,124,11,76,71,176,46,43,9,62,270,110,159]","arrowleft","0","6","65","300","[""0058_N0300_K0065_CLIQUE"",""0073_N0300_K0065_NOCLIQUE""]","true"
"","audio-keyboard-response","84","841320","0.0-58.2-0.2-1.2","","","","","","","","","","","","","","","","","","null","audio_feedback/right/coin01.mp3","null","","","0","6","65","300","[""0058_N0300_K0065_CLIQUE"",""0073_N0300_K0065_NOCLIQUE""]",""
"","canvas-keyboard-response","85","844329","0.0-59.0-0.0-0.0","","","","","","","","","","","","","","","","","","2944",""," ","[27,240,134,37,52,115,280,76,178,165,294,39,208,187,219,160,233,159,167,51,145,237,118,222,107,287,245,9,173,99,72,207,290,91,241,103,276,184,121,269,249,200,195,239,163,190,14,229,15,28,119,223,215,31,90,264,40,3,221,180,129,298,78,74,30,169,188,191,120,35,56,278,177,57,192,244,50,132,61,174,282,265,251,234,136,43,189,33,45,89,42,271,96,250,24,7,146,20,154,124,86,164,172,157,210,214,8,153,176,149,231,38,133,203,257,263,55,202,226,196,64,84,272,248,161,122,48,26,252,179,139,63,41,110,137,199,254,143,36,100,142,171,274,236,138,281,201,104,65,11,125,82,198,299,224,212,117,131,211,213,147,128,80,94,106,277,253,197,88,275,247,242,75,68,158,23,21,270,168,243,135,49,29,155,46,70,141,166,284,34,181,150,292,218,140,206,286,148,13,81,295,267,283,170,4,130,259,256,175,5,273,258,10,182,162,183,25,255,93,151,6,225,126,108,66,60,95,113,293,217,79,92,220,204,62,97,87,205,73,102,268,59,83,193,18,235,32,232,285,279,194,144,1,152,53,260,101,44,58,262,85,77,0,291,123,185,67,69,227,209,98,288,127,266,16,109,296,112,297,105,156,111,47,216,246,2,186,12,230,22,71,228,17,289,54,19,116,114,238,261]","arrowleft","0","7","65","300","[""0050_N0300_K0065_CLIQUE"",""0091_N0300_K0065_NOCLIQUE""]",""
"","audio-keyboard-response","86","845421","0.0-59.0-0.0-1.0","","","","","","","","","","","","","","","","","","null","audio_feedback/shuffles/shuffle01.mp3","null","","","0","7","65","300","[""0050_N0300_K0065_CLIQUE"",""0091_N0300_K0065_NOCLIQUE""]",""
"","canvas-keyboard-response","87","846601","0.0-59.1-0.1-0.1","","","","","","","","","","","","","","","","","","1115",""," ","[197,262,233,173,191,2,62,99,111,171,10,179,249,286,101,217,224,136,105,177,118,87,254,266,34,231,169,218,39,291,6,148,7,257,198,52,294,215,11,135,44,165,279,289,153,91,120,193,43,214,239,273,149,24,182,26,98,281,166,71,12,205,192,80,275,285,37,29,132,211,151,241,109,41,288,16,157,178,202,22,54,64,184,200,204,154,196,280,59,187,287,248,49,168,161,143,276,172,265,244,159,195,130,269,146,106,237,31,63,209,295,210,51,296,226,124,93,72,242,271,45,125,33,297,238,67,47,227,156,13,56,96,216,17,84,57,112,263,137,117,180,188,61,267,110,225,144,79,5,206,42,264,181,100,36,133,83,58,160,255,150,246,131,21,102,229,152,176,186,19,155,207,60,208,283,104,121,15,0,38,284,122,88,1,53,116,75,65,48,236,94,145,90,86,260,221,212,230,8,268,70,4,28,235,141,138,66,55,103,142,282,78,9,85,258,203,76,127,115,243,97,140,164,250,123,27,92,194,219,245,18,35,40,50,107,234,139,167,113,278,158,3,82,95,126,251,220,108,240,256,134,162,253,199,25,114,74,261,170,183,46,270,20,228,89,30,274,174,201,189,222,232,128,147,299,247,190,32,293,272,259,290,129,175,163,119,77,213,298,252,185,223,23,14,73,68,292,277,81,69]","arrowleft","0","7","65","300","[""0050_N0300_K0065_CLIQUE"",""0091_N0300_K0065_NOCLIQUE""]",""
"","audio-keyboard-response","88","847681","0.0-59.1-0.1-1.1","","","","","","","","","","","","","","","","","","null","audio_feedback/shuffles/shuffle01.mp3","null","","","0","7","65","300","[""0050_N0300_K0065_CLIQUE"",""0091_N0300_K0065_NOCLIQUE""]",""
"","canvas-keyboard-response","89","849142","0.0-59.2-0.2-0.2","","","","","","","","","","","","","","","","","","1401","","arrowleft","[248,144,126,178,89,100,143,141,46,299,205,194,155,23,253,190,70,282,69,275,104,277,129,36,235,255,165,181,52,200,263,262,202,90,40,281,25,170,81,176,16,113,206,54,55,232,147,106,168,294,180,254,270,156,162,159,13,167,45,209,56,228,59,86,131,212,95,17,60,77,84,174,111,148,243,166,214,288,87,225,227,175,128,257,219,274,48,2,47,192,37,154,267,215,230,171,210,72,24,191,22,83,151,139,8,85,10,234,82,284,152,138,57,266,150,103,35,296,134,30,241,193,96,216,3,295,136,26,140,125,18,145,149,135,91,38,118,132,5,236,33,146,65,203,179,185,221,231,260,204,242,123,245,117,252,213,251,109,173,239,177,88,133,164,290,39,116,121,79,276,297,187,246,122,101,283,244,172,66,250,182,196,237,142,93,261,184,11,99,157,61,9,279,217,256,94,169,223,78,110,278,293,220,114,98,163,44,97,240,108,218,14,32,199,268,75,249,0,291,68,31,28,124,12,226,62,208,224,265,285,258,27,287,105,271,264,201,112,198,7,158,289,197,67,80,119,238,107,207,120,247,43,58,137,115,76,273,63,34,189,286,1,71,211,41,127,229,186,6,21,272,259,49,74,153,19,195,15,160,222,188,42,4,73,20,280,92,102,161,183,233,269,64,29,51,50,53,130,298,292]","arrowleft","0","7","65","300","[""0050_N0300_K0065_CLIQUE"",""0091_N0300_K0065_NOCLIQUE""]","true"
"","audio-keyboard-response","90","850159","0.0-59.2-0.2-1.2","","","","","","","","","","","","","","","","","","null","audio_feedback/right/coin01.mp3","null","","","0","7","65","300","[""0050_N0300_K0065_CLIQUE"",""0091_N0300_K0065_NOCLIQUE""]",""
"","canvas-keyboard-response","91","851664","0.0-60.0-0.0-0.0","","","","","","","","","","","","","","","","","","1457",""," ","[5,92,81,108,166,193,154,290,225,220,213,244,270,159,112,246,170,33,84,115,14,61,25,130,256,86,80,226,275,194,97,126,218,116,234,15,207,23,0,199,254,98,167,21,134,210,27,107,69,4,227,292,282,261,12,298,132,171,286,65,136,51,231,64,278,219,128,269,279,152,44,95,40,192,179,233,285,16,250,201,42,52,198,255,137,142,35,47,203,124,251,293,38,273,110,94,70,122,120,49,121,182,262,252,202,272,103,196,215,155,17,118,143,78,85,114,158,87,67,187,30,153,239,10,238,139,127,26,31,19,117,188,28,260,111,185,277,48,180,176,209,133,294,265,247,169,66,216,149,90,165,241,54,77,24,96,56,63,141,88,163,2,11,204,221,177,119,7,195,147,161,140,287,32,267,291,109,280,284,184,82,222,79,148,157,57,230,190,236,178,160,228,274,229,217,105,3,232,271,296,263,259,43,245,89,29,123,150,237,208,146,235,224,189,172,75,186,22,253,281,138,9,264,257,240,289,102,46,18,129,20,113,41,297,205,1,242,60,276,183,249,181,39,258,72,125,91,8,104,268,53,197,156,100,243,73,45,214,68,211,299,248,162,37,191,106,58,34,135,131,200,223,13,212,55,71,101,62,144,173,74,99,50,206,76,288,151,83,175,93,164,295,36,283,266,6,59,145,168,174]","arrowright","0","8","60","300","[""0073_N0300_K0060_NOCLIQUE"",""0022_N0300_K0060_CLIQUE""]",""
"","audio-keyboard-response","92","852740","0.0-60.0-0.0-1.0","","","","","","","","","","","","","","","","","","null","audio_feedback/shuffles/shuffle01.mp3","null","","","0","8","60","300","[""0073_N0300_K0060_NOCLIQUE"",""0022_N0300_K0060_CLIQUE""]",""
"","canvas-keyboard-response","93","853904","0.0-60.1-0.1-0.1","","","","","","","","","","","","","","","","","","1106","","arrowright","[169,297,81,243,220,158,282,262,229,91,265,248,29,134,151,10,124,120,136,236,30,94,46,178,239,254,39,183,170,171,8,196,26,18,217,268,83,5,162,2,271,251,73,64,9,127,23,184,168,272,261,193,138,167,201,148,182,186,259,161,277,241,103,132,231,164,219,225,244,79,44,37,269,154,145,291,20,213,288,256,36,240,28,205,194,181,0,65,57,208,242,111,278,33,41,293,104,285,289,74,113,255,207,122,19,115,245,87,129,86,147,190,140,60,224,180,286,157,126,253,212,137,227,280,97,270,58,25,199,99,131,155,85,45,283,204,43,214,78,100,110,102,215,141,139,80,12,67,109,279,95,7,197,56,40,247,176,11,235,69,258,89,221,263,52,203,206,238,189,210,34,237,68,49,250,76,273,1,296,177,218,275,15,299,156,175,149,298,121,159,150,61,116,38,24,211,130,294,257,54,144,143,98,70,172,47,125,14,123,16,246,179,260,92,287,22,63,77,174,105,90,233,21,4,3,295,234,274,228,72,281,173,31,216,119,50,35,75,71,223,93,112,106,66,114,146,230,222,187,133,101,118,166,188,267,96,191,53,82,107,200,152,264,192,88,276,195,62,153,284,226,292,290,84,165,42,6,209,13,163,232,117,48,17,55,128,142,27,202,160,135,59,108,249,32,51,185,252,266,198]","arrowright","0","8","60","300","[""0073_N0300_K0060_NOCLIQUE"",""0022_N0300_K0060_CLIQUE""]","true"
"","audio-keyboard-response","94","854920","0.0-60.1-0.1-1.1","","","","","","","","","","","","","","","","","","null","audio_feedback/right/coin01.mp3","null","","","0","8","60","300","[""0073_N0300_K0060_NOCLIQUE"",""0022_N0300_K0060_CLIQUE""]",""
"","canvas-keyboard-response","95","860171","0.0-61.0-0.0-0.0","","","","","","","","","","","","","","","","","","5182",""," ","[22,265,264,244,75,138,209,40,144,86,160,263,91,43,282,223,33,197,65,247,275,297,60,224,181,199,228,245,178,4,92,161,250,259,179,196,219,226,269,251,205,41,191,57,51,25,29,134,136,58,218,287,79,14,220,235,143,107,123,239,118,276,63,156,207,298,109,42,169,145,9,108,253,77,152,3,124,139,39,84,88,155,8,172,257,46,170,35,73,262,200,104,24,294,260,214,53,252,113,258,6,174,189,48,13,7,149,286,11,180,271,15,157,76,105,236,204,168,242,44,274,243,93,159,176,211,37,119,90,267,21,238,97,133,23,101,234,121,102,131,241,115,175,103,248,72,36,52,1,132,279,151,217,255,249,212,201,32,95,114,162,268,299,87,288,112,122,56,280,266,28,206,80,100,283,188,246,295,18,195,116,140,148,222,85,45,221,98,82,64,182,292,296,2,10,216,27,55,78,229,202,99,54,146,277,129,173,130,210,273,62,31,81,154,83,20,127,68,284,203,183,163,227,66,106,49,278,186,153,69,110,230,261,285,19,17,240,30,59,89,192,47,147,38,141,71,34,231,164,96,215,126,135,74,128,50,291,290,293,70,289,117,171,193,125,61,256,16,194,67,187,270,190,198,184,26,158,111,165,150,208,254,213,142,177,232,0,167,166,137,225,185,12,120,272,281,94,5,233,237]","arrowright","0","9","60","300","[""0032_N0300_K0060_NOCLIQUE"",""0035_N0300_K0060_CLIQUE""]",""
"","audio-keyboard-response","96","861239","0.0-61.0-0.0-1.0","","","","","","","","","","","","","","","","","","null","audio_feedback/shuffles/shuffle01.mp3","null","","","0","9","60","300","[""0032_N0300_K0060_NOCLIQUE"",""0035_N0300_K0060_CLIQUE""]",""
"","canvas-keyboard-response","97","862317","0.0-61.1-0.1-0.1","","","","","","","","","","","","","","","","","","1023",""," ","[217,143,218,281,195,221,19,21,270,105,2,227,180,236,273,151,165,266,268,33,287,144,106,205,259,107,233,170,53,265,189,280,235,0,75,157,240,239,55,242,108,198,119,32,271,210,252,178,122,260,298,162,14,101,294,156,292,74,135,63,248,276,237,27,250,1,80,97,42,201,8,219,140,38,145,130,104,274,254,267,153,66,133,172,206,50,124,91,43,73,179,113,62,159,40,126,204,158,24,225,213,20,51,57,232,141,61,261,183,216,155,185,12,117,25,114,286,28,249,131,93,197,243,291,290,255,134,90,123,238,220,168,166,283,160,234,15,23,112,46,169,164,241,7,199,115,167,181,3,54,99,190,26,215,142,296,223,229,192,228,88,125,272,285,258,137,78,83,76,121,67,127,188,89,247,22,36,79,263,109,182,56,147,13,282,176,94,17,118,102,82,44,129,289,70,196,257,71,211,275,230,31,244,5,81,295,120,171,60,253,30,103,200,85,262,149,288,98,297,203,34,128,4,87,72,222,100,39,251,69,68,148,96,6,132,45,202,29,186,212,136,49,37,152,269,48,284,293,184,174,264,150,277,193,35,41,77,208,11,207,299,84,209,231,246,139,52,163,187,177,194,161,146,92,86,18,16,111,226,224,64,173,214,65,191,245,59,116,256,279,10,154,110,138,95,175,47,278,58,9]","arrowright","0","9","60","300","[""0032_N0300_K0060_NOCLIQUE"",""0035_N0300_K0060_CLIQUE""]",""
"","audio-keyboard-response","98","863400","0.0-61.1-0.1-1.1","","","","","","","","","","","","","","","","","","null","audio_feedback/shuffles/shuffle01.mp3","null","","","0","9","60","300","[""0032_N0300_K0060_NOCLIQUE"",""0035_N0300_K0060_CLIQUE""]",""
"","canvas-keyboard-response","99","864528","0.0-61.2-0.2-0.2","","","","","","","","","","","","","","","","","","1061","","arrowright","[53,231,48,252,198,220,85,160,270,154,4,153,262,103,244,128,9,146,3,233,229,112,207,209,258,121,181,122,123,58,34,6,125,29,20,113,285,91,26,273,242,50,292,81,148,138,257,92,175,120,52,43,166,51,83,164,97,14,111,173,106,178,219,37,186,167,168,115,133,206,68,141,61,278,152,60,280,176,274,18,12,171,225,239,64,238,55,134,177,259,25,266,276,172,298,261,132,33,65,109,36,38,144,182,114,288,211,107,116,243,93,2,208,22,89,100,101,170,190,47,203,189,248,155,46,95,289,290,163,195,253,296,216,62,249,0,212,5,17,180,297,78,217,39,102,284,293,210,142,13,218,11,214,105,49,188,16,59,35,254,226,19,136,299,157,30,263,275,221,286,67,197,151,255,137,191,127,247,185,76,24,230,73,279,256,287,281,291,129,215,234,54,42,162,108,213,251,223,165,264,272,66,224,192,199,8,150,74,193,282,241,283,1,94,228,96,265,156,7,260,88,77,98,187,79,56,135,245,21,72,87,131,161,236,80,277,84,40,82,119,201,70,271,124,145,117,90,194,71,69,149,204,41,159,23,104,139,183,294,267,222,110,86,269,10,75,174,196,205,235,99,202,158,28,45,169,63,143,246,57,44,15,27,32,250,200,126,140,232,295,227,268,184,237,240,130,147,179,31,118]","arrowright","0","9","60","300","[""0032_N0300_K0060_NOCLIQUE"",""0035_N0300_K0060_CLIQUE""]","true"
"","audio-keyboard-response","100","865520","0.0-61.2-0.2-1.2","","","","","","","","","","","","","","","","","","null","audio_feedback/right/coin01.mp3","null","","","0","9","60","300","[""0032_N0300_K0060_NOCLIQUE"",""0035_N0300_K0060_CLIQUE""]",""
"","canvas-keyboard-response","101","866529","0.0-62.0-0.0-0.0","","","","","","","","","","","","","","","","","","956",""," ","[148,87,260,110,8,163,188,27,251,7,289,278,92,286,129,177,161,265,299,109,218,255,284,135,224,97,165,81,102,291,217,190,115,283,13,263,198,207,285,290,91,113,281,28,257,56,157,43,83,242,12,144,9,139,123,88,143,147,67,246,250,33,168,220,53,210,141,61,1,104,32,178,225,164,213,208,69,201,182,152,192,86,173,226,209,203,294,271,149,288,292,211,90,122,52,4,117,180,197,82,241,243,279,21,145,15,256,24,37,106,68,30,236,74,116,146,126,261,219,119,132,183,84,60,137,63,75,51,200,100,130,5,101,77,170,44,160,159,169,150,42,297,262,94,48,216,248,124,179,6,26,193,39,296,45,167,205,204,175,189,269,3,136,54,49,142,181,133,229,127,99,287,138,235,19,275,111,221,35,125,85,277,172,212,36,267,206,273,29,202,280,131,0,47,215,40,16,184,249,174,154,93,298,108,112,25,266,103,78,64,58,272,38,155,230,162,252,22,72,11,55,270,194,237,80,20,295,17,222,245,140,259,66,240,41,247,121,105,118,114,156,34,120,18,70,244,65,223,128,171,238,231,253,95,59,31,96,276,214,79,2,227,50,234,195,62,89,233,186,134,46,264,23,258,73,254,176,239,107,71,274,166,282,293,268,10,187,98,14,185,76,232,191,151,158,153,57,228,199,196]","arrowleft","0","10","55","300","[""0072_N0300_K0055_CLIQUE"",""0002_N0300_K0055_NOCLIQUE""]",""
"","audio-keyboard-response","102","867619","0.0-62.0-0.0-1.0","","","","","","","","","","","","","","","","","","null","audio_feedback/shuffles/shuffle01.mp3","null","","","0","10","55","300","[""0072_N0300_K0055_CLIQUE"",""0002_N0300_K0055_NOCLIQUE""]",""
"","canvas-keyboard-response","103","868704","0.0-62.1-0.1-0.1","","","","","","","","","","","","","","","","","","1033",""," ","[284,293,239,236,251,229,58,86,90,151,225,165,91,242,299,245,277,209,256,33,159,222,202,139,68,173,95,278,4,295,246,280,192,175,244,23,48,24,190,82,164,128,110,52,226,199,1,195,231,253,152,234,15,112,12,41,134,230,274,39,92,101,185,78,179,21,191,85,273,162,158,47,67,183,146,160,56,109,167,214,147,132,63,36,232,8,46,254,276,174,65,252,258,51,141,181,223,154,249,248,247,206,122,228,227,37,177,182,171,9,233,265,267,55,35,16,119,93,235,262,200,197,31,294,28,157,123,133,129,180,286,60,264,136,49,290,73,107,257,102,220,121,263,62,105,7,153,187,205,250,138,124,219,296,291,125,54,126,196,57,99,168,144,186,96,84,6,70,3,281,203,135,32,260,127,268,150,198,193,211,259,34,155,29,285,76,50,83,111,270,38,19,131,106,201,27,289,212,215,53,0,148,269,207,22,100,216,104,13,189,108,59,64,279,94,275,117,145,114,77,188,75,30,176,266,241,297,149,115,184,81,61,282,224,237,14,11,66,45,240,271,208,163,18,137,113,161,283,69,103,172,26,287,118,74,210,97,221,116,272,140,261,298,218,194,166,120,288,2,243,169,43,156,80,178,10,42,292,89,17,5,20,142,238,98,40,88,170,25,87,71,79,217,204,213,255,44,72,143,130]","arrowleft","0","10","55","300","[""0072_N0300_K0055_CLIQUE"",""0002_N0300_K0055_NOCLIQUE""]",""
"","audio-keyboard-response","104","869779","0.0-62.1-0.1-1.1","","","","","","","","","","","","","","","","","","null","audio_feedback/shuffles/shuffle01.mp3","null","","","0","10","55","300","[""0072_N0300_K0055_CLIQUE"",""0002_N0300_K0055_NOCLIQUE""]",""
"","canvas-keyboard-response","105","870882","0.0-62.2-0.2-0.2","","","","","","","","","","","","","","","","","","1047",""," ","[246,198,7,33,272,262,106,92,164,121,273,237,65,67,180,87,290,64,254,185,175,224,221,66,248,251,242,117,15,187,104,294,109,113,35,184,166,160,234,146,271,22,45,90,120,212,5,189,72,26,286,207,32,211,68,58,53,206,288,151,168,3,42,61,8,126,244,130,44,199,170,240,16,39,60,299,165,52,223,177,41,74,47,213,131,220,0,209,57,77,195,204,108,138,291,144,230,235,226,276,171,125,28,233,115,50,85,128,245,91,259,229,205,31,107,24,30,55,264,256,156,46,137,132,134,139,182,111,169,9,54,18,219,228,215,94,84,161,80,296,167,135,201,280,98,119,12,6,38,277,105,82,59,257,284,252,255,127,78,40,62,179,274,200,292,10,114,13,37,100,157,155,27,150,263,197,81,75,1,232,216,2,73,112,293,275,19,178,124,83,103,122,123,289,266,191,162,196,278,142,129,20,71,217,239,260,143,181,298,93,86,148,202,17,70,149,11,43,25,243,265,231,69,225,152,188,136,236,95,176,163,208,76,287,267,96,261,147,249,63,269,218,21,183,238,295,258,174,99,116,51,241,250,192,283,153,159,297,140,4,29,36,102,158,97,14,172,285,270,88,214,227,222,23,48,281,247,133,194,154,173,253,56,186,279,203,190,145,101,193,282,34,49,141,79,110,210,268,89,118]","arrowleft","0","10","55","300","[""0072_N0300_K0055_CLIQUE"",""0002_N0300_K0055_NOCLIQUE""]",""
"","audio-keyboard-response","106","871959","0.0-62.2-0.2-1.2","","","","","","","","","","","","","","","","","","null","audio_feedback/shuffles/shuffle01.mp3","null","","","0","10","55","300","[""0072_N0300_K0055_CLIQUE"",""0002_N0300_K0055_NOCLIQUE""]",""
"","canvas-keyboard-response","107","874748","0.0-62.3-0.3-0.3","","","","","","","","","","","","","","","","","","2733",""," ","[241,295,213,99,159,266,31,232,47,136,243,34,293,173,230,220,72,210,148,187,65,201,215,244,39,44,178,280,287,88,255,177,229,125,111,131,157,189,126,183,264,104,156,3,79,43,29,160,49,130,117,209,239,23,242,57,7,51,282,52,221,155,140,274,124,290,222,206,13,4,203,143,199,33,262,284,84,196,70,240,180,283,90,35,153,106,83,28,59,96,219,121,2,298,58,123,100,62,152,149,233,66,91,202,109,1,138,158,286,137,61,185,42,129,260,285,45,105,37,144,267,171,263,175,81,147,67,110,101,151,181,278,191,249,92,14,251,107,73,56,277,85,71,256,128,168,271,204,24,41,120,257,174,246,217,165,200,86,236,223,261,134,268,118,182,22,169,207,176,30,166,76,27,237,292,115,235,224,276,112,26,139,32,38,11,95,97,194,184,108,216,64,218,40,119,248,135,234,227,225,212,179,98,19,5,54,103,8,161,114,20,145,154,55,297,258,245,279,231,89,275,16,193,68,132,21,211,172,12,252,77,50,113,247,164,82,94,48,46,162,253,36,190,259,146,226,289,15,296,167,170,270,228,87,78,186,291,208,18,188,163,69,195,142,238,192,141,102,75,269,197,133,299,122,265,288,60,63,17,273,250,93,294,6,214,205,0,127,10,53,116,25,254,9,198,272,80,150,74,281]","arrowleft","0","10","55","300","[""0072_N0300_K0055_CLIQUE"",""0002_N0300_K0055_NOCLIQUE""]",""
"","audio-keyboard-response","108","875820","0.0-62.3-0.3-1.3","","","","","","","","","","","","","","","","","","null","audio_feedback/shuffles/shuffle01.mp3","null","","","0","10","55","300","[""0072_N0300_K0055_CLIQUE"",""0002_N0300_K0055_NOCLIQUE""]",""
"","canvas-keyboard-response","109","877775","0.0-62.4-0.4-0.4","","","","","","","","","","","","","","","","","","1905",""," ","[212,263,126,47,60,78,69,110,229,254,299,176,186,264,116,149,152,224,217,210,97,225,195,235,76,214,52,172,125,278,26,237,35,70,292,260,281,274,22,187,30,109,6,114,182,177,209,98,106,63,188,100,179,29,245,107,144,284,183,88,31,49,71,168,253,223,77,143,120,102,0,86,271,133,130,32,189,2,51,131,185,91,147,101,135,220,216,242,165,173,298,244,234,279,54,108,294,8,55,222,239,206,94,161,280,163,270,227,113,46,85,111,150,13,257,283,241,178,16,272,119,218,288,117,249,11,50,243,42,208,99,118,157,198,36,132,236,136,285,250,155,1,67,296,24,39,175,289,57,286,159,221,160,84,164,28,79,167,44,75,194,181,122,64,38,145,213,267,148,166,62,139,156,10,231,170,68,295,15,43,58,169,37,23,7,83,4,48,141,89,12,282,219,293,261,201,140,124,87,199,25,269,247,297,158,33,93,193,273,275,204,61,153,203,255,18,276,9,240,127,5,20,105,112,290,59,205,226,137,190,248,202,21,17,95,171,45,265,73,41,162,154,262,180,258,72,287,134,92,291,121,197,104,82,65,27,256,233,246,228,215,3,251,174,277,53,80,200,14,96,34,207,259,191,252,192,129,230,238,151,81,19,232,211,103,90,268,146,266,115,40,56,128,66,138,74,142,184,123,196]","arrowleft","0","10","55","300","[""0072_N0300_K0055_CLIQUE"",""0002_N0300_K0055_NOCLIQUE""]",""
"","audio-keyboard-response","110","878859","0.0-62.4-0.4-1.4","","","","","","","","","","","","","","","","","","null","audio_feedback/shuffles/shuffle01.mp3","null","","","0","10","55","300","[""0072_N0300_K0055_CLIQUE"",""0002_N0300_K0055_NOCLIQUE""]",""
"","canvas-keyboard-response","111","880637","0.0-62.5-0.5-0.5","","","","","","","","","","","","","","","","","","1726","","arrowleft","[237,134,39,117,163,5,53,40,106,166,109,226,241,240,95,171,176,15,116,298,188,115,80,16,10,236,55,159,149,12,158,247,234,88,59,168,23,140,177,27,275,45,119,42,295,212,245,38,180,183,61,165,200,28,287,48,147,232,291,81,130,279,144,213,3,238,248,201,6,93,2,128,211,172,71,208,251,145,233,92,8,293,267,261,257,231,57,110,108,70,77,63,167,265,294,178,239,131,29,174,222,20,51,235,83,297,138,272,280,299,72,277,65,246,30,132,254,152,125,78,276,278,219,68,107,195,223,252,91,19,271,179,56,97,86,244,75,194,150,296,193,221,225,9,50,35,87,264,203,281,41,112,43,114,98,141,169,270,214,243,290,220,76,73,160,285,216,67,282,82,84,120,161,111,266,292,123,143,127,153,228,69,58,44,136,205,4,288,258,14,137,284,164,17,36,206,289,227,0,196,96,89,242,46,217,229,11,21,151,162,255,13,191,184,124,189,24,25,34,269,209,100,259,173,105,52,218,90,249,199,54,175,197,186,263,210,202,121,85,204,113,256,129,60,230,31,192,18,118,135,101,37,268,62,103,156,102,66,139,64,262,190,198,32,155,286,79,250,224,47,181,215,154,133,74,157,273,33,283,22,126,146,1,94,49,260,185,253,142,26,122,7,104,148,274,182,99,187,170,207]","arrowleft","0","10","55","300","[""0072_N0300_K0055_CLIQUE"",""0002_N0300_K0055_NOCLIQUE""]","true"
"","audio-keyboard-response","112","881641","0.0-62.5-0.5-1.5","","","","","","","","","","","","","","","","","","null","audio_feedback/right/coin01.mp3","null","","","0","10","55","300","[""0072_N0300_K0055_CLIQUE"",""0002_N0300_K0055_NOCLIQUE""]",""
"","canvas-keyboard-response","113","884554","0.0-63.0-0.0-0.0","","","","","","","","","","","","","","","","","","2867",""," ","[179,247,170,45,49,108,268,109,159,90,158,167,201,299,277,289,23,79,212,204,58,135,94,92,184,96,164,107,217,5,44,115,223,35,29,42,103,125,267,254,253,141,31,72,169,140,251,122,285,171,104,8,227,111,234,19,67,75,286,50,93,218,176,138,26,91,76,233,101,162,123,154,100,7,207,240,195,83,149,152,16,68,209,283,196,239,27,220,66,71,60,131,119,230,24,182,121,187,298,139,261,296,256,290,36,288,151,102,272,13,73,40,41,62,61,39,82,203,32,279,63,273,25,173,124,14,116,236,20,53,216,192,175,221,262,106,241,157,11,59,177,47,246,146,226,113,38,211,269,48,178,185,166,238,255,205,172,12,281,144,17,1,117,120,132,225,80,274,165,21,15,64,297,266,34,160,133,199,95,208,37,70,278,54,28,56,257,260,200,188,69,129,229,222,84,224,126,228,252,198,98,10,213,130,9,180,168,142,43,85,65,280,282,194,74,219,118,110,105,51,190,81,293,0,52,46,161,245,4,263,99,77,270,287,55,114,215,136,232,197,22,264,191,244,112,276,248,181,202,206,30,2,284,18,3,242,271,183,134,128,147,86,87,259,33,174,89,186,156,193,137,143,249,155,243,214,127,57,210,235,258,6,265,145,88,291,295,237,294,250,292,153,275,150,78,163,189,231,97,148]","arrowleft","0","11","55","300","[""0071_N0300_K0055_CLIQUE"",""0031_N0300_K0055_NOCLIQUE""]",""
"","audio-keyboard-response","114","885640","0.0-63.0-0.0-1.0","","","","","","","","","","","","","","","","","","null","audio_feedback/shuffles/shuffle01.mp3","null","","","0","11","55","300","[""0071_N0300_K0055_CLIQUE"",""0031_N0300_K0055_NOCLIQUE""]",""
"","canvas-keyboard-response","115","886730","0.0-63.1-0.1-0.1","","","","","","","","","","","","","","","","","","1036",""," ","[116,28,53,49,196,35,56,147,245,284,294,58,93,211,144,4,225,218,91,25,157,46,164,45,154,197,227,139,235,195,39,165,226,166,198,19,271,137,128,113,282,223,280,185,295,238,172,268,193,263,103,207,237,132,143,8,23,74,17,251,110,257,47,63,61,215,292,44,60,167,131,173,109,41,95,50,138,160,153,239,234,288,129,146,287,31,260,286,124,216,261,0,180,228,71,11,125,256,199,1,82,133,203,55,73,208,175,283,248,205,210,6,135,141,59,126,106,115,119,281,148,161,168,279,296,150,247,291,100,212,200,48,130,81,114,202,32,224,117,27,254,40,192,75,252,236,266,83,182,298,278,206,194,37,90,229,34,42,190,20,85,9,24,270,88,121,151,163,13,92,285,145,220,51,269,214,217,127,69,104,246,72,80,231,174,259,249,276,156,78,262,112,170,7,289,250,22,52,134,243,258,230,244,178,233,122,64,274,275,184,299,68,10,221,54,26,232,176,5,136,70,241,36,57,105,169,149,99,273,84,16,142,209,101,297,290,179,155,107,204,264,181,265,89,188,97,118,253,62,43,183,240,177,213,123,87,67,219,222,94,98,33,111,108,152,159,38,187,272,293,120,255,30,158,66,29,191,14,201,277,15,189,86,12,162,171,102,21,140,242,77,267,18,76,2,79,3,65,96,186]","arrowleft","0","11","55","300","[""0071_N0300_K0055_CLIQUE"",""0031_N0300_K0055_NOCLIQUE""]",""
"","audio-keyboard-response","116","887799","0.0-63.1-0.1-1.1","","","","","","","","","","","","","","","","","","null","audio_feedback/shuffles/shuffle01.mp3","null","","","0","11","55","300","[""0071_N0300_K0055_CLIQUE"",""0031_N0300_K0055_NOCLIQUE""]",""
"","canvas-keyboard-response","117","889164","0.0-63.2-0.2-0.2","","","","","","","","","","","","","","","","","","1307",""," ","[29,100,28,10,96,19,208,85,298,137,80,30,78,31,105,212,12,258,114,279,296,129,203,153,27,68,125,277,189,9,239,297,190,104,135,174,202,256,50,144,11,145,253,294,252,200,272,70,139,45,55,73,270,83,274,268,222,233,157,214,225,33,216,210,26,89,249,232,265,23,285,122,173,56,99,84,130,276,91,247,13,48,218,193,183,39,245,176,117,5,299,235,168,40,156,241,192,88,283,53,164,273,22,103,92,93,175,264,18,46,121,140,118,24,37,186,54,133,47,229,102,177,57,76,21,184,196,77,160,59,195,75,162,161,169,81,15,246,170,167,152,199,71,101,8,226,262,86,151,263,113,38,259,58,251,271,149,166,74,43,60,206,267,204,269,289,275,112,181,260,209,3,236,182,290,138,111,227,281,72,82,228,106,211,282,87,110,34,127,178,67,62,171,250,201,134,20,16,219,240,79,278,179,143,291,180,288,25,41,51,254,266,234,198,120,126,213,217,17,65,237,242,131,136,238,194,119,115,197,230,286,66,63,107,61,90,32,215,148,185,159,52,223,261,287,154,0,4,95,1,292,109,49,132,98,44,293,116,295,36,220,248,172,35,243,14,6,123,205,64,142,147,187,224,284,7,141,124,255,69,221,244,2,94,158,146,97,165,231,191,280,42,163,207,188,150,108,155,128,257]","arrowleft","0","11","55","300","[""0071_N0300_K0055_CLIQUE"",""0031_N0300_K0055_NOCLIQUE""]",""
"","audio-keyboard-response","118","890240","0.0-63.2-0.2-1.2","","","","","","","","","","","","","","","","","","null","audio_feedback/shuffles/shuffle01.mp3","null","","","0","11","55","300","[""0071_N0300_K0055_CLIQUE"",""0031_N0300_K0055_NOCLIQUE""]",""
"","canvas-keyboard-response","119","892753","0.0-63.3-0.3-0.3","","","","","","","","","","","","","","","","","","2447",""," ","[236,244,159,295,188,138,40,212,157,118,60,148,228,275,67,134,22,86,254,17,213,130,48,99,6,143,127,197,132,223,136,104,14,147,106,290,260,242,160,296,38,173,78,274,0,248,55,82,103,129,8,286,151,5,30,72,285,291,247,261,9,81,61,241,221,207,284,229,222,178,217,146,145,155,198,269,211,77,50,98,53,208,265,278,184,162,133,123,68,299,75,2,10,252,71,233,54,108,237,16,52,255,239,149,294,13,220,88,187,59,258,281,128,58,124,92,18,191,49,263,186,87,45,114,250,131,287,23,83,272,28,19,25,111,15,277,174,97,240,203,12,33,24,29,279,219,190,70,4,193,84,245,214,135,271,158,288,161,1,113,289,27,44,249,267,164,165,176,153,3,31,276,109,125,107,246,100,73,209,20,202,96,179,282,139,283,270,218,216,57,74,185,117,36,257,251,266,170,210,64,110,39,262,79,120,141,234,150,206,32,76,47,42,35,142,195,102,51,238,230,144,56,122,264,175,192,297,119,112,7,172,43,126,11,34,232,90,273,66,89,152,180,166,200,169,121,177,227,259,225,46,199,116,215,183,243,163,181,298,63,93,26,189,140,69,105,280,62,256,115,156,91,80,253,201,231,196,194,268,204,41,37,167,21,94,65,101,85,293,292,154,182,137,205,224,168,171,95,226,235]","arrowleft","0","11","55","300","[""0071_N0300_K0055_CLIQUE"",""0031_N0300_K0055_NOCLIQUE""]",""
"","audio-keyboard-response","120","893818","0.0-63.3-0.3-1.3","","","","","","","","","","","","","","","","","","null","audio_feedback/shuffles/shuffle01.mp3","null","","","0","11","55","300","[""0071_N0300_K0055_CLIQUE"",""0031_N0300_K0055_NOCLIQUE""]",""
"","canvas-keyboard-response","121","895443","0.0-63.4-0.4-0.4","","","","","","","","","","","","","","","","","","1570","","arrowleft","[160,107,216,14,229,173,223,48,74,97,142,81,9,34,158,264,181,30,287,87,89,103,85,286,176,8,211,206,141,249,196,164,179,165,55,60,39,36,190,32,279,197,75,250,93,255,222,10,162,224,294,7,174,116,149,202,91,69,291,145,126,40,109,128,111,214,168,187,213,129,127,95,120,53,296,73,193,212,188,96,151,148,225,110,265,207,154,299,256,112,246,269,272,117,278,15,104,284,226,290,240,192,235,0,204,92,219,122,220,195,29,152,252,247,248,67,80,281,70,27,20,191,280,267,215,88,268,44,118,274,234,119,26,283,242,108,72,194,175,123,293,83,261,285,180,258,19,77,237,22,12,16,38,257,50,6,82,13,156,133,25,170,217,43,94,61,42,68,228,33,46,5,125,124,262,260,199,243,201,137,203,221,185,56,289,266,90,21,205,218,275,253,236,31,155,259,114,121,263,159,130,102,233,153,144,182,231,251,241,270,227,295,98,66,115,99,198,147,18,101,23,183,232,105,17,150,78,71,1,239,62,113,63,167,282,3,138,131,45,171,64,178,297,24,200,157,58,189,288,132,177,57,163,100,106,76,172,292,49,65,134,37,135,143,86,298,79,166,238,146,186,136,230,161,84,52,273,271,169,184,277,4,41,47,209,2,28,208,276,139,254,245,35,244,210,59,140,11,54,51]","arrowleft","0","11","55","300","[""0071_N0300_K0055_CLIQUE"",""0031_N0300_K0055_NOCLIQUE""]","true"
"","audio-keyboard-response","122","896438","0.0-63.4-0.4-1.4","","","","","","","","","","","","","","","","","","null","audio_feedback/right/coin01.mp3","null","","","0","11","55","300","[""0071_N0300_K0055_CLIQUE"",""0031_N0300_K0055_NOCLIQUE""]",""
"","canvas-keyboard-response","123","899319","0.0-64.0-0.0-0.0","","","","","","","","","","","","","","","","","","2826","","arrowright","[116,42,34,89,244,102,267,189,277,70,63,136,287,90,75,176,117,114,184,50,218,279,100,186,238,118,180,48,31,262,1,285,163,2,169,107,45,266,3,234,241,247,103,84,93,127,58,41,190,64,61,274,53,198,229,5,214,191,148,62,210,178,166,112,56,124,196,270,292,134,172,249,144,268,0,251,296,76,66,240,99,80,139,133,15,140,212,146,160,264,6,282,227,215,149,73,151,35,278,123,226,209,109,202,256,157,194,95,197,10,183,170,230,235,283,47,246,208,24,60,255,237,12,265,23,154,38,14,263,207,51,222,37,200,82,78,85,155,232,177,204,281,221,156,225,17,145,164,168,106,137,233,22,67,299,122,49,153,272,181,71,27,293,68,223,161,253,79,288,220,121,110,217,252,236,275,165,273,147,280,29,243,174,108,98,185,86,125,295,74,54,298,36,81,92,138,119,269,271,104,250,224,192,28,69,18,216,65,171,26,113,162,130,201,297,77,195,52,203,173,115,97,120,101,4,193,245,254,143,96,141,290,55,175,72,213,248,182,239,260,257,94,83,291,159,289,205,167,199,132,188,231,219,19,88,206,276,11,152,25,126,59,9,294,242,150,284,129,44,128,7,228,286,179,43,40,105,16,32,57,131,33,46,187,87,91,8,111,30,142,211,135,21,20,259,13,261,158,39,258]","arrowright","0","12","50","300","[""0035_N0300_K0050_NOCLIQUE"",""0014_N0300_K0050_CLIQUE""]","true"
"","audio-keyboard-response","124","900318","0.0-64.0-0.0-1.0","","","","","","","","","","","","","","","","","","null","audio_feedback/right/coin01.mp3","null","","","0","12","50","300","[""0035_N0300_K0050_NOCLIQUE"",""0014_N0300_K0050_CLIQUE""]",""
"","canvas-keyboard-response","125","903074","0.0-65.0-0.0-0.0","","","","","","","","","","","","","","","","","","2691",""," ","[278,286,160,104,175,183,292,37,13,113,20,274,277,158,38,136,168,209,181,276,222,218,190,76,154,205,207,130,54,203,108,285,214,29,63,282,252,159,152,81,248,186,157,72,74,12,95,86,96,105,146,165,269,41,249,7,77,4,73,18,243,231,128,253,27,290,125,97,284,296,293,171,126,99,235,135,188,94,291,258,5,178,211,263,57,45,234,34,35,141,134,176,92,139,184,193,230,58,33,148,197,220,121,299,25,194,40,82,122,71,3,164,237,110,28,288,265,166,6,16,90,281,195,233,212,287,23,117,50,144,0,210,9,213,266,145,115,221,275,83,39,143,26,131,271,251,185,103,244,55,191,56,227,256,138,298,78,127,53,199,254,22,216,120,88,225,232,19,52,208,100,187,119,129,247,59,85,255,245,259,132,69,44,91,30,31,297,229,250,174,32,279,239,272,242,264,89,14,161,226,204,49,224,163,196,47,155,167,238,93,102,62,240,268,98,70,273,36,43,42,162,116,219,68,156,260,109,267,133,46,21,246,8,11,24,283,192,169,65,142,147,1,60,170,111,200,236,66,228,140,150,182,10,180,149,262,295,67,17,198,123,173,172,151,107,112,177,189,261,2,80,124,217,84,202,64,289,101,215,118,114,48,257,106,153,270,137,61,223,51,87,179,15,294,79,75,241,201,206,280]","arrowleft","0","13","50","300","[""0026_N0300_K0050_CLIQUE"",""0075_N0300_K0050_NOCLIQUE""]",""
"","audio-keyboard-response","126","904138","0.0-65.0-0.0-1.0","","","","","","","","","","","","","","","","","","null","audio_feedback/shuffles/shuffle01.mp3","null","","","0","13","50","300","[""0026_N0300_K0050_CLIQUE"",""0075_N0300_K0050_NOCLIQUE""]",""
"","canvas-keyboard-response","127","905730","0.0-65.1-0.1-0.1","","","","","","","","","","","","","","","","","","1533","","arrowright","[56,148,2,274,211,178,210,122,219,234,168,252,179,51,83,254,123,160,7,241,87,72,291,70,25,289,152,97,251,229,5,270,136,248,175,45,174,159,78,150,12,260,282,67,76,275,225,153,52,264,149,239,244,157,213,46,288,115,294,257,279,199,226,255,295,58,180,267,35,114,144,236,31,10,284,203,1,218,276,3,64,261,221,65,240,53,107,11,96,4,151,34,165,292,141,192,297,116,227,124,266,130,23,182,120,263,49,277,101,119,71,108,209,238,249,77,246,68,36,48,268,8,109,59,224,98,197,262,112,172,166,43,247,230,117,194,207,100,253,280,212,17,258,156,217,286,273,232,13,293,74,61,142,167,38,206,163,104,143,215,296,14,105,24,164,183,205,198,169,191,272,84,44,256,187,233,75,50,223,66,299,22,140,176,237,91,201,127,154,235,185,41,259,132,37,27,57,170,69,228,271,129,81,283,99,196,82,158,18,145,79,125,290,204,92,135,9,26,190,102,131,28,216,15,47,113,63,60,103,195,138,184,146,281,285,89,181,118,250,177,242,245,54,111,55,20,188,186,202,189,16,93,220,200,133,121,110,95,29,86,80,106,222,88,265,85,39,126,193,231,147,161,90,94,171,134,42,21,173,19,139,155,6,243,62,40,298,214,32,208,287,269,33,73,128,278,162,30,137,0]","arrowleft","0","13","50","300","[""0026_N0300_K0050_CLIQUE"",""0075_N0300_K0050_NOCLIQUE""]","false"
"","audio-keyboard-response","128","906738","0.0-65.1-0.1-1.1","","","","","","","","","","","","","","","","","","null","audio_feedback/wrong/error01.mp3","null","","","0","13","50","300","[""0026_N0300_K0050_CLIQUE"",""0075_N0300_K0050_NOCLIQUE""]",""
"","canvas-keyboard-response","129","910251","0.0-66.0-0.0-0.0","","","","","","","","","","","","","","","","","","3462",""," ","[87,210,128,208,103,265,174,35,260,3,168,257,138,264,77,283,0,33,113,149,180,28,284,224,6,82,165,206,11,151,214,296,169,242,295,114,213,228,88,212,130,282,8,76,110,111,135,226,249,12,37,271,216,132,291,59,105,16,162,47,79,276,104,220,253,106,237,256,181,186,25,96,182,57,46,288,250,44,244,108,101,15,198,285,60,121,153,137,157,125,40,32,26,129,13,292,45,118,49,170,239,71,145,269,14,73,209,176,194,136,227,179,53,50,189,196,233,120,154,255,94,64,204,190,147,155,65,100,36,107,197,238,286,27,66,97,134,235,30,144,93,5,192,91,236,58,268,201,221,218,251,1,90,184,109,112,272,43,172,229,241,297,23,230,122,119,185,298,70,148,199,80,51,152,294,248,267,178,240,68,55,22,42,29,167,85,139,2,89,266,48,9,252,231,41,69,258,166,191,72,98,246,222,173,281,175,140,161,143,75,146,207,39,279,62,31,219,131,17,177,164,193,290,102,86,187,83,74,4,34,127,195,56,160,19,67,52,141,202,123,24,200,171,142,7,299,78,61,274,92,133,84,20,262,183,234,203,159,261,117,287,289,278,232,21,10,126,277,243,156,275,254,115,81,225,95,150,247,18,163,205,273,99,211,158,259,217,124,54,188,215,38,116,270,280,63,263,293,245,223]","arrowleft","0","14","45","300","[""0010_N0300_K0045_CLIQUE"",""0034_N0300_K0045_NOCLIQUE""]",""
"","audio-keyboard-response","130","911338","0.0-66.0-0.0-1.0","","","","","","","","","","","","","","","","","","null","audio_feedback/shuffles/shuffle01.mp3","null","","","0","14","45","300","[""0010_N0300_K0045_CLIQUE"",""0034_N0300_K0045_NOCLIQUE""]",""
"","canvas-keyboard-response","131","912785","0.0-66.1-0.1-0.1","","","","","","","","","","","","","","","","","","1390",""," ","[32,245,203,283,220,248,60,269,226,92,238,72,62,299,158,298,292,44,284,88,294,293,196,57,43,111,116,108,9,39,214,297,145,15,80,97,290,130,277,192,197,208,262,219,259,268,276,181,102,82,47,233,190,163,213,230,258,104,55,2,35,25,235,33,128,126,147,29,161,254,236,48,256,4,74,135,175,263,27,154,12,234,83,210,173,110,52,218,51,100,204,159,136,152,278,215,188,121,271,117,274,119,212,252,177,109,280,49,224,202,54,157,124,211,69,264,209,165,11,132,223,61,0,120,63,143,195,125,23,45,289,85,122,200,66,267,193,225,24,179,229,282,34,148,178,151,253,241,68,168,279,160,167,176,113,37,222,285,103,91,58,270,118,287,75,207,87,22,155,42,77,107,295,228,244,133,30,89,180,115,26,296,6,53,257,123,166,187,153,138,281,164,5,46,95,84,41,129,64,240,162,182,28,3,137,291,14,231,127,255,194,184,150,13,250,206,65,70,114,18,78,191,98,40,246,217,17,79,170,149,265,227,96,144,171,201,101,38,36,139,134,183,71,232,76,242,169,288,205,221,251,59,198,20,105,272,189,141,260,73,67,31,199,239,185,174,106,266,172,156,99,50,16,8,56,261,1,19,142,216,247,243,86,112,286,275,273,249,186,90,10,146,93,140,237,81,94,7,21,131]","arrowleft","0","14","45","300","[""0010_N0300_K0045_CLIQUE"",""0034_N0300_K0045_NOCLIQUE""]",""
"","audio-keyboard-response","132","913858","0.0-66.1-0.1-1.1","","","","","","","","","","","","","","","","","","null","audio_feedback/shuffles/shuffle01.mp3","null","","","0","14","45","300","[""0010_N0300_K0045_CLIQUE"",""0034_N0300_K0045_NOCLIQUE""]",""
"","canvas-keyboard-response","133","915489","0.0-66.2-0.2-0.2","","","","","","","","","","","","","","","","","","1575","","arrowright","[180,202,211,84,25,210,149,250,224,207,193,165,117,195,248,70,1,3,194,231,5,8,164,156,254,238,208,20,111,80,113,56,67,88,289,55,245,140,115,62,297,293,235,40,251,226,136,74,162,127,252,230,107,51,81,189,240,159,77,247,139,155,130,118,178,197,22,190,237,108,0,257,279,283,196,280,212,60,282,12,101,54,151,16,163,85,64,274,68,61,105,66,215,285,214,266,273,181,243,135,98,65,10,153,228,37,270,233,269,223,57,92,4,126,268,47,234,132,275,185,172,171,170,91,205,166,174,255,125,128,32,219,116,264,95,46,229,258,131,83,296,221,242,216,192,265,227,36,150,259,76,187,24,145,63,225,232,99,201,13,29,7,9,177,71,217,133,53,106,79,134,161,21,137,119,288,100,256,299,218,260,6,292,52,19,298,102,89,183,253,2,144,23,30,109,295,152,246,90,154,103,160,239,86,182,44,75,281,104,284,59,11,287,169,138,200,157,58,203,236,188,168,291,278,49,96,267,45,87,17,271,277,199,290,26,94,69,35,148,249,34,241,143,73,262,222,122,18,114,184,28,123,50,72,39,204,112,206,186,213,198,15,220,124,191,78,121,43,147,93,31,175,272,173,179,120,263,294,41,209,176,276,286,141,158,27,33,146,244,38,167,261,42,48,82,14,97,129,142,110]","arrowleft","0","14","45","300","[""0010_N0300_K0045_CLIQUE"",""0034_N0300_K0045_NOCLIQUE""]","false"
"","audio-keyboard-response","134","916478","0.0-66.2-0.2-1.2","","","","","","","","","","","","","","","","","","null","audio_feedback/wrong/error01.mp3","null","","","0","14","45","300","[""0010_N0300_K0045_CLIQUE"",""0034_N0300_K0045_NOCLIQUE""]",""
"","canvas-keyboard-response","135","917499","0.0-67.0-0.0-0.0","","","","","","","","","","","","","","","","","","940",""," ","[167,188,189,229,293,134,18,191,179,150,170,68,80,107,87,177,49,4,249,100,161,33,70,126,163,248,110,24,144,243,226,282,157,194,218,185,209,61,171,117,159,255,245,216,101,32,93,187,21,292,43,222,132,66,39,247,261,287,186,133,141,111,276,238,85,273,89,60,2,76,35,169,283,129,236,97,211,16,40,1,31,262,270,34,22,260,45,251,65,154,240,267,147,212,224,242,64,233,19,203,108,199,54,5,198,41,291,289,140,290,48,217,168,285,78,204,82,113,205,272,13,201,182,228,252,250,73,173,146,94,225,0,284,109,158,239,181,288,269,184,81,221,130,298,237,77,160,59,71,195,91,286,207,153,29,104,213,135,265,223,174,190,259,235,20,176,151,79,8,90,17,220,3,142,42,297,98,166,63,299,143,230,28,128,88,125,172,112,7,123,12,231,15,23,120,136,139,57,196,296,75,122,6,47,44,295,210,30,244,10,280,278,156,58,246,234,197,86,241,106,152,219,148,281,37,105,51,14,56,256,83,164,253,116,206,52,103,232,257,254,266,271,72,53,114,180,208,183,92,137,127,263,67,119,11,149,175,178,38,214,277,26,25,96,55,62,279,124,102,258,95,215,84,202,115,294,118,121,99,274,165,193,36,155,227,50,131,138,69,162,192,200,74,264,27,275,46,145,9,268]","arrowright","0","15","45","300","[""0053_N0300_K0045_NOCLIQUE"",""0002_N0300_K0045_CLIQUE""]",""
"","audio-keyboard-response","136","918578","0.0-67.0-0.0-1.0","","","","","","","","","","","","","","","","","","null","audio_feedback/shuffles/shuffle01.mp3","null","","","0","15","45","300","[""0053_N0300_K0045_NOCLIQUE"",""0002_N0300_K0045_CLIQUE""]",""
"","canvas-keyboard-response","137","919724","0.0-67.1-0.1-0.1","","","","","","","","","","","","","","","","","","1088",""," ","[251,177,198,153,104,123,3,95,85,9,144,230,293,118,149,116,154,158,84,253,67,40,71,63,259,8,136,103,277,244,291,32,110,96,54,45,166,78,169,148,88,196,285,47,283,142,161,49,246,64,50,258,17,186,219,240,132,124,41,31,208,280,1,27,106,152,22,0,189,222,250,297,276,235,227,14,247,107,294,231,263,288,37,28,141,150,181,57,66,236,70,199,270,89,248,170,172,261,11,229,12,100,55,221,30,97,279,188,92,175,155,75,56,262,205,225,190,213,52,249,121,69,159,72,94,233,255,218,26,165,36,273,43,274,216,275,33,34,133,76,238,187,197,182,105,77,176,214,62,191,4,209,44,192,256,264,245,269,87,185,281,195,102,6,137,266,156,65,46,160,131,101,296,271,5,117,108,99,243,53,82,20,210,90,38,73,60,29,10,194,15,35,25,113,206,203,242,74,162,228,24,202,272,16,125,86,237,163,93,267,83,114,42,289,130,268,122,126,59,23,224,173,239,252,2,232,98,211,257,265,212,290,226,220,81,193,164,51,178,135,299,128,167,168,201,143,19,80,151,287,112,215,254,200,278,298,119,140,39,204,48,147,174,7,145,120,146,111,260,139,109,91,13,68,217,282,223,180,234,127,241,292,115,179,207,21,129,157,134,171,138,284,286,79,184,295,58,18,61,183]","arrowright","0","15","45","300","[""0053_N0300_K0045_NOCLIQUE"",""0002_N0300_K0045_CLIQUE""]",""
"","audio-keyboard-response","138","920799","0.0-67.1-0.1-1.1","","","","","","","","","","","","","","","","","","null","audio_feedback/shuffles/shuffle01.mp3","null","","","0","15","45","300","[""0053_N0300_K0045_NOCLIQUE"",""0002_N0300_K0045_CLIQUE""]",""
"","canvas-keyboard-response","139","922263","0.0-67.2-0.2-0.2","","","","","","","","","","","","","","","","","","1393",""," ","[107,249,217,124,148,62,174,17,266,237,26,130,280,175,281,232,254,201,178,278,2,112,168,271,116,238,170,99,122,248,265,256,177,33,31,137,171,273,94,260,83,21,213,276,189,55,0,242,35,221,78,44,18,164,136,102,185,198,39,176,127,90,295,208,194,46,183,290,187,270,135,227,167,219,132,81,84,203,5,13,98,268,158,4,153,108,282,73,149,214,283,47,70,294,240,188,74,202,289,126,267,117,154,109,8,120,225,172,179,95,58,244,27,292,190,150,251,144,110,257,180,133,7,287,53,65,85,105,115,173,16,296,297,52,155,23,11,6,38,165,66,61,71,63,200,246,89,293,228,25,184,104,125,145,186,121,229,40,134,298,118,269,156,49,182,41,262,224,191,80,277,69,123,197,114,103,181,138,119,288,128,274,86,37,216,286,161,88,147,261,1,234,3,42,91,60,72,22,235,20,250,10,255,12,59,272,51,218,100,159,166,196,291,140,96,243,285,111,48,245,157,230,139,275,75,284,67,82,222,236,252,36,211,24,30,87,258,247,160,15,205,169,264,79,239,151,233,97,93,299,28,131,162,43,226,231,57,279,9,253,141,106,207,54,152,76,32,195,56,193,29,143,64,77,206,212,192,113,129,50,223,209,241,14,220,19,263,163,68,142,259,204,34,45,101,210,146,199,215,92]","arrowright","0","15","45","300","[""0053_N0300_K0045_NOCLIQUE"",""0002_N0300_K0045_CLIQUE""]",""
"","audio-keyboard-response","140","923338","0.0-67.2-0.2-1.2","","","","","","","","","","","","","","","","","","null","audio_feedback/shuffles/shuffle01.mp3","null","","","0","15","45","300","[""0053_N0300_K0045_NOCLIQUE"",""0002_N0300_K0045_CLIQUE""]",""
"","canvas-keyboard-response","141","925239","0.0-67.3-0.3-0.3","","","","","","","","","","","","","","","","","","1844",""," ","[130,224,269,112,196,23,7,134,95,110,98,247,151,125,246,281,285,202,126,148,146,58,295,225,9,273,85,142,190,266,137,24,192,131,267,81,296,200,59,108,278,77,54,43,68,261,6,299,252,227,275,228,122,47,174,18,90,226,201,32,232,217,293,38,62,222,188,239,294,49,218,160,292,238,210,168,116,207,45,20,172,51,11,164,169,52,177,191,165,75,250,178,180,93,279,241,80,253,184,97,37,115,159,166,264,220,14,121,249,123,289,8,21,39,12,244,127,162,100,56,139,143,154,256,182,245,86,223,186,42,16,91,33,2,15,83,153,185,265,298,179,194,150,107,287,96,13,240,272,205,3,29,76,124,78,259,255,199,157,155,87,206,17,286,72,276,0,283,291,46,40,236,248,187,138,219,128,84,198,208,25,106,57,82,144,203,34,271,99,209,204,243,235,163,158,231,50,212,290,60,221,129,1,89,117,27,215,92,170,229,260,31,113,277,176,193,70,251,120,141,145,101,10,234,282,189,4,61,140,26,171,233,53,297,136,270,118,135,71,41,119,5,19,268,66,149,103,114,48,132,35,22,254,30,195,216,167,258,36,64,197,183,280,109,156,181,102,214,44,147,263,69,73,173,88,288,230,67,111,161,104,242,152,79,63,274,213,284,28,65,133,262,105,257,175,74,94,211,237,55]","arrowright","0","15","45","300","[""0053_N0300_K0045_NOCLIQUE"",""0002_N0300_K0045_CLIQUE""]",""
"","audio-keyboard-response","142","926318","0.0-67.3-0.3-1.3","","","","","","","","","","","","","","","","","","null","audio_feedback/shuffles/shuffle01.mp3","null","","","0","15","45","300","[""0053_N0300_K0045_NOCLIQUE"",""0002_N0300_K0045_CLIQUE""]",""
"","canvas-keyboard-response","143","927773","0.0-67.4-0.4-0.4","","","","","","","","","","","","","","","","","","1396","","arrowright","[97,262,217,233,114,175,112,98,194,220,191,243,40,139,70,43,46,15,163,187,127,226,42,107,35,8,198,3,132,155,151,154,33,69,283,173,167,5,135,50,138,178,122,206,53,249,245,105,219,256,193,246,170,80,143,237,216,57,224,275,67,10,66,276,284,121,190,51,255,168,71,22,129,34,235,293,76,48,290,130,32,152,106,236,26,55,39,297,254,159,125,223,205,177,84,169,288,79,83,144,176,221,215,267,279,269,90,124,41,157,31,131,9,199,17,264,209,14,119,211,227,60,184,241,295,92,115,181,208,240,268,161,87,272,64,160,49,247,164,6,100,0,156,113,59,277,270,182,261,96,25,13,88,109,207,44,147,287,260,158,72,73,16,174,62,61,120,11,162,253,292,280,128,153,75,165,271,111,166,68,251,118,185,89,58,52,28,234,148,258,77,229,273,196,214,286,117,172,212,259,86,56,110,104,19,18,202,257,141,192,266,248,126,82,78,133,1,204,231,101,37,27,137,142,203,200,186,189,238,24,36,12,239,263,183,242,95,294,20,291,171,195,136,180,285,213,289,63,85,188,210,23,4,140,149,30,47,134,7,108,116,232,29,123,228,265,103,201,38,197,298,230,93,278,102,244,91,45,74,274,299,146,150,81,252,65,222,250,145,282,179,21,296,218,54,99,94,2,225,281]","arrowright","0","15","45","300","[""0053_N0300_K0045_NOCLIQUE"",""0002_N0300_K0045_CLIQUE""]","true"
"","audio-keyboard-response","144","928779","0.0-67.4-0.4-1.4","","","","","","","","","","","","","","","","","","null","audio_feedback/right/coin01.mp3","null","","","0","15","45","300","[""0053_N0300_K0045_NOCLIQUE"",""0002_N0300_K0045_CLIQUE""]",""
"","canvas-keyboard-response","145","930612","0.0-68.0-0.0-0.0","","","","","","","","","","","","","","","","","","1760","","arrowright","[58,212,36,283,145,167,168,2,136,96,19,200,10,47,106,291,100,289,262,75,255,15,153,83,164,211,182,132,115,134,126,257,284,99,72,169,71,40,181,250,236,69,110,26,242,54,143,278,269,245,90,64,251,20,222,1,52,5,201,219,165,192,49,133,30,28,298,97,130,258,12,228,235,285,98,246,297,120,254,264,109,227,176,105,9,95,117,43,177,202,147,84,22,206,128,151,173,107,180,281,41,293,114,234,220,231,23,217,7,123,81,127,80,210,0,62,157,135,70,14,274,237,39,260,184,213,137,239,6,209,25,215,203,243,129,138,77,158,224,244,91,140,33,112,252,154,198,241,8,131,279,65,171,92,292,249,141,124,186,53,207,59,230,13,86,178,60,272,116,73,46,144,208,21,166,4,108,152,295,104,142,296,193,66,57,11,238,265,221,150,214,172,79,139,287,174,67,119,263,148,32,223,277,101,111,191,170,44,93,31,185,205,267,188,118,299,149,89,187,125,229,29,34,197,275,190,196,155,248,113,216,35,3,78,16,42,159,82,68,273,204,45,276,282,85,280,87,288,270,76,294,247,88,183,195,271,266,226,162,38,17,122,225,268,286,94,55,160,218,56,50,290,253,256,161,240,156,146,163,121,63,259,194,189,102,103,61,261,27,233,199,179,74,232,24,18,37,175,51,48]","arrowright","0","16","40","300","[""0016_N0300_K0040_NOCLIQUE"",""0025_N0300_K0040_CLIQUE""]","true"
"","audio-keyboard-response","146","931619","0.0-68.0-0.0-1.0","","","","","","","","","","","","","","","","","","null","audio_feedback/right/coin01.mp3","null","","","0","16","40","300","[""0016_N0300_K0040_NOCLIQUE"",""0025_N0300_K0040_CLIQUE""]",""
"","canvas-keyboard-response","147","935994","0.0-69.0-0.0-0.0","","","","","","","","","","","","","","","","","","4316",""," ","[180,233,15,153,31,151,188,234,149,83,165,167,9,246,172,121,264,89,35,78,230,70,216,32,48,286,222,178,194,171,50,295,96,72,203,266,228,63,95,132,64,204,187,29,88,192,27,198,207,20,273,107,197,94,73,270,135,254,174,124,157,24,133,170,100,284,263,249,112,67,193,267,158,26,8,179,191,16,168,269,138,0,259,39,66,268,271,59,97,255,252,225,148,274,162,22,209,99,238,118,125,146,159,28,55,69,93,226,289,44,297,196,288,33,250,110,106,210,285,17,205,163,37,261,81,7,137,13,257,52,152,30,280,177,299,145,123,142,292,189,6,219,240,294,19,128,75,68,79,45,18,113,227,65,185,156,34,10,290,298,91,293,61,239,101,176,5,116,175,3,60,76,134,82,122,36,108,57,272,195,260,213,139,245,58,232,12,276,256,38,62,182,215,221,25,202,111,144,119,90,40,127,164,109,279,4,231,98,241,199,224,147,105,129,218,235,115,265,130,141,126,200,169,220,154,183,104,287,166,2,46,117,14,181,173,155,283,247,242,258,237,212,71,281,56,251,243,223,190,136,53,229,43,77,49,291,114,296,103,1,140,161,201,21,84,186,23,51,11,184,248,160,41,217,208,277,236,47,206,87,42,211,80,262,74,143,275,282,102,244,86,131,54,150,92,85,253,278,120,214]","arrowleft","0","17","40","300","[""0045_N0300_K0040_CLIQUE"",""0082_N0300_K0040_NOCLIQUE""]",""
"","audio-keyboard-response","148","937058","0.0-69.0-0.0-1.0","","","","","","","","","","","","","","","","","","null","audio_feedback/shuffles/shuffle01.mp3","null","","","0","17","40","300","[""0045_N0300_K0040_CLIQUE"",""0082_N0300_K0040_NOCLIQUE""]",""
"","canvas-keyboard-response","149","939761","0.0-69.1-0.1-0.1","","","","","","","","","","","","","","","","","","2651","","arrowleft","[283,35,205,67,234,254,196,286,96,236,275,82,66,76,288,229,11,42,162,271,245,180,297,145,108,88,89,137,98,99,74,188,204,127,72,228,41,298,21,134,50,292,218,27,138,252,100,217,263,157,174,14,295,16,60,40,140,183,58,0,125,181,10,78,97,37,24,199,8,121,90,13,130,115,171,257,168,278,290,25,201,164,202,149,117,65,69,213,73,120,259,158,143,54,266,222,81,46,246,9,59,142,211,197,34,62,191,251,150,212,7,45,126,103,77,231,84,241,80,258,155,107,244,29,203,214,268,110,70,224,176,269,146,291,85,105,232,220,49,253,194,128,144,1,227,239,280,4,104,293,55,28,95,160,242,200,178,159,23,64,57,187,31,255,15,32,276,116,165,18,132,22,184,94,51,243,247,225,52,296,221,161,237,71,123,172,63,272,3,61,215,289,273,68,177,185,240,83,131,102,75,136,282,264,219,261,281,5,113,79,277,153,47,152,44,226,198,129,189,20,26,223,210,169,133,124,2,109,179,238,93,39,6,17,267,92,87,43,216,284,233,53,192,114,118,260,86,48,299,193,12,111,186,106,287,112,151,294,139,195,265,170,154,175,36,256,19,91,190,250,209,230,148,119,56,38,235,141,208,147,173,122,248,206,166,279,274,207,262,33,249,270,135,163,182,101,285,30,167,156]","arrowleft","0","17","40","300","[""0045_N0300_K0040_CLIQUE"",""0082_N0300_K0040_NOCLIQUE""]","true"
"","audio-keyboard-response","150","940758","0.0-69.1-0.1-1.1","","","","","","","","","","","","","","","","","","null","audio_feedback/right/coin01.mp3","null","","","0","17","40","300","[""0045_N0300_K0040_CLIQUE"",""0082_N0300_K0040_NOCLIQUE""]",""
"","canvas-keyboard-response","151","943769","0.0-70.0-0.0-0.0","","","","","","","","","","","","","","","","","","2955","","arrowleft","[118,93,213,79,163,85,182,144,222,196,106,293,101,0,64,275,4,250,261,188,193,242,73,60,119,3,174,46,108,277,48,264,282,80,214,145,184,240,205,221,260,203,149,94,137,90,167,69,171,31,92,185,244,49,142,192,71,6,51,274,179,158,267,5,105,208,238,121,134,269,262,110,259,272,65,288,133,44,199,235,12,156,183,32,194,166,286,97,95,41,52,202,216,67,81,219,251,99,2,172,129,246,40,195,279,211,232,165,98,226,177,206,7,96,197,130,9,141,63,189,201,154,233,215,16,173,30,54,187,191,237,139,100,290,13,270,180,143,265,220,25,75,57,284,147,70,207,256,153,127,157,36,294,58,21,8,124,111,146,271,135,268,292,152,87,176,72,62,18,253,217,150,160,273,210,140,218,103,252,162,209,280,281,117,50,200,82,28,225,297,255,33,234,109,231,26,39,45,299,131,68,278,245,125,151,10,120,19,198,227,291,78,55,169,104,241,86,112,83,122,20,263,168,61,266,74,186,296,38,136,24,287,123,178,161,239,102,22,126,175,53,17,247,59,76,11,128,204,116,258,88,29,84,298,181,289,42,132,43,35,138,257,114,89,113,37,148,15,56,283,1,223,14,249,170,285,190,236,77,254,159,91,115,155,27,229,107,248,276,66,224,230,243,34,228,23,47,164,212,295]","arrowleft","0","18","35","300","[""0021_N0300_K0035_CLIQUE"",""0057_N0300_K0035_NOCLIQUE""]","true"
"","audio-keyboard-response","152","944758","0.0-70.0-0.0-1.0","","","","","","","","","","","","","","","","","","null","audio_feedback/right/coin01.mp3","null","","","0","18","35","300","[""0021_N0300_K0035_CLIQUE"",""0057_N0300_K0035_NOCLIQUE""]",""
"","canvas-keyboard-response","153","950037","0.0-71.0-0.0-0.0","","","","","","","","","","","","","","","","","","5221","","arrowleft","[151,190,39,105,197,174,170,144,15,7,124,208,221,140,153,231,299,99,233,165,34,243,252,31,238,213,230,109,46,138,74,193,245,33,277,256,161,154,78,13,224,48,195,59,60,148,156,14,69,20,290,288,86,95,38,248,177,37,234,2,216,27,254,26,163,200,246,119,176,93,244,189,29,94,228,8,188,90,116,155,58,283,24,115,16,298,4,222,287,141,120,297,166,98,201,52,272,173,125,134,220,87,145,179,10,250,81,258,32,180,218,292,3,66,64,295,129,259,68,71,162,268,67,202,275,54,171,28,70,12,40,293,237,51,1,175,113,257,146,6,157,45,240,128,84,158,23,265,63,214,282,279,274,183,285,184,55,206,169,143,19,178,172,100,43,103,276,249,271,21,160,136,226,106,61,152,261,269,264,57,262,132,247,9,217,72,199,139,41,187,102,108,135,35,80,168,62,75,242,17,88,204,266,284,47,289,294,11,44,36,42,219,147,126,203,270,215,104,255,130,267,25,65,107,97,182,50,225,159,101,296,280,30,53,191,291,22,241,73,223,150,253,229,239,260,227,137,118,205,198,85,232,278,185,210,273,121,18,236,194,79,82,49,89,207,123,77,196,112,127,110,286,281,91,56,122,131,133,186,5,96,263,181,76,192,92,142,167,209,211,83,164,114,117,149,235,111,0,212,251]","arrowright","0","19","35","300","[""0047_N0300_K0035_NOCLIQUE"",""0064_N0300_K0035_CLIQUE""]","false"
"","audio-keyboard-response","154","951059","0.0-71.0-0.0-1.0","","","","","","","","","","","","","","","","","","null","audio_feedback/wrong/error01.mp3","null","","","0","19","35","300","[""0047_N0300_K0035_NOCLIQUE"",""0064_N0300_K0035_CLIQUE""]",""
"","canvas-keyboard-response","155","953231","0.0-72.0-0.0-0.0","","","","","","","","","","","","","","","","","","2119","","arrowleft","[71,201,217,152,126,61,27,146,293,78,37,237,196,100,88,131,20,135,150,283,251,122,120,199,73,187,197,248,139,202,263,164,132,216,245,116,70,180,291,162,264,148,258,288,17,106,38,121,133,123,178,91,112,12,272,140,236,159,81,210,223,48,79,233,208,3,292,298,215,297,229,118,46,192,213,267,271,125,224,220,282,287,261,277,90,168,294,95,232,151,9,11,204,222,247,169,255,198,58,31,254,257,101,238,226,14,129,172,156,39,160,43,228,75,142,8,25,235,182,166,266,203,145,77,82,195,186,92,13,103,26,84,111,200,170,155,154,184,173,124,207,144,128,218,93,94,98,134,241,15,189,67,59,24,18,130,36,227,28,253,44,127,141,108,117,212,86,85,269,230,35,45,284,296,299,109,29,276,72,285,102,6,191,268,295,32,64,171,50,87,206,239,33,246,286,97,107,4,115,185,19,243,113,57,252,80,221,68,138,161,289,157,250,214,281,76,69,96,51,2,65,262,158,30,193,1,54,89,231,0,110,179,40,153,165,74,22,147,175,119,62,53,167,275,99,256,23,52,211,225,205,149,16,105,190,273,176,114,240,10,270,137,183,163,259,42,280,56,279,278,41,265,244,66,136,34,49,209,104,47,260,174,290,242,274,63,177,60,5,181,219,234,83,188,194,143,249,55,21,7]","arrowleft","0","20","30","300","[""0001_N0300_K0030_CLIQUE"",""0053_N0300_K0030_NOCLIQUE""]","true"
"","audio-keyboard-response","156","954218","0.0-72.0-0.0-1.0","","","","","","","","","","","","","","","","","","null","audio_feedback/right/coin01.mp3","null","","","0","20","30","300","[""0001_N0300_K0030_CLIQUE"",""0053_N0300_K0030_NOCLIQUE""]",""
